time,seconds_elapsed,z,y,x
1773798271207315500,0.0213154296875,-0.9949493408203125,0.0085601806640625,-0.017425537109375
1773798271227279400,0.041279296875,-0.9965057373046875,0.0084381103515625,-0.016265869140625
1773798271247243500,0.061243408203125,-0.9953460693359375,0.0088958740234375,-0.0169677734375
1773798271267207400,0.08120751953125,-0.9969482421875,0.0086517333984375,-0.017669677734375
1773798271287171300,0.10117138671875,-0.995452880859375,0.0078582763671875,-0.0160675048828125
1773798271307136500,0.121136474609375,-0.9960174560546875,0.0072784423828125,-0.016326904296875
1773798271327100400,0.141100341796875,-0.9964141845703125,0.0091400146484375,-0.0159759521484375
1773798271347064600,0.161064697265625,-0.9951171875,0.0066680908203125,-0.0169677734375
1773798271367028500,0.181028564453125,-0.9949188232421875,0.0080108642578125,-0.017120361328125
1773798271386992400,0.200992431640625,-0.9957275390625,0.0091400146484375,-0.0158538818359375
1773798271406956500,0.22095654296875,-0.9959564208984375,0.008209228515625,-0.01776123046875
1773798271426921500,0.24092138671875,-0.9962005615234375,0.0091552734375,-0.01568603515625
1773798271446885400,0.260885498046875,-0.995819091796875,0.0087738037109375,-0.0167083740234375
1773798271466849300,0.280849365234375,-0.9960479736328125,0.00665283203125,-0.01611328125
1773798271486813400,0.3008134765625,-0.996246337890625,0.008575439453125,-0.01690673828125
1773798271506777600,0.320777587890625,-0.9949188232421875,0.0080413818359375,-0.0170135498046875
1773798271526741500,0.340741455078125,-0.9954681396484375,0.0092315673828125,-0.016998291015625
1773798271546706400,0.36070654296875,-0.995025634765625,0.0081024169921875,-0.016693115234375
1773798271566670300,0.38067041015625,-0.9964141845703125,0.00787353515625,-0.017364501953125
1773798271586634500,0.400634521484375,-0.9961395263671875,0.0087127685546875,-0.0160675048828125
1773798271606598400,0.420598388671875,-0.995208740234375,0.008575439453125,-0.0161285400390625
1773798271626562300,0.440562255859375,-0.9967498779296875,0.0081024169921875,-0.0159454345703125
1773798271646526500,0.4605263671875,-0.9957733154296875,0.0072021484375,-0.0154266357421875
1773798271666491600,0.48049169921875,-0.9961090087890625,0.0074920654296875,-0.016448974609375
1773798271686455800,0.500455810546875,-0.9964752197265625,0.00897216796875,-0.0167694091796875
1773798271706419700,0.520419677734375,-0.9964599609375,0.00848388671875,-0.0166473388671875
1773798271726383900,0.5403837890625,-0.9953155517578125,0.008941650390625,-0.016510009765625
1773798271746348000,0.56034814453125,-0.996826171875,0.0080108642578125,-0.016082763671875
1773798271766313000,0.58031298828125,-0.9964599609375,0.0078125,-0.016876220703125
1773798271786276900,0.60027685546875,-0.9974212646484375,0.00732421875,-0.017181396484375
1773798271806240800,0.62024072265625,-0.995635986328125,0.0087738037109375,-0.015472412109375
1773798271826204700,0.64020458984375,-0.9958648681640625,0.009124755859375,-0.0161285400390625
1773798271846168800,0.6601689453125,-0.9952850341796875,0.0081024169921875,-0.01617431640625
1773798271866132700,0.6801328125,-0.9960479736328125,0.0086669921875,-0.01666259765625
1773798271886096600,0.7000966796875,-0.9976348876953125,0.0075225830078125,-0.01678466796875
1773798271906061800,0.720061767578125,-0.9964752197265625,0.0067138671875,-0.0172882080078125
1773798271926026000,0.74002587890625,-0.997283935546875,0.008575439453125,-0.0177001953125
1773798271945990000,0.759989990234375,-0.9963836669921875,0.008636474609375,-0.0164947509765625
1773798271965953800,0.779953857421875,-0.9959564208984375,0.0080718994140625,-0.016571044921875
1773798271985917700,0.799917724609375,-0.996246337890625,0.0076446533203125,-0.017669677734375
1773798272005881900,0.8198818359375,-0.995086669921875,0.008575439453125,-0.0170135498046875
1773798272025846800,0.8398466796875,-0.9969635009765625,0.0082244873046875,-0.01654052734375
1773798272045810700,0.859810791015625,-0.9954986572265625,0.007843017578125,-0.0161285400390625
1773798272065774800,0.87977490234375,-0.9951019287109375,0.0089569091796875,-0.016815185546875
1773798272085739000,0.899739013671875,-0.9962921142578125,0.0073394775390625,-0.0174713134765625
1773798272105703000,0.919702880859375,-0.9952545166015625,0.0082550048828125,-0.01763916015625
1773798272125666800,0.939666748046875,-0.9955291748046875,0.008148193359375,-0.016357421875
1773798272145631700,0.9596318359375,-0.9947509765625,0.0076751708984375,-0.0162506103515625
1773798272165595600,0.979595703125,-0.9958953857421875,0.0079345703125,-0.0161590576171875
1773798272185559800,0.999559814453125,-0.9956207275390625,0.008056640625,-0.0167388916015625
1773798272205523700,1.019523681640625,-0.995941162109375,0.0091705322265625,-0.0161590576171875
1773798272225487600,1.039487548828125,-0.9953155517578125,0.0082855224609375,-0.017425537109375
1773798272245452000,1.0594521484375,-0.996429443359375,0.0081787109375,-0.017242431640625
1773798272265417000,1.0794169921875,-0.99560546875,0.0085906982421875,-0.017120361328125
1773798272285380900,1.099380859375,-0.996307373046875,0.008514404296875,-0.0165557861328125
1773798272305344800,1.1193447265625,-0.995391845703125,0.008209228515625,-0.016754150390625
1773798272325308700,1.13930859375,-0.9952392578125,0.0074615478515625,-0.016754150390625
1773798272345272800,1.15927294921875,-0.9971771240234375,0.0086822509765625,-0.0169830322265625
1773798272365236700,1.17923681640625,-0.9953460693359375,0.007232666015625,-0.0167388916015625
1773798272385202000,1.199201904296875,-0.9965972900390625,0.007843017578125,-0.016693115234375
1773798272405165800,1.219165771484375,-0.99615478515625,0.0087432861328125,-0.017578125
1773798272425130000,1.2391298828125,-0.9967498779296875,0.008026123046875,-0.0168304443359375
1773798272445094000,1.259093994140625,-0.995208740234375,0.0084228515625,-0.016998291015625
1773798272465057800,1.279057861328125,-0.9960479736328125,0.0079498291015625,-0.016357421875
1773798272485022000,1.29902197265625,-0.9960479736328125,0.0083465576171875,-0.0166778564453125
1773798272504985900,1.31898583984375,-0.995513916015625,0.0077056884765625,-0.01708984375
1773798272524950800,1.33895068359375,-0.994964599609375,0.007171630859375,-0.016845703125
1773798272544914700,1.358914794921875,-0.996185302734375,0.0075836181640625,-0.0166778564453125
1773798272564878600,1.378878662109375,-0.9961090087890625,0.0084381103515625,-0.0164642333984375
1773798272584843000,1.398843017578125,-0.9957275390625,0.0084075927734375,-0.0170135498046875
1773798272604807000,1.418806884765625,-0.9964141845703125,0.0082550048828125,-0.017364501953125
1773798272624770800,1.438770751953125,-0.9945220947265625,0.0076446533203125,-0.0159454345703125
1773798272644735000,1.45873486328125,-0.994537353515625,0.0081329345703125,-0.0159912109375
1773798272664700000,1.478699951171875,-0.997100830078125,0.0078582763671875,-0.01458740234375
1773798272684664000,1.4986640625,-0.996307373046875,0.008758544921875,-0.0172271728515625
1773798272704628000,1.5186279296875,-0.997283935546875,0.008575439453125,-0.0178375244140625
1773798272724591900,1.538591796875,-0.9964141845703125,0.00738525390625,-0.0161895751953125
1773798272744556000,1.55855615234375,-0.9957427978515625,0.0079345703125,-0.015960693359375
1773798272764520200,1.578520263671875,-0.994903564453125,0.008453369140625,-0.0173187255859375
1773798272784485000,1.598485107421875,-0.99542236328125,0.0100250244140625,-0.0170745849609375
1773798272804449000,1.618448974609375,-0.995819091796875,0.0090179443359375,-0.0165863037109375
1773798272824413200,1.6384130859375,-0.9978485107421875,0.0084228515625,-0.0165557861328125
1773798272844377000,1.658377197265625,-0.9965667724609375,0.007904052734375,-0.0165557861328125
1773798272864341000,1.678341064453125,-0.997100830078125,0.009735107421875,-0.01611328125
1773798272884305000,1.698304931640625,-0.9962310791015625,0.00762939453125,-0.017242431640625
1773798272904269000,1.71826904296875,-0.9944915771484375,0.0081939697265625,-0.0168609619140625
1773798272924234200,1.738234130859375,-0.9958343505859375,0.0088653564453125,-0.01654052734375
1773798272944198100,1.7581982421875,-0.996124267578125,0.008636474609375,-0.01812744140625
1773798272964162000,1.778162109375,-0.99517822265625,0.0084075927734375,-0.0166473388671875
1773798272984126200,1.798126220703125,-0.9960479736328125,0.0076751708984375,-0.016448974609375
1773798273004090000,1.818090087890625,-0.9967193603515625,0.0085906982421875,-0.017364501953125
1773798273024054000,1.838053955078125,-0.995269775390625,0.0077362060546875,-0.0168304443359375
1773798273044018000,1.858017822265625,-0.996978759765625,0.00775146484375,-0.01708984375
1773798273063982800,1.87798291015625,-0.9967498779296875,0.0092010498046875,-0.0166168212890625
1773798273083947300,1.897947265625,-0.9975128173828125,0.0066375732421875,-0.017425537109375
1773798273103911200,1.9179111328125,-0.99127197265625,0.00927734375,-0.01641845703125
1773798273123875000,1.937875,-0.9993133544921875,0.0063323974609375,-0.0152435302734375
1773798273143839200,1.957839111328125,-0.99566650390625,0.00897216796875,-0.0171966552734375
1773798273163803100,1.97780322265625,-0.99725341796875,0.0090789794921875,-0.016632080078125
1773798273183768000,1.99776806640625,-0.9951171875,0.006866455078125,-0.0171051025390625
1773798273203732000,2.01773193359375,-0.9943695068359375,0.008270263671875,-0.0170745849609375
1773798273223696000,2.03769580078125,-0.99737548828125,0.0074310302734375,-0.0171356201171875
1773798273243660000,2.057659912109375,-0.9960784912109375,0.0077667236328125,-0.017364501953125
1773798273263624000,2.0776240234375,-0.9956207275390625,0.00762939453125,-0.0174102783203125
1773798273283588000,2.097588134765625,-0.9951324462890625,0.007476806640625,-0.016815185546875
1773798273303552300,2.11755224609375,-0.9954681396484375,0.006591796875,-0.016571044921875
1773798273323517200,2.13751708984375,-0.99566650390625,0.0082244873046875,-0.0162811279296875
1773798273343481000,2.157481201171875,-0.995574951171875,0.008056640625,-0.01654052734375
1773798273363445000,2.177445068359375,-0.9970245361328125,0.00811767578125,-0.0162200927734375
1773798273383409000,2.197408935546875,-0.9958343505859375,0.007843017578125,-0.0166778564453125
1773798273403373000,2.217373046875,-0.9953765869140625,0.0076904296875,-0.017364501953125
1773798273423337000,2.2373369140625,-0.9961395263671875,0.0082244873046875,-0.0169219970703125
1773798273443300900,2.25730078125,-0.9955902099609375,0.007598876953125,-0.0158843994140625
1773798273463266000,2.27726611328125,-0.9952392578125,0.008270263671875,-0.0156097412109375
1773798273483230200,2.297230224609375,-0.9959564208984375,0.0108642578125,-0.0163116455078125
1773798273503194000,2.317194091796875,-0.9971466064453125,0.0097503662109375,-0.0196075439453125
1773798273523158000,2.337157958984375,-0.9943695068359375,0.0081939697265625,-0.0155181884765625
1773798273543122200,2.3571220703125,-0.9916534423828125,0.0077667236328125,-0.0151824951171875
1773798273563086000,2.377086181640625,-0.9973907470703125,0.0067291259765625,-0.0178375244140625
1773798273583050000,2.397050048828125,-0.996551513671875,0.00921630859375,-0.0154266357421875
1773798273603014000,2.417013916015625,-0.9972381591796875,0.0077056884765625,-0.0181121826171875
1773798273622979000,2.43697900390625,-0.9954681396484375,0.0097503662109375,-0.01708984375
1773798273642943200,2.456943115234375,-0.9942169189453125,0.0086822509765625,-0.0154876708984375
1773798273662907000,2.476906982421875,-0.995147705078125,0.008544921875,-0.016693115234375
1773798273682870800,2.496870849609375,-0.995941162109375,0.008270263671875,-0.016265869140625
1773798273702835000,2.5168349609375,-0.99676513671875,0.0084381103515625,-0.01776123046875
1773798273722798800,2.536798828125,-0.996185302734375,0.0083465576171875,-0.016143798828125
1773798273742763000,2.556762939453125,-0.9948272705078125,0.006805419921875,-0.016754150390625
1773798273762728000,2.57672802734375,-0.9960174560546875,0.0077972412109375,-0.0164642333984375
1773798273782691800,2.59669189453125,-0.9964447021484375,0.0085906982421875,-0.0169677734375
1773798273802656000,2.616656005859375,-0.9962158203125,0.0090484619140625,-0.017242431640625
1773798273822620000,2.636619873046875,-0.9962921142578125,0.0082855224609375,-0.017822265625
1773798273842583800,2.656583740234375,-0.995880126953125,0.00897216796875,-0.0174713134765625
1773798273862548000,2.6765478515625,-0.995819091796875,0.008453369140625,-0.016815185546875
1773798273882512000,2.696511962890625,-0.9960479736328125,0.009185791015625,-0.01556396484375
1773798273902477000,2.71647705078125,-0.9965667724609375,0.00787353515625,-0.0173797607421875
1773798273922441000,2.73644091796875,-0.996856689453125,0.0084686279296875,-0.0161285400390625
1773798273942404900,2.75640478515625,-0.9957427978515625,0.00787353515625,-0.0159149169921875
1773798273962369000,2.776369140625,-0.996490478515625,0.0083770751953125,-0.0168304443359375
1773798273982333000,2.7963330078125,-0.99664306640625,0.008209228515625,-0.0178680419921875
1773798274002296800,2.816296875,-0.9965972900390625,0.008026123046875,-0.0173187255859375
1773798274022261000,2.836260986328125,-0.995697021484375,0.0085296630859375,-0.0165863037109375
1773798274042226000,2.856225830078125,-0.996185302734375,0.00750732421875,-0.016571044921875
1773798274062190000,2.876190185546875,-0.9959564208984375,0.0084991455078125,-0.0171051025390625
1773798274082154000,2.896154052734375,-0.995025634765625,0.0083160400390625,-0.0169830322265625
1773798274102118000,2.916117919921875,-0.9960784912109375,0.0078125,-0.0167388916015625
1773798274122082000,2.93608203125,-0.995880126953125,0.007293701171875,-0.016448974609375
1773798274142046000,2.9560458984375,-0.99432373046875,0.0079193115234375,-0.0162506103515625
1773798274162009900,2.976009765625,-0.9956207275390625,0.007965087890625,-0.0163116455078125
1773798274181974800,2.995974853515625,-0.995941162109375,0.0074920654296875,-0.01690673828125
1773798274201939000,3.01593896484375,-0.9962158203125,0.0080108642578125,-0.017547607421875
1773798274221902800,3.03590283203125,-0.9980010986328125,0.0090179443359375,-0.017822265625
1773798274241866800,3.05586669921875,-0.9970245361328125,0.0088653564453125,-0.0162200927734375
1773798274261831200,3.0758310546875,-0.9959716796875,0.0085296630859375,-0.0170745849609375
1773798274281795000,3.095795166015625,-0.9957427978515625,0.0082855224609375,-0.016082763671875
1773798274301759000,3.115759033203125,-0.9960784912109375,0.008575439453125,-0.017181396484375
1773798274321723000,3.135722900390625,-0.9952392578125,0.0078277587890625,-0.0169219970703125
1773798274341687800,3.155687744140625,-0.9950103759765625,0.0061492919921875,-0.017364501953125
1773798274361652000,3.17565185546875,-0.9959869384765625,0.008544921875,-0.0160369873046875
1773798274381615900,3.195615966796875,-0.9965972900390625,0.0086212158203125,-0.01727294921875
1773798274401579800,3.215579833984375,-0.9950408935546875,0.00823974609375,-0.016143798828125
1773798274421544000,3.2355439453125,-0.996246337890625,0.0083465576171875,-0.0156097412109375
1773798274441508000,3.255508056640625,-0.9960479736328125,0.007843017578125,-0.017486572265625
1773798274461472000,3.275471923828125,-0.9973907470703125,0.0089874267578125,-0.0171356201171875
1773798274481437000,3.29543701171875,-0.9948272705078125,0.0085296630859375,-0.0159149169921875
1773798274501400800,3.31540087890625,-0.996856689453125,0.00823974609375,-0.0162353515625
1773798274521365000,3.335364990234375,-0.9965362548828125,0.0083160400390625,-0.0165557861328125
1773798274541329000,3.355328857421875,-0.9965972900390625,0.00897216796875,-0.015655517578125
1773798274561292800,3.375292724609375,-0.9962921142578125,0.0072784423828125,-0.0174102783203125
1773798274581257000,3.395257080078125,-0.9960174560546875,0.006927490234375,-0.016937255859375
1773798274601220900,3.415220947265625,-0.996337890625,0.0078277587890625,-0.015380859375
1773798274621184800,3.435184814453125,-0.9949188232421875,0.0081939697265625,-0.01763916015625
1773798274641150000,3.45514990234375,-0.996002197265625,0.0077667236328125,-0.0163421630859375
1773798274661113900,3.47511376953125,-0.99542236328125,0.0085601806640625,-0.016357421875
1773798274681078000,3.495078125,-0.9963226318359375,0.00762939453125,-0.0171356201171875
1773798274701042200,3.515042236328125,-0.995697021484375,0.0086822509765625,-0.0165252685546875
1773798274721006000,3.535006103515625,-0.99554443359375,0.0098419189453125,-0.016632080078125
1773798274740970200,3.55497021484375,-0.996063232421875,0.0074920654296875,-0.0171966552734375
1773798274760934100,3.57493408203125,-0.9974212646484375,0.0084686279296875,-0.0158843994140625
1773798274780898000,3.59489794921875,-0.9963226318359375,0.0084075927734375,-0.015533447265625
1773798274800863000,3.614863037109375,-0.995208740234375,0.0087890625,-0.0159912109375
1773798274820827000,3.634826904296875,-0.996246337890625,0.0076141357421875,-0.0162353515625
1773798274840791000,3.654791015625,-0.9969024658203125,0.007659912109375,-0.016357421875
1773798274860755000,3.6747548828125,-0.99530029296875,0.0089874267578125,-0.0164337158203125
1773798274880718800,3.69471875,-0.9961090087890625,0.0086669921875,-0.0174407958984375
1773798274900683300,3.714683349609375,-0.9954986572265625,0.0077362060546875,-0.0178985595703125
1773798274920647200,3.734647216796875,-0.9949493408203125,0.0082550048828125,-0.0165252685546875
1773798274940612000,3.754612060546875,-0.9958648681640625,0.008758544921875,-0.0175628662109375
1773798274960576000,3.774575927734375,-0.99603271484375,0.0087738037109375,-0.0167999267578125
1773798274980540200,3.7945400390625,-0.9954986572265625,0.0088958740234375,-0.018280029296875
1773798275000504000,3.814504150390625,-0.9958343505859375,0.008392333984375,-0.015380859375
1773798275020468000,3.834468017578125,-0.996002197265625,0.0081634521484375,-0.01641845703125
1773798275040431900,3.854431884765625,-0.9962310791015625,0.008056640625,-0.0162506103515625
1773798275060396000,3.87439599609375,-0.9963531494140625,0.0077972412109375,-0.0162506103515625
1773798275080360200,3.894360107421875,-0.9952545166015625,0.0076904296875,-0.016387939453125
1773798275100324000,3.914323974609375,-0.9961395263671875,0.00872802734375,-0.0171356201171875
1773798275120289000,3.9342890625,-0.9962310791015625,0.008514404296875,-0.0172882080078125
1773798275140253200,3.954253173828125,-0.9954833984375,0.00787353515625,-0.0167694091796875
1773798275160217000,3.974217041015625,-0.9952392578125,0.00830078125,-0.0177764892578125
1773798275180181000,3.994180908203125,-0.995635986328125,0.007537841796875,-0.016998291015625
1773798275200145000,4.014144775390625,-0.9962158203125,0.0088348388671875,-0.016693115234375
1773798275220109000,4.034109130859375,-0.9958038330078125,0.0082550048828125,-0.01629638671875
1773798275240073000,4.054072998046875,-0.9952239990234375,0.0078277587890625,-0.0169677734375
1773798275260037000,4.074037109375,-0.9952850341796875,0.0079803466796875,-0.0164031982421875
1773798275280002000,4.094001953125,-0.996734619140625,0.00897216796875,-0.0165863037109375
1773798275299966200,4.11396630859375,-0.9959564208984375,0.0078125,-0.0166473388671875
1773798275319930000,4.13393017578125,-0.9962615966796875,0.0078125,-0.0183563232421875
1773798275339894000,4.15389404296875,-0.9966278076171875,0.0079803466796875,-0.017242431640625
1773798275359858000,4.17385791015625,-0.9954376220703125,0.0080108642578125,-0.0176239013671875
1773798275379822000,4.193822021484375,-0.9954376220703125,0.008148193359375,-0.016265869140625
1773798275399786000,4.213785888671875,-0.995819091796875,0.008636474609375,-0.0165252685546875
1773798275419750000,4.23375,-0.996002197265625,0.0091094970703125,-0.0165557861328125
1773798275439715000,4.253715087890625,-0.996307373046875,0.008148193359375,-0.015869140625
1773798275459679200,4.27367919921875,-0.9968414306640625,0.0096282958984375,-0.0177764892578125
1773798275479643100,4.29364306640625,-0.997314453125,0.0096435546875,-0.0167388916015625
1773798275499607000,4.31360693359375,-0.994476318359375,0.0082855224609375,-0.016845703125
1773798275519571000,4.333571044921875,-0.99658203125,0.0080718994140625,-0.0166015625
1773798275539535000,4.35353515625,-0.995941162109375,0.008453369140625,-0.0179595947265625
1773798275559499000,4.3734990234375,-0.994873046875,0.0083465576171875,-0.016754150390625
1773798275579463000,4.393462890625,-0.9955291748046875,0.0077362060546875,-0.01629638671875
1773798275599428000,4.413427978515625,-0.995941162109375,0.0074310302734375,-0.01690673828125
1773798275619392300,4.433392333984375,-0.994873046875,0.0092010498046875,-0.0164031982421875
1773798275639356200,4.453356201171875,-0.995147705078125,0.008636474609375,-0.0167999267578125
1773798275659319600,4.473319580078125,-0.9961090087890625,0.008270263671875,-0.016876220703125
1773798275679283700,4.49328369140625,-0.9963836669921875,0.0077362060546875,-0.0171661376953125
1773798275699247600,4.51324755859375,-0.995849609375,0.0091552734375,-0.01666259765625
1773798275719211500,4.53321142578125,-0.9956817626953125,0.008148193359375,-0.0173797607421875
1773798275739175700,4.55317578125,-0.9948577880859375,0.0088043212890625,-0.0171661376953125
1773798275759139800,4.573139892578125,-0.9955902099609375,0.0082550048828125,-0.016510009765625
1773798275779104800,4.593104736328125,-0.9956512451171875,0.008270263671875,-0.016754150390625
1773798275799068700,4.613068603515625,-0.9957733154296875,0.008148193359375,-0.015380859375
1773798275819032600,4.633032470703125,-0.995208740234375,0.0083770751953125,-0.016143798828125
1773798275838996700,4.652996826171875,-0.99658203125,0.0069427490234375,-0.0164337158203125
1773798275858960600,4.672960693359375,-0.99505615234375,0.00799560546875,-0.016632080078125
1773798275878924500,4.692924560546875,-0.9951934814453125,0.00750732421875,-0.0162200927734375
1773798275898888700,4.712888671875,-0.9958648681640625,0.0085601806640625,-0.018463134765625
1773798275918852900,4.732852783203125,-0.9954071044921875,0.00799560546875,-0.015716552734375
1773798275938817800,4.75281787109375,-0.996551513671875,0.008056640625,-0.01702880859375
1773798275958781700,4.77278173828125,-0.9951171875,0.008636474609375,-0.0163421630859375
1773798275978745600,4.79274560546875,-0.9951324462890625,0.0073394775390625,-0.0152587890625
1773798275998709800,4.812709716796875,-0.9967803955078125,0.008544921875,-0.0164947509765625
1773798276018673700,4.832673583984375,-0.996002197265625,0.0093536376953125,-0.0166015625
1773798276038637600,4.852637451171875,-0.9964752197265625,0.008575439453125,-0.0172882080078125
1773798276058601700,4.872601806640625,-0.9955902099609375,0.0082244873046875,-0.0160980224609375
1773798276078565600,4.892565673828125,-0.9969482421875,0.0079193115234375,-0.01751708984375
1773798276098529500,4.912529541015625,-0.9947357177734375,0.007843017578125,-0.0165557861328125
1773798276118494700,4.93249462890625,-0.9964141845703125,0.0074615478515625,-0.0154571533203125
1773798276138458600,4.952458740234375,-0.9959869384765625,0.0076446533203125,-0.017303466796875
1773798276158422800,4.9724228515625,-0.9954376220703125,0.00787353515625,-0.0167083740234375
1773798276178386700,4.99238671875,-0.9964141845703125,0.0079345703125,-0.0163421630859375
1773798276198350600,5.0123505859375,-0.9942169189453125,0.0084075927734375,-0.016387939453125
1773798276218314800,5.032314697265625,-0.9966278076171875,0.007537841796875,-0.0166778564453125
1773798276238278700,5.052278564453125,-0.995391845703125,0.007904052734375,-0.016754150390625
1773798276258242600,5.07224267578125,-0.9949798583984375,0.008575439453125,-0.0162200927734375
1773798276278206500,5.09220654296875,-0.9967803955078125,0.0074615478515625,-0.01678466796875
1773798276298171600,5.112171630859375,-0.99554443359375,0.009124755859375,-0.0162353515625
1773798276318135800,5.1321357421875,-0.9965057373046875,0.0092620849609375,-0.0167236328125
1773798276338099700,5.152099609375,-0.9956512451171875,0.008636474609375,-0.0169830322265625
1773798276358063600,5.172063720703125,-0.9964447021484375,0.008392333984375,-0.016510009765625
1773798276378027800,5.19202783203125,-0.99493408203125,0.0082244873046875,-0.0161590576171875
1773798276397991700,5.21199169921875,-0.996429443359375,0.0080413818359375,-0.01727294921875
1773798276417955600,5.23195556640625,-0.9962158203125,0.0094451904296875,-0.016693115234375
1773798276437919700,5.251919677734375,-0.996368408203125,0.008392333984375,-0.0173797607421875
1773798276457883600,5.271883544921875,-0.9954376220703125,0.0083465576171875,-0.017333984375
1773798276477848800,5.291848876953125,-0.996124267578125,0.008819580078125,-0.0162506103515625
1773798276497812700,5.311812744140625,-0.9965972900390625,0.0083465576171875,-0.0155181884765625
1773798276517776600,5.331776611328125,-0.9952545166015625,0.008453369140625,-0.017364501953125
1773798276537740800,5.35174072265625,-0.996337890625,0.0087432861328125,-0.0170440673828125
1773798276557704700,5.37170458984375,-0.996307373046875,0.0077056884765625,-0.016998291015625
1773798276577668600,5.391668701171875,-0.995513916015625,0.0084075927734375,-0.01617431640625
1773798276597632800,5.4116328125,-0.996307373046875,0.0091552734375,-0.01727294921875
1773798276617596700,5.4315966796875,-0.9962921142578125,0.0077972412109375,-0.01690673828125
1773798276637560600,5.451560546875,-0.994781494140625,0.008514404296875,-0.016815185546875
1773798276657525200,5.471525146484375,-0.9958648681640625,0.00872802734375,-0.0163726806640625
1773798276677489400,5.491489501953125,-0.9956512451171875,0.007293701171875,-0.016937255859375
1773798276697453300,5.511453369140625,-0.995513916015625,0.0085296630859375,-0.0161590576171875
1773798276717417200,5.531417236328125,-0.995758056640625,0.0079498291015625,-0.0166778564453125
1773798276737381000,5.551381103515625,-0.996429443359375,0.007659912109375,-0.01776123046875
1773798276757345300,5.57134521484375,-0.9952392578125,0.0084075927734375,-0.016021728515625
1773798276777309200,5.59130908203125,-0.9955291748046875,0.00830078125,-0.016448974609375
1773798276797273000,5.611273193359375,-0.9961700439453125,0.0080718994140625,-0.0168304443359375
1773798276817237200,5.6312373046875,-0.9951324462890625,0.0087127685546875,-0.016143798828125
1773798276837202200,5.6512021484375,-0.996917724609375,0.00836181640625,-0.0160064697265625
1773798276857166300,5.671166259765625,-0.9958953857421875,0.007843017578125,-0.016326904296875
1773798276877130200,5.691130126953125,-0.9948883056640625,0.0091705322265625,-0.01654052734375
1773798276897094100,5.71109423828125,-0.99517822265625,0.0067596435546875,-0.0165252685546875
1773798276917058300,5.731058349609375,-0.99676513671875,0.0082244873046875,-0.0158843994140625
1773798276937022200,5.751022216796875,-0.996307373046875,0.008697509765625,-0.0169219970703125
1773798276956986000,5.770986083984375,-0.9962310791015625,0.0081939697265625,-0.0172882080078125
1773798276976950300,5.7909501953125,-0.996490478515625,0.006500244140625,-0.016571044921875
1773798276996914200,5.8109140625,-0.996856689453125,0.007781982421875,-0.0164642333984375
1773798277016878000,5.830878173828125,-0.9948577880859375,0.0079498291015625,-0.0167388916015625
1773798277036843300,5.85084326171875,-0.9962158203125,0.0088653564453125,-0.017242431640625
1773798277056807200,5.87080712890625,-0.99566650390625,0.0091705322265625,-0.0174713134765625
1773798277076771300,5.890771240234375,-0.9952239990234375,0.0081024169921875,-0.0156402587890625
1773798277096735200,5.9107353515625,-0.9959869384765625,0.0077972412109375,-0.0162200927734375
1773798277116699100,5.93069921875,-0.99493408203125,0.008056640625,-0.016571044921875
1773798277136663300,5.950663330078125,-0.995391845703125,0.007659912109375,-0.01739501953125
1773798277156627200,5.970627197265625,-0.995941162109375,0.0075531005859375,-0.0166015625
1773798277176591000,5.990591064453125,-0.9958648681640625,0.0082244873046875,-0.0166015625
1773798277196555300,6.01055517578125,-0.99591064453125,0.007354736328125,-0.0164642333984375
1773798277216519200,6.030519287109375,-0.9962158203125,0.0080108642578125,-0.0168609619140625
1773798277236484400,6.050484375,-0.9950103759765625,0.0074310302734375,-0.017303466796875
1773798277256448300,6.0704482421875,-0.99481201171875,0.008941650390625,-0.0152740478515625
1773798277276412200,6.090412109375,-0.9954986572265625,0.00823974609375,-0.015899658203125
1773798277296376300,6.110376220703125,-0.995330810546875,0.0093994140625,-0.0157470703125
1773798277316340200,6.13034033203125,-0.9954681396484375,0.008941650390625,-0.017242431640625
1773798277336304000,6.15030419921875,-0.996856689453125,0.00970458984375,-0.01763916015625
1773798277356268300,6.170268310546875,-0.9951324462890625,0.008270263671875,-0.016937255859375
1773798277376232200,6.190232177734375,-0.995941162109375,0.0081939697265625,-0.0167999267578125
1773798277396196000,6.210196044921875,-0.995513916015625,0.00860595703125,-0.0169677734375
1773798277416160000,6.230159912109375,-0.9959716796875,0.0080413818359375,-0.017181396484375
1773798277436125200,6.250125244140625,-0.99517822265625,0.00872802734375,-0.01629638671875
1773798277456089300,6.27008935546875,-0.99713134765625,0.008056640625,-0.016510009765625
1773798277476053200,6.29005322265625,-0.9962158203125,0.0075836181640625,-0.0175628662109375
1773798277496017200,6.31001708984375,-0.9966583251953125,0.0089569091796875,-0.016571044921875
1773798277515981300,6.329981201171875,-0.9969482421875,0.0082244873046875,-0.016448974609375
1773798277535945200,6.3499453125,-0.9970703125,0.00787353515625,-0.0180816650390625
1773798277555909000,6.3699091796875,-0.99530029296875,0.0086669921875,-0.016448974609375
1773798277575873000,6.389873046875,-0.9955596923828125,0.00860595703125,-0.0163116455078125
1773798277595837200,6.409837158203125,-0.995758056640625,0.00885009765625,-0.01751708984375
1773798277615801000,6.429801025390625,-0.996002197265625,0.0081024169921875,-0.017059326171875
1773798277635766300,6.449766357421875,-0.995819091796875,0.008331298828125,-0.01678466796875
1773798277655730200,6.469730224609375,-0.994873046875,0.009002685546875,-0.0167083740234375
1773798277675694300,6.4896943359375,-0.9964141845703125,0.0078125,-0.0164794921875
1773798277695658200,6.509658203125,-0.995880126953125,0.0081634521484375,-0.0168609619140625
1773798277715622400,6.529622314453125,-0.9957427978515625,0.008056640625,-0.0164794921875
1773798277735586300,6.54958642578125,-0.9951019287109375,0.0084991455078125,-0.0159912109375
1773798277755550500,6.569550537109375,-0.9962921142578125,0.00787353515625,-0.0172119140625
1773798277775514400,6.589514404296875,-0.9953460693359375,0.007781982421875,-0.0179443359375
1773798277795478300,6.609478271484375,-0.994964599609375,0.0080718994140625,-0.016754150390625
1773798277815442400,6.6294423828125,-0.9961700439453125,0.0087738037109375,-0.016357421875
1773798277835406300,6.64940625,-0.9970855712890625,0.0082855224609375,-0.0167694091796875
1773798277855371300,6.669371337890625,-0.9968109130859375,0.0084686279296875,-0.0161285400390625
1773798277875335200,6.689335205078125,-0.9958953857421875,0.008819580078125,-0.0175323486328125
1773798277895299300,6.70929931640625,-0.9965972900390625,0.0085296630859375,-0.016448974609375
1773798277915263500,6.729263427734375,-0.996490478515625,0.007293701171875,-0.017669677734375
1773798277935227400,6.749227294921875,-0.9950408935546875,0.008148193359375,-0.0166473388671875
1773798277955191300,6.76919140625,-0.995697021484375,0.007781982421875,-0.017364501953125
1773798277975155500,6.789155517578125,-0.995208740234375,0.00799560546875,-0.0168914794921875
1773798277995119400,6.809119384765625,-0.9958038330078125,0.008209228515625,-0.015777587890625
1773798278015083300,6.829083251953125,-0.99609375,0.0081634521484375,-0.016937255859375
1773798278035047200,6.849047119140625,-0.9960784912109375,0.008819580078125,-0.0174407958984375
1773798278055011300,6.86901123046875,-0.9960479736328125,0.0074920654296875,-0.0169830322265625
1773798278074976300,6.888976318359375,-0.9953155517578125,0.0077667236328125,-0.01727294921875
1773798278094940400,6.9089404296875,-0.9961700439453125,0.0085601806640625,-0.01617431640625
1773798278114904300,6.928904296875,-0.99560546875,0.0075836181640625,-0.0162353515625
1773798278134868500,6.948868408203125,-0.995086669921875,0.0088653564453125,-0.01641845703125
1773798278154832400,6.968832275390625,-0.9958648681640625,0.0092620849609375,-0.0160980224609375
1773798278174796300,6.98879638671875,-0.995025634765625,0.0083465576171875,-0.0166168212890625
1773798278194760400,7.008760498046875,-0.9946746826171875,0.009246826171875,-0.0154876708984375
1773798278214724400,7.028724365234375,-0.9955902099609375,0.009735107421875,-0.01727294921875
1773798278234688300,7.048688232421875,-0.995697021484375,0.0084686279296875,-0.0168914794921875
1773798278254652200,7.068652099609375,-0.9963531494140625,0.008148193359375,-0.017303466796875
1773798278274616300,7.0886162109375,-0.994171142578125,0.008209228515625,-0.0145263671875
1773798278294580200,7.108580322265625,-0.9973907470703125,0.0081787109375,-0.0180511474609375
1773798278314545400,7.12854541015625,-0.996734619140625,0.008575439453125,-0.01727294921875
1773798278334509300,7.14850927734375,-0.99517822265625,0.00958251953125,-0.0155792236328125
1773798278354473500,7.168473388671875,-0.9969482421875,0.007049560546875,-0.0169677734375
1773798278374437400,7.188437255859375,-0.995391845703125,0.0075836181640625,-0.01776123046875
1773798278394401300,7.2084013671875,-0.99627685546875,0.007781982421875,-0.0171356201171875
1773798278414365200,7.228365234375,-0.9964447021484375,0.00775146484375,-0.0159912109375
1773798278434329300,7.248329345703125,-0.9947357177734375,0.0077056884765625,-0.0152740478515625
1773798278454293200,7.268293212890625,-0.99658203125,0.008514404296875,-0.018280029296875
1773798278474257200,7.288257080078125,-0.9951019287109375,0.0074462890625,-0.0172271728515625
1773798278494221300,7.30822119140625,-0.99542236328125,0.008209228515625,-0.01702880859375
1773798278514185500,7.328185546875,-0.9964141845703125,0.0077056884765625,-0.017364501953125
1773798278534150400,7.348150390625,-0.9975128173828125,0.008209228515625,-0.01708984375
1773798278554114300,7.3681142578125,-0.9943695068359375,0.0083465576171875,-0.0168914794921875
1773798278574078200,7.388078125,-0.995758056640625,0.0079803466796875,-0.015655517578125
1773798278594042400,7.40804248046875,-0.996795654296875,0.0090179443359375,-0.0168304443359375
1773798278614006300,7.42800634765625,-0.996612548828125,0.0081329345703125,-0.016754150390625
1773798278633970200,7.44797021484375,-0.9973602294921875,0.008026123046875,-0.01605224609375
1773798278653934300,7.467934326171875,-0.9961395263671875,0.007720947265625,-0.016387939453125
1773798278673898200,7.487898193359375,-0.99578857421875,0.0078277587890625,-0.0166168212890625
1773798278693862100,7.507862060546875,-0.996978759765625,0.0080108642578125,-0.0177764892578125
1773798278713826300,7.527826416015625,-0.9966888427734375,0.0069427490234375,-0.01666259765625
1773798278733790500,7.54779052734375,-0.9965972900390625,0.0082855224609375,-0.017120361328125
1773798278753754400,7.56775439453125,-0.996429443359375,0.00909423828125,-0.01776123046875
1773798278773718300,7.58771826171875,-0.9967803955078125,0.0077972412109375,-0.0163116455078125
1773798278793683200,7.60768310546875,-0.9945220947265625,0.0075531005859375,-0.017547607421875
1773798278813647400,7.6276474609375,-0.9958648681640625,0.0074310302734375,-0.016082763671875
1773798278833611300,7.647611328125,-0.9961090087890625,0.0086517333984375,-0.015838623046875
1773798278853575200,7.6675751953125,-0.9969635009765625,0.008575439453125,-0.016448974609375
1773798278873539300,7.687539306640625,-0.99554443359375,0.0074462890625,-0.0164031982421875
1773798278893503500,7.70750341796875,-0.995819091796875,0.00775146484375,-0.017364501953125
1773798278913467400,7.72746728515625,-0.99676513671875,0.0088653564453125,-0.016998291015625
1773798278933431300,7.747431396484375,-0.9954681396484375,0.0071563720703125,-0.0174102783203125
1773798278953395500,7.7673955078125,-0.99652099609375,0.00848388671875,-0.01751708984375
1773798278973359400,7.787359375,-0.995574951171875,0.0077667236328125,-0.0169830322265625
1773798278993323300,7.8073232421875,-0.9953765869140625,0.0087432861328125,-0.0152740478515625
1773798279013287400,7.827287353515625,-0.995849609375,0.00811767578125,-0.01702880859375
1773798279033252400,7.84725244140625,-0.9952545166015625,0.0085296630859375,-0.01702880859375
1773798279053216300,7.86721630859375,-0.9965972900390625,0.0087890625,-0.0163116455078125
1773798279073180200,7.88718017578125,-0.9961395263671875,0.008056640625,-0.015899658203125
1773798279093144300,7.907144287109375,-0.9960784912109375,0.0088653564453125,-0.0158233642578125
1773798279113108500,7.9271083984375,-0.9951324462890625,0.00811767578125,-0.0168609619140625
1773798279133072400,7.947072265625,-0.99560546875,0.0101470947265625,-0.01751708984375
1773798279153036300,7.967036376953125,-0.995635986328125,0.007476806640625,-0.016815185546875
1773798279173000400,7.98700048828125,-0.9960479736328125,0.0084381103515625,-0.0159149169921875
1773798279192964400,8.00696435546875,-0.9969940185546875,0.0089111328125,-0.016845703125
1773798279212928300,8.02692822265625,-0.9970550537109375,0.0076446533203125,-0.0162811279296875
1773798279232892200,8.04689208984375,-0.995635986328125,0.008056640625,-0.0171661376953125
1773798279252856300,8.066856201171875,-0.9956207275390625,0.00860595703125,-0.0173187255859375
1773798279272820200,8.0868203125,-0.9958648681640625,0.0084686279296875,-0.0157012939453125
1773798279292784000,8.1067841796875,-0.9965667724609375,0.008209228515625,-0.0156402587890625
1773798279312749300,8.126749267578125,-0.99627685546875,0.0073699951171875,-0.0171661376953125
1773798279332713500,8.14671337890625,-0.996124267578125,0.00860595703125,-0.0166778564453125
1773798279352677400,8.166677490234376,-0.9959564208984375,0.00811767578125,-0.0167236328125
1773798279372641300,8.186641357421875,-0.9954071044921875,0.008758544921875,-0.0166473388671875
1773798279392605200,8.206605224609374,-0.9962158203125,0.0091400146484375,-0.017059326171875
1773798279412569300,8.2265693359375,-0.9963836669921875,0.0081939697265625,-0.016204833984375
1773798279432533200,8.246533203125,-0.9961090087890625,0.0075531005859375,-0.017364501953125
1773798279452497200,8.2664970703125,-0.996063232421875,0.0081634521484375,-0.01727294921875
1773798279472461300,8.28646142578125,-0.9963531494140625,0.0096893310546875,-0.0168609619140625
1773798279492425200,8.30642529296875,-0.995635986328125,0.009185791015625,-0.01654052734375
1773798279512389400,8.326389404296876,-0.9958953857421875,0.0084381103515625,-0.016754150390625
1773798279532353300,8.346353271484375,-0.994964599609375,0.007598876953125,-0.0171051025390625
1773798279552317400,8.3663173828125,-0.9971466064453125,0.008697509765625,-0.0172271728515625
1773798279572281300,8.38628125,-0.9955902099609375,0.008697509765625,-0.017730712890625
1773798279592245200,8.406245361328125,-0.9964752197265625,0.0087738037109375,-0.016387939453125
1773798279612210200,8.426210205078124,-0.9945220947265625,0.00811767578125,-0.016357421875
1773798279632174300,8.44617431640625,-0.9972686767578125,0.00726318359375,-0.0162506103515625
1773798279652138200,8.46613818359375,-0.994659423828125,0.0087127685546875,-0.017120361328125
1773798279672102000,8.486101806640624,-0.9960174560546875,0.0087432861328125,-0.016510009765625
1773798279692066000,8.506066162109375,-0.99658203125,0.007904052734375,-0.0168914794921875
1773798279712030000,8.526030029296875,-0.9959716796875,0.00750732421875,-0.0159149169921875
1773798279731993900,8.545993896484376,-0.9967498779296875,0.0071258544921875,-0.0165863037109375
1773798279751958000,8.5659580078125,-0.9974822998046875,0.0077972412109375,-0.0180206298828125
1773798279771922000,8.585921875,-0.9969635009765625,0.0082550048828125,-0.0168609619140625
1773798279791885800,8.6058857421875,-0.9963531494140625,0.0079498291015625,-0.0152587890625
1773798279811849700,8.625849609375,-0.9964752197265625,0.007965087890625,-0.017669677734375
1773798279831814000,8.64581396484375,-0.997100830078125,0.009063720703125,-0.0174713134765625
1773798279851777800,8.66577783203125,-0.9969329833984375,0.0082550048828125,-0.016632080078125
1773798279871741700,8.68574169921875,-0.996429443359375,0.0086822509765625,-0.01763916015625
1773798279891707000,8.705706787109374,-0.9962615966796875,0.008636474609375,-0.0164337158203125
1773798279911671000,8.725671142578125,-0.99530029296875,0.0077667236328125,-0.016082763671875
1773798279931635000,8.745635009765625,-0.9952545166015625,0.0079193115234375,-0.017333984375
1773798279951598800,8.765598876953124,-0.995574951171875,0.0078582763671875,-0.0157623291015625
1773798279971562800,8.785562744140625,-0.996124267578125,0.00823974609375,-0.017242431640625
1773798279991527000,8.80552685546875,-0.9956207275390625,0.008819580078125,-0.0161590576171875
1773798280011490800,8.82549072265625,-0.99652099609375,0.007720947265625,-0.0157623291015625
1773798280031454700,8.845454833984375,-0.996734619140625,0.0077972412109375,-0.0164947509765625
1773798280051419000,8.8654189453125,-0.996673583984375,0.0084381103515625,-0.017364501953125
1773798280071382800,8.8853828125,-0.9956207275390625,0.00909423828125,-0.0172271728515625
1773798280091346700,8.9053466796875,-0.9951934814453125,0.008880615234375,-0.0166473388671875
1773798280111310800,8.925310791015624,-0.9949493408203125,0.0083465576171875,-0.0168609619140625
1773798280131275000,8.94527490234375,-0.99652099609375,0.0077362060546875,-0.01641845703125
1773798280151239000,8.965239013671875,-0.9962005615234375,0.00787353515625,-0.01739501953125
1773798280171202800,8.985202880859376,-0.99554443359375,0.007537841796875,-0.016143798828125
1773798280191167000,9.0051669921875,-0.9955291748046875,0.0081939697265625,-0.0150909423828125
1773798280211132000,9.0251318359375,-0.9968109130859375,0.007904052734375,-0.01678466796875
1773798280231095800,9.045095703125,-0.9961395263671875,0.0092926025390625,-0.016632080078125
1773798280251059700,9.065059814453125,-0.9967498779296875,0.0071258544921875,-0.01629638671875
1773798280271023900,9.08502392578125,-0.9969329833984375,0.00848388671875,-0.0165557861328125
1773798280290988000,9.104988037109376,-0.9959259033203125,0.006988525390625,-0.0173187255859375
1773798280310952000,9.124951904296875,-0.9950714111328125,0.0082550048828125,-0.016937255859375
1773798280330915800,9.144915771484374,-0.995574951171875,0.00762939453125,-0.0162200927734375
1773798280350880000,9.1648798828125,-0.995880126953125,0.0087890625,-0.0168609619140625
1773798280370844000,9.184843994140625,-0.9959716796875,0.0084686279296875,-0.0159912109375
1773798280390807800,9.204807861328124,-0.99560546875,0.0087890625,-0.0164794921875
1773798280410772000,9.22477197265625,-0.9961395263671875,0.008453369140625,-0.017059326171875
1773798280430736000,9.24473583984375,-0.9949951171875,0.0076141357421875,-0.0165252685546875
1773798280450699800,9.26469970703125,-0.9952850341796875,0.0082244873046875,-0.01641845703125
1773798280470663700,9.28466357421875,-0.9948577880859375,0.008026123046875,-0.01708984375
1773798280490627800,9.3046279296875,-0.9952850341796875,0.0071563720703125,-0.0171051025390625
1773798280510591700,9.324591796875,-0.9959564208984375,0.00885009765625,-0.0169525146484375
1773798280530556000,9.344555908203125,-0.9958648681640625,0.0084381103515625,-0.0169677734375
1773798280550520800,9.364520751953124,-0.99560546875,0.0082855224609375,-0.01654052734375
1773798280570485000,9.384485107421876,-0.9965057373046875,0.00823974609375,-0.016937255859375
1773798280590449000,9.404448974609375,-0.9961090087890625,0.0068817138671875,-0.01666259765625
1773798280610412800,9.424412841796874,-0.995941162109375,0.0083770751953125,-0.01641845703125
1773798280630376700,9.444376708984375,-0.9953155517578125,0.0101776123046875,-0.0169830322265625
1773798280650340900,9.4643408203125,-0.9960174560546875,0.008758544921875,-0.0172576904296875
1773798280670305800,9.484305908203124,-0.9935760498046875,0.008392333984375,-0.0163116455078125
1773798280690269700,9.504269775390625,-0.9965667724609375,0.0074005126953125,-0.0169219970703125
1773798280710233900,9.52423388671875,-0.9949188232421875,0.0081939697265625,-0.016845703125
1773798280730198000,9.544197998046876,-0.9967498779296875,0.008270263671875,-0.017181396484375
1773798280750162000,9.564161865234375,-0.995941162109375,0.0084991455078125,-0.0173797607421875
1773798280770125800,9.584125732421874,-0.995941162109375,0.00909423828125,-0.017730712890625
1773798280790089700,9.60408984375,-0.995941162109375,0.0069732666015625,-0.0173187255859375
1773798280810054000,9.624053955078125,-0.995391845703125,0.0082855224609375,-0.0162353515625
1773798280830017800,9.644017822265624,-0.9953765869140625,0.0084991455078125,-0.0167388916015625
1773798280849981700,9.663981689453125,-0.99560546875,0.0071258544921875,-0.0166473388671875
1773798280869945900,9.68394580078125,-0.99566650390625,0.0078125,-0.0168304443359375
1773798280889909800,9.70390966796875,-0.9951629638671875,0.0085601806640625,-0.016845703125
1773798280909873700,9.723873779296875,-0.99603271484375,0.0074005126953125,-0.0164031982421875
1773798280929838800,9.7438388671875,-0.9968719482421875,0.0083160400390625,-0.0166015625
1773798280949802800,9.763802734375,-0.996307373046875,0.008026123046875,-0.016326904296875
1773798280969767000,9.783766845703125,-0.9958953857421875,0.008941650390625,-0.016937255859375
1773798280989730800,9.803730712890625,-0.9958343505859375,0.0092010498046875,-0.016510009765625
1773798281009694700,9.82369482421875,-0.9965362548828125,0.0078277587890625,-0.0158538818359375
1773798281029659000,9.843658935546875,-0.9957122802734375,0.00811767578125,-0.0166168212890625
1773798281049622800,9.863622802734374,-0.994293212890625,0.007598876953125,-0.016265869140625
1773798281069586700,9.883586669921876,-0.996185302734375,0.0079193115234375,-0.016845703125
1773798281089550800,9.90355078125,-0.995452880859375,0.008209228515625,-0.016571044921875
1773798281109514800,9.9235146484375,-0.9959564208984375,0.0089263916015625,-0.0163116455078125
1773798281129479000,9.94347900390625,-0.9957427978515625,0.0085296630859375,-0.017608642578125
1773798281149442800,9.96344287109375,-0.9949493408203125,0.0084991455078125,-0.016265869140625
1773798281169407000,9.983406982421876,-0.995635986328125,0.00848388671875,-0.017181396484375
1773798281189371000,10.003370849609375,-0.995758056640625,0.007965087890625,-0.016815185546875
1773798281209334800,10.023334716796874,-0.996246337890625,0.0092010498046875,-0.01654052734375
1773798281229299000,10.043298828125,-0.9953765869140625,0.0082855224609375,-0.01629638671875
1773798281249262800,10.063262939453125,-0.995361328125,0.0082550048828125,-0.0164794921875
1773798281269226800,10.083226806640624,-0.9966888427734375,0.0076751708984375,-0.017425537109375
1773798281289190700,10.103190673828125,-0.9942779541015625,0.0098876953125,-0.016265869140625
1773798281309155600,10.123155517578125,-0.9957427978515625,0.008087158203125,-0.0166015625
1773798281329120000,10.1431201171875,-0.995574951171875,0.0090484619140625,-0.0167694091796875
1773798281349084000,10.163083984375,-0.9960479736328125,0.0075836181640625,-0.016998291015625
1773798281369047800,10.1830478515625,-0.995880126953125,0.0081329345703125,-0.0172882080078125
1773798281389012000,10.203011962890624,-0.9953765869140625,0.0089263916015625,-0.0165557861328125
1773798281408976000,10.222975830078125,-0.99542236328125,0.0090484619140625,-0.016845703125
1773798281428939800,10.242939697265625,-0.9961090087890625,0.0074920654296875,-0.017791748046875
1773798281448903700,10.262903564453126,-0.9965362548828125,0.0084991455078125,-0.0165557861328125
1773798281468867800,10.282867919921875,-0.995391845703125,0.0080108642578125,-0.0174407958984375
1773798281488831700,10.302831787109374,-0.9964141845703125,0.0079803466796875,-0.01641845703125
1773798281508795600,10.322795654296876,-0.9950408935546875,0.0085601806640625,-0.0169525146484375
1773798281528759800,10.342759765625,-0.9961395263671875,0.008026123046875,-0.0162506103515625
1773798281548723700,10.3627236328125,-0.99505615234375,0.0091552734375,-0.01617431640625
1773798281568687900,10.38268798828125,-0.995452880859375,0.00830078125,-0.016845703125
1773798281588651800,10.40265185546875,-0.995574951171875,0.008087158203125,-0.016632080078125
1773798281608616000,10.422615966796876,-0.997100830078125,0.007659912109375,-0.01666259765625
1773798281628579800,10.442579833984375,-0.99566650390625,0.00836181640625,-0.01593017578125
1773798281648543700,10.462543701171874,-0.9965057373046875,0.00836181640625,-0.016937255859375
1773798281668508000,10.4825078125,-0.9965362548828125,0.008087158203125,-0.0165252685546875
1773798281688471800,10.502471923828125,-0.9966888427734375,0.0081329345703125,-0.0167236328125
1773798281708435700,10.522435791015624,-0.996002197265625,0.0091705322265625,-0.0166015625
1773798281728400000,10.54239990234375,-0.994476318359375,0.007598876953125,-0.0167388916015625
1773798281748364000,10.562364013671875,-0.9961395263671875,0.0078887939453125,-0.0174713134765625
1773798281768329000,10.582328857421874,-0.996917724609375,0.0081024169921875,-0.01617431640625
1773798281788292900,10.60229296875,-0.9954071044921875,0.00799560546875,-0.0176544189453125
1773798281808256800,10.6222568359375,-0.99591064453125,0.0088958740234375,-0.016082763671875
1773798281828221000,10.642220947265624,-0.9955596923828125,0.0084991455078125,-0.0163116455078125
1773798281848184800,10.662184814453125,-0.9952239990234375,0.0082550048828125,-0.0162506103515625
1773798281868148700,10.682148681640625,-0.9959259033203125,0.00860595703125,-0.0171661376953125
1773798281888113000,10.70211279296875,-0.995330810546875,0.0088043212890625,-0.0162506103515625
1773798281908076800,10.722076904296875,-0.996307373046875,0.008514404296875,-0.0169219970703125
1773798281928040700,10.742040771484374,-0.99481201171875,0.0080413818359375,-0.0163116455078125
1773798281948004900,10.7620048828125,-0.994171142578125,0.0074920654296875,-0.01611328125
1773798281967969000,10.781968994140625,-0.995758056640625,0.0076446533203125,-0.0148468017578125
1773798281987933000,10.801932861328124,-0.9961700439453125,0.0076446533203125,-0.01605224609375
1773798282007896800,10.821896728515625,-0.9955291748046875,0.0078887939453125,-0.017181396484375
1773798282027861000,10.841861083984375,-0.99542236328125,0.0093536376953125,-0.017578125
1773798282047825000,10.861824951171876,-0.99627685546875,0.0078277587890625,-0.0171356201171875
1773798282067788800,10.881788818359375,-0.9955596923828125,0.0072174072265625,-0.016571044921875
1773798282087752700,10.901752685546874,-0.99462890625,0.00775146484375,-0.015655517578125
1773798282107716900,10.921716796875,-0.9967193603515625,0.007537841796875,-0.0163421630859375
1773798282127680800,10.9416806640625,-0.995941162109375,0.008819580078125,-0.015716552734375
1773798282147644700,10.961644775390624,-0.9956207275390625,0.008941650390625,-0.016754150390625
1773798282167608800,10.98160888671875,-0.9965057373046875,0.0081787109375,-0.0168304443359375
1773798282187573000,11.001572998046875,-0.995880126953125,0.008514404296875,-0.01727294921875
1773798282207537000,11.021536865234374,-0.99530029296875,0.0083770751953125,-0.0169525146484375
1773798282227500800,11.041500732421875,-0.99542236328125,0.008148193359375,-0.01629638671875
1773798282247465000,11.06146484375,-0.9963531494140625,0.0092926025390625,-0.0171051025390625
1773798282267428900,11.081428955078126,-0.9956817626953125,0.008209228515625,-0.01702880859375
1773798282287392800,11.101392822265625,-0.996978759765625,0.0086517333984375,-0.015899658203125
1773798282307357000,11.12135693359375,-0.9959869384765625,0.0075225830078125,-0.0160980224609375
1773798282327320800,11.14132080078125,-0.9967193603515625,0.00921630859375,-0.0167694091796875
1773798282347285800,11.16128564453125,-0.996063232421875,0.0075836181640625,-0.016357421875
1773798282367250000,11.18125,-0.9954071044921875,0.0081329345703125,-0.017608642578125
1773798282387213800,11.2012138671875,-0.9949493408203125,0.00799560546875,-0.016998291015625
1773798282407178000,11.221177978515625,-0.9954986572265625,0.0088653564453125,-0.016510009765625
1773798282427142000,11.241141845703124,-0.99627685546875,0.0072174072265625,-0.01690673828125
1773798282447105800,11.261105712890625,-0.9960174560546875,0.0084228515625,-0.0173187255859375
1773798282467070000,11.281070068359375,-0.9964141845703125,0.0084381103515625,-0.0163421630859375
1773798282487033900,11.301033935546876,-0.99578857421875,0.008087158203125,-0.0162811279296875
1773798282506997800,11.320997802734375,-0.995635986328125,0.0084991455078125,-0.0169677734375
1773798282526962000,11.3409619140625,-0.99566650390625,0.0087127685546875,-0.016021728515625
1773798282546925800,11.36092578125,-0.9960174560546875,0.008056640625,-0.015899658203125
1773798282566889700,11.3808896484375,-0.9967193603515625,0.0081634521484375,-0.0169677734375
1773798282586853600,11.400853515625,-0.996246337890625,0.0085601806640625,-0.01715087890625
1773798282606818000,11.420818115234376,-0.9967041015625,0.00787353515625,-0.0175933837890625
1773798282626782000,11.440781982421875,-0.99676513671875,0.0084686279296875,-0.0164337158203125
1773798282646745900,11.460745849609374,-0.995025634765625,0.00750732421875,-0.016265869140625
1773798282666709800,11.480709716796875,-0.995758056640625,0.00860595703125,-0.017425537109375
1773798282686673700,11.500673583984375,-0.99468994140625,0.00885009765625,-0.015533447265625
1773798282706637600,11.520637451171876,-0.995697021484375,0.0079345703125,-0.017364501953125
1773798282726601700,11.540601806640625,-0.99578857421875,0.00860595703125,-0.0166778564453125
1773798282746565600,11.560565673828124,-0.99517822265625,0.0078887939453125,-0.01495361328125
1773798282766529500,11.580529541015625,-0.9962158203125,0.0088653564453125,-0.01629638671875
1773798282786493400,11.600493408203125,-0.995849609375,0.0081329345703125,-0.0165252685546875
1773798282806457600,11.62045751953125,-0.996429443359375,0.0071258544921875,-0.0172882080078125
1773798282826421500,11.64042138671875,-0.9961700439453125,0.008026123046875,-0.0156402587890625
1773798282846385400,11.660385498046875,-0.996307373046875,0.0090484619140625,-0.0181121826171875
1773798282866349600,11.680349609375,-0.9954833984375,0.0082244873046875,-0.015838623046875
1773798282886313700,11.700313720703125,-0.9945526123046875,0.0082550048828125,-0.0171356201171875
1773798282906277600,11.720277587890624,-0.9973602294921875,0.00775146484375,-0.015655517578125
1773798282926241500,11.740241455078126,-0.995208740234375,0.0080718994140625,-0.016021728515625
1773798282946205700,11.760205810546875,-0.994873046875,0.0078582763671875,-0.0169677734375
1773798282966169600,11.780169677734374,-0.9951629638671875,0.008819580078125,-0.0167236328125
1773798282986133500,11.800133544921875,-0.9959564208984375,0.0077056884765625,-0.0166473388671875
1773798283006097700,11.82009765625,-0.995758056640625,0.0087127685546875,-0.016265869140625
1773798283026062600,11.8400625,-0.99658203125,0.0082855224609375,-0.0179901123046875
1773798283046026500,11.860026611328125,-0.9955291748046875,0.0079193115234375,-0.0167083740234375
1773798283065990400,11.879990478515625,-0.9965972900390625,0.008636474609375,-0.0170440673828125
1773798283085954600,11.89995458984375,-0.9948577880859375,0.007781982421875,-0.0166015625
1773798283105918700,11.919918701171875,-0.9965362548828125,0.008209228515625,-0.01824951171875
1773798283125882600,11.939882568359375,-0.9947967529296875,0.009368896484375,-0.0172576904296875
1773798283145846500,11.959846435546876,-0.9950408935546875,0.0096435546875,-0.016448974609375
1773798283165810700,11.979810791015625,-0.9959259033203125,0.008941650390625,-0.016632080078125
1773798283185774600,11.999774658203124,-0.9953155517578125,0.0089263916015625,-0.016448974609375
1773798283205738500,12.019738525390625,-0.9962921142578125,0.00836181640625,-0.0164794921875
1773798283225702400,12.039702392578125,-0.9938812255859375,0.0102386474609375,-0.0164337158203125
1773798283245666600,12.05966650390625,-0.994232177734375,0.0061187744140625,-0.0174560546875
1773798283265630500,12.07963037109375,-0.99560546875,0.00958251953125,-0.0166015625
1773798283285594400,12.099594482421875,-0.9914398193359375,0.0100555419921875,-0.0150146484375
1773798283305558800,12.119558837890626,-1.0019378662109375,0.006683349609375,-0.0181427001953125
1773798283325522700,12.139522705078125,-0.9940032958984375,0.00921630859375,-0.0150299072265625
1773798283345486600,12.159486572265624,-0.9949798583984375,0.007568359375,-0.0177764892578125
1773798283365450500,12.179450439453126,-0.995361328125,0.007843017578125,-0.0146636962890625
1773798283385414700,12.19941455078125,-0.9945526123046875,0.0079345703125,-0.0182647705078125
1773798283405378600,12.219378662109374,-0.99749755859375,0.0088958740234375,-0.016265869140625
1773798283425342500,12.239342529296875,-0.994873046875,0.0080108642578125,-0.0163116455078125
1773798283445306600,12.259306640625,-0.9965057373046875,0.007476806640625,-0.0166015625
1773798283465270500,12.2792705078125,-0.995513916015625,0.0087432861328125,-0.0164031982421875
1773798283485234400,12.299234375,-0.9940032958984375,0.007171630859375,-0.0163726806640625
1773798283505198600,12.319198486328125,-0.9959259033203125,0.0089569091796875,-0.0174560546875
1773798283525162500,12.33916259765625,-0.995513916015625,0.0083160400390625,-0.0162811279296875
1773798283545126700,12.359126708984375,-0.99652099609375,0.0081634521484375,-0.0183868408203125
1773798283565090600,12.379090576171874,-0.995880126953125,0.0099639892578125,-0.016876220703125
1773798283585054700,12.3990546875,-0.9961090087890625,0.008209228515625,-0.01739501953125
