time,seconds_elapsed,z,y,x
1773798271219793700,0.033793701171875,0.03436813354790211,0.0040685006810817865,-0.0027064459471032023
1773798271239757600,0.053757568359375,0.03825754220187664,0.014878803772572427,0.004324713065009564
1773798271259721500,0.073721435546875,0.04573883786797523,0.005896684222621843,-0.012843315889593213
1773798271279685400,0.093685302734375,0.0568114360243082,-0.0005991440700832754,0.007058174883201718
1773798271299649500,0.1136494140625,0.0424462260633707,0.001175857112649828,-0.006033051352854818
1773798271319614500,0.133614501953125,0.04124854071140289,-0.0028464937386102973,0.004189889437891543
1773798271339578400,0.153578369140625,0.04857961425185203,-0.008733295888034627,0.0015328355904668568
1773798271359542300,0.173542236328125,0.038703532403707504,0.005357362314686179,-0.005957136572431773
1773798271379506400,0.19350634765625,0.04244447249770164,0.01903322917143814,0.00980944635272026
1773798271399470300,0.21347021484375,0.037357963013648986,-0.0009770192054565996,-0.011937471357360481
1773798271419435500,0.233435546875,0.038704701447486875,-0.0037818566262722013,-0.0044599933498539026
1773798271439399400,0.2533994140625,0.026883915272355077,-0.0027528332389425486,0.013009594100899994
1773798271459363600,0.273363525390625,0.0316711495488882,-0.002462060998287052,-0.0006966222283430397
1773798271479327500,0.293327392578125,0.054714756006002424,0.0009450714309234172,0.0024885106137953698
1773798271499291400,0.31329150390625,0.050076574811339376,0.01691091238837689,-0.008220843720715493
1773798271519255300,0.33325537109375,0.024488544568419455,0.006330518195778131,0.009924597164988518
1773798271539220200,0.35322021484375,0.038702363359928126,0.0004334595138207078,-0.003928717751055955
1773798271559184600,0.3731845703125,0.03361643839776516,-0.00232773969466798,0.00619569456866011
1773798271579148500,0.3931484375,0.03421498881280422,0.007783913608174771,-0.0017765264195390045
1773798271599112400,0.413112548828125,0.040649990296363826,0.0020896109567023814,-0.0038235586098395286
1773798271619076600,0.43307666015625,0.026135142731666564,-0.0026696210680529475,-0.00188066264744848
1773798271639040500,0.45304052734375,0.03765957630872726,-0.0008667089650873094,0.012277681363467127
1773798271659006000,0.473005859375,0.036761750686168666,0.0013964045281521975,0.009003354134224355
1773798271678969900,0.492969970703125,0.03556874150931835,0.0017491086896508931,0.003480992249865085
1773798271698933800,0.512933837890625,0.03362462170422077,0.0032061482307035472,-0.005367518382519483
1773798271718898000,0.53289794921875,0.0346732539743185,0.01844972106190398,0.006395820250641554
1773798271738861800,0.55286181640625,0.02330313417613506,0.0072674885186366734,-0.001748743363469839
1773798271758825700,0.57282568359375,0.031234511697292328,-0.00970622344026342,0.010162333177309482
1773798271778790700,0.592790771484375,0.03287935629487038,0.0013537983622867614,-0.0027150493786670267
1773798271798754800,0.6127548828125,0.037516952967643735,0.013528686071559786,0.009857742473855614
1773798271818719000,0.632718994140625,0.031381811213493344,0.002814162371587008,0.002697221461031586
1773798271838683000,0.652682861328125,0.04290449122488498,-0.0032926483372226357,-0.004048983129858971
1773798271858646800,0.672646728515625,0.03497252918183803,0.003452999131241813,0.008142225526552646
1773798271878611000,0.69261083984375,0.03871288475394249,0.014248817039653658,-0.010075787405017763
1773798271898576000,0.712575927734375,0.03990940106213092,-0.005315760795818641,0.0016073073324747384
1773798271918539800,0.732539794921875,0.04514671719372272,0.01735075597721152,0.00042922173012048005
1773798271938503700,0.752503662109375,0.05068389305472373,0.006627254386339336,0.0021297603040002287
1773798271958467800,0.7724677734375,0.03183013950288296,-0.003321856165397912,0.0033219109643250703
1773798271978431700,0.792431640625,0.04095511072278023,0.003036143692350015,-0.013750420797150581
1773798271998396000,0.81239599609375,0.033623452660441394,0.00894952332144603,0.008558551242481916
1773798272018360800,0.83236083984375,0.050232057633996005,0.012166092481464146,0.004311944914981722
1773798272038324700,0.85232470703125,0.02748597281873226,0.009859185512270777,0.01183470510262996
1773798272058289000,0.872288818359375,0.03691080376803875,0.012661630046600475,-0.00017128317998722195
1773798272078252800,0.892252685546875,0.040950434547662735,-0.004032771780574694,0.005591993054468184
1773798272098216700,0.912216796875,0.056659460332989686,0.012535291120037435,-0.00041000557299703357
1773798272118180900,0.932180908203125,0.041995559686422344,0.0008854136655572801,0.0031779359163716433
1773798272138146000,0.95214599609375,0.046186581635475156,0.0027466500933282074,0.016157481938879937
1773798272158110000,0.97210986328125,0.029727029743790625,0.0024737057703081516,-0.0012265461202710867
1773798272178073900,0.992073974609375,0.03242109113335609,-0.004246487596491351,0.005628470873646438
1773798272198037800,1.012037841796875,0.04678630109429359,0.007593551268381998,0.004274316318333149
1773798272218002000,1.032001953125,0.031823125240206716,0.004582240623189136,-0.00010154241202399134
1773798272237965800,1.0519658203125,0.04035539126396179,0.00006358502181246876,0.007785776771698147
1773798272257929700,1.0719296875,0.035565818899869914,0.0022423264335375277,0.010212236733641475
1773798272277894700,1.091894775390625,0.043346974295377726,0.009741614414053038,0.00692587200673297
1773798272297858800,1.11185888671875,0.03137655051648617,0.0102417733553797,0.0047518707022070885
1773798272317823000,1.131822998046875,0.043346974295377726,0.0007733589926734566,0.0010159721095114947
1773798272337787000,1.151786865234375,0.02913081741631031,0.004276206881320104,-0.002258610848058015
1773798272357750800,1.171750732421875,0.04499298793673515,-0.007821816199459136,0.007277681119088083
1773798272377715000,1.19171484375,0.05516659142673015,-0.006209869224485009,0.005571589587256312
1773798272397679900,1.211679931640625,0.03990355584323406,0.007663155039027333,0.0053343650315888225
1773798272417643800,1.231643798828125,0.03661269760429859,0.004591656905505806,0.006407784683071077
1773798272437607700,1.251607666015625,0.032273207095265384,0.0068159910246264185,-0.0002706519012339413
1773798272457571800,1.27157177734375,0.04813537761569023,-0.0024155458422843367,-0.008204842433985322
1773798272477535700,1.29153564453125,0.027933716586232185,0.006560527559369802,-0.0059231612375937395
1773798272497499600,1.311499755859375,0.037509938704967494,0.004952918832795694,-0.006405355263967067
1773798272517463800,1.3314638671875,0.031228081956505775,0.00451789754955098,0.002126070509571582
1773798272537428700,1.3514287109375,0.03766366796195507,-0.002930646624416113,-0.005633786369580775
1773798272557393000,1.371392822265625,0.044696635338664054,0.006668947236752138,0.00473027992490679
1773798272577356800,1.391356689453125,0.036167876446247096,0.013478006197093054,0.00036306115873157977
1773798272597320700,1.41132080078125,0.036917818030714984,0.006358419982856139,-0.004025583987962454
1773798272617284900,1.431284912109375,0.04918634797334671,0.0014506919986568391,-0.008709540553111583
1773798272637248800,1.451248779296875,0.022998013749718663,0.014263000828633084,0.0017075528365559874
1773798272657214200,1.471214111328125,0.049934535992145535,0.009941575699253007,0.020316921439580617
1773798272677178000,1.49117822265625,0.05038286428153515,-0.009281522621633485,0.00001879603201523423
1773798272697142000,1.51114208984375,0.01671498795747757,-0.006021415713988244,-0.003928279359638691
1773798272717106200,1.531106201171875,0.03048281654715538,-0.005314262958476319,0.0069211045000702135
1773798272737070000,1.551070068359375,0.0333271000623703,-0.0028566863390617073,-0.00493665268458426
1773798272757034000,1.571033935546875,0.03961071037650108,0.005750462418654933,-0.008045158360246569
1773798272776998100,1.590998046875,0.04933949270844459,0.00548978392216377,0.009495886891521513
1773798272796963000,1.610963134765625,0.031684009030461306,0.008619907774589956,-0.005583627084922045
1773798272816927000,1.630927001953125,0.032282559445500375,0.013029230383131652,-0.007583331268467009
1773798272836891100,1.65089111328125,0.035573417684435844,-0.006780371721973643,0.0022016930290497836
1773798272856855000,1.67085498046875,0.023903438156843183,-0.002300102769071236,-0.0064417234852910035
1773798272876819200,1.690819091796875,0.035278818652033805,0.011500048054475336,0.005956734713632613
1773798272896783000,1.710783203125,0.03857201497852802,-0.0005261792985722422,-0.005560812464915216
1773798272916748000,1.730748046875,0.03228898918628693,0.012261086421692742,-0.0025702706131152807
1773798272936712000,1.7507119140625,0.040220951229333876,0.007025733918324112,-0.0033765637610107656
1773798272956676000,1.770676025390625,0.04336450995206833,0.004719009612221271,0.012436799181625246
1773798272976640000,1.790639892578125,0.039326632738113404,-0.0020698102776892484,-0.0020044351575896143
1773798272996604000,1.81060400390625,0.03468903606534004,0.0022231376758776603,0.0007976531837135553
1773798273016568000,1.830568115234375,0.03693418464362621,0.007424711207230575,-0.004493913885764777
1773798273036532200,1.8505322265625,0.040675124737620354,0.009402669349848292,0.0015023856532759964
1773798273056497200,1.8704970703125,0.037084991291165346,0.0016519593249540775,-0.009312621012795716
1773798273076461000,1.8904609375,0.05773381156623363,0.022911075251782313,-0.010661770599428563
1773798273096425000,1.910425048828125,0.03409223921597004,-0.011595882244920357,0.004260872314870357
1773798273116389000,1.93038916015625,-0.008701192849874495,0.020792201667977496,-0.011800273110065608
1773798273136353000,1.95035302734375,0.07599193731248378,0.0035681316772010175,0.019857852560468018
1773798273156317000,1.97031689453125,0.014791326418519019,0.0013051551812794059,-0.011784509285353123
1773798273176281000,1.990281005859375,0.06791150670945643,-0.0014108714449219404,0.008008096019178628
1773798273196246300,2.010246337890625,0.026461305946111676,0.003086951430980116,-0.005273337293043732
1773798273216210200,2.030210205078125,0.029607202756404875,0.009715959382988512,-0.007980185098946093
1773798273236174000,2.050174072265625,0.0414268198877573,0.009679161903401836,-0.005871504115592688
1773798273256138000,2.070137939453125,0.03155249160528183,-0.00047653147056698797,0.00106151001797989
1773798273276102100,2.09010205078125,0.037387189108133316,0.004474012742051854,-0.005815901470836252
1773798273296066000,2.110066162109375,0.03634147944748401,-0.012274128566356375,-0.00006789587074890732
1773798273316030000,2.130030029296875,0.0460667546480894,0.0026307138297706843,0.008120013694744556
1773798273335995000,2.149994873046875,0.051902621194720264,0.002772853113664314,0.01938828055365011
1773798273355959300,2.169959228515625,0.028109657675027846,0.008475403003674,-0.002718556510005146
1773798273375923200,2.189923095703125,0.060281157961487766,-0.010128161479649133,0.0027547420682385564
1773798273395887000,2.20988720703125,0.03798515500128269,0.0051162242023041465,0.003423234180640429
1773798273415851000,2.22985107421875,0.04621639225184917,0.003226277703279629,-0.00043879327606409784
1773798273435815200,2.249815185546875,0.04427110340297222,0.00041514297241810705,0.004532090471684932
1773798273455779000,2.269779052734375,0.030354806253314017,-0.004752523722755722,-0.01121849116673693
1773798273475744000,2.289743896484375,0.05190028310716152,0.0012615261021070182,-0.011958203618135302
1773798273495708000,2.3097080078125,0.05354278961718082,-0.012950986648304387,0.013986604173202067
1773798273515672000,2.329672119140625,0.06073065529465675,-0.015696230235835537,0.010329816965013741
1773798273535636000,2.349635986328125,0.030658173114061354,0.005109187106741592,-0.003986457553971558
1773798273555600100,2.36960009765625,0.027810966989398,0.00549056024029851,-0.019942005446273833
1773798273575564000,2.38956396484375,0.04995207164883613,0.010051018289942294,-0.0022912527423352004
1773798273595528200,2.409528076171875,0.04561024305224418,0.004678960729623213,0.01460142986960709
1773798273615493000,2.4294931640625,0.055336102774739264,0.003550933947227895,0.0056070262268185615
1773798273635457000,2.44945703125,0.038428807115554804,0.006995494043687358,0.004183331832941621
1773798273655421000,2.4694208984375,0.03558452360033989,0.006167664917418733,-0.00043466509021818637
1773798273675385000,2.489385009765625,0.03618132044970989,0.00088551413025707,0.008308065346442163
1773798273695349000,2.509348876953125,0.05054536136686802,0.0037185821317136285,-0.009135401282366364
1773798273715313000,2.52931298828125,0.03049275341928005,-0.0025107681113760915,-0.0024464250377379355
1773798273735277000,2.549277099609375,0.04007189814746379,0.0057870407025329765,-0.0010554638696834444
1773798273755242000,2.569241943359375,0.04336334090828895,0.007691212089732289,0.0040370917626656585
1773798273775206000,2.589205810546875,0.03513210365772247,0.00006226984756067394,0.0012744221162982285
1773798273795169800,2.609169677734375,0.03977028485238552,0.00912541874446906,0.009732234664354474
1773798273815134000,2.629134033203125,0.03767477387785911,0.00018310148194432258,0.005157565426267683
1773798273835098000,2.64909814453125,0.03902209683358669,0.011434663801221176,-0.005331935612484812
1773798273855062000,2.66906201171875,0.03258943343758583,0.009759698060015216,0.010921681910939514
1773798273875026000,2.68902587890625,0.04575812709033489,0.007816665100306272,0.0020555808229371906
1773798273894990800,2.708990966796875,0.03932312560677528,0.008709892179560847,0.013300704268272965
1773798273914955000,2.728955078125,0.03543196338713169,0.005287557614641264,-0.0036137335177510973
1773798273934919000,2.7489189453125,0.04246551528573036,0.003087033629370853,0.0053335978466086086
1773798273954882800,2.7688828125,0.026156770041584967,-0.0034110048867296424,0.0038283991817384955
1773798273974846700,2.7888466796875,0.034088732084631916,0.005784118093084544,-0.016843034783937037
1773798273994811100,2.80881103515625,0.04082242425382137,0.009142771738069131,0.0012151114108040928
1773798274014775000,2.828775146484375,0.044864393121004105,0.008279579037474468,0.006674180534295737
1773798274034740000,2.848739990234375,0.027205986833572386,0.01107840684261173,-0.0029977570438757535
1773798274054703900,2.868703857421875,0.03393734091520309,-0.0013798095863778144,0.006993566948082297
1773798274074668000,2.88866796875,0.037376667714118954,0.018322194825252516,0.005068809430580586
1773798274094632000,2.9086318359375,0.03857610663175583,0.004647273249994032,0.005444675271958113
1773798274114595800,2.928595947265625,0.03648118017911911,0.012601086365245281,-0.0015923837579786776
1773798274134559700,2.948559814453125,0.037376667714118954,-0.0033544980596750974,-0.0075601330559700725
1773798274154524000,2.96852392578125,0.04695288983285427,0.011301447609299794,0.007287490127049386
1773798274174487800,2.98848779296875,0.02884498621225357,-0.01241089755538851,-0.005045318957138807
1773798274194453000,3.008452880859375,0.03722410750091076,0.0074440186958992845,0.00655146747007966
1773798274214417000,3.0284169921875,0.03542962529957294,0.007728598657785914,0.0021947518316097554
1773798274234381000,3.048381103515625,0.018220131823420523,0.0043348554331110786,0.0014053367532789705
1773798274254345000,3.068344970703125,0.030789690539240834,0.0037755638828035443,0.003500409336388111
1773798274274308900,3.088308837890625,0.03946691799163818,0.0025950625610770654,0.01452743305163458
1773798274294273000,3.10827294921875,0.03602291501760482,-0.005881769781280309,0.0011574812057428062
1773798274314237000,3.12823681640625,0.030036826345324515,0.010875764976558275,0.0004405468417331576
1773798274334202000,3.1482021484375,0.04844108256399631,0.0010065375608857721,-0.008297543952427804
1773798274354166000,3.168166015625,0.04843991352021694,0.0035636061991332095,0.0024892777987755832
1773798274374130000,3.1881298828125,0.03871405379772186,0.015844045775267296,-0.0020350494915619493
1773798274394094000,3.208093994140625,0.035571664118766784,0.007527792555792257,0.003985672102682292
1773798274414058000,3.22805810546875,0.03647182782888412,0.010944067272683605,0.007576353538408875
1773798274434022000,3.24802197265625,0.03392740404307842,0.00846288144881837,0.0028323921480216084
1773798274453986000,3.267986083984375,0.0333271000623703,0.004994433586695231,0.006205741038639098
1773798274473950000,3.287949951171875,0.04515022432506084,0.02177585611019749,0.0003692351711913943
1773798274493915000,3.307914794921875,0.044701896035671235,-0.007617165039409883,-0.000690338618028909
1773798274513878800,3.327878662109375,0.04380523945689201,0.00813919788582716,0.0031464995984919366
1773798274533843000,3.347843017578125,0.032283728489279746,0.0012821304987184702,0.0022967691676691175
1773798274553807000,3.36780712890625,0.028842063602805137,0.004203680501226335,0.00532044610409066
1773798274573771000,3.38777099609375,0.033033670073747634,0.0056293887556763365,0.0064754978907294565
1773798274593735000,3.40773486328125,0.047997430449724196,-0.004811208807164803,0.008707732188515364
1773798274613699000,3.427698974609375,0.04246025458872318,-0.004518678434262983,0.006077968206815421
1773798274633664000,3.4476640625,0.05143967985808849,0.00602678600884974,-0.00004287102734670043
1773798274653628000,3.4676279296875,0.03393324926197529,0.003797784847766161,0.010374733818974346
1773798274673592000,3.487592041015625,0.03647767304778099,0.0059596892891218885,-0.006967135598883033
1773798274693556000,3.507555908203125,0.04037117335498333,0.009250241567380725,0.004597849184274673
1773798274713520000,3.52752001953125,0.033338205978274346,0.010265304928016849,-0.009778503225184976
1773798274733484000,3.547484130859375,0.042166824600100516,0.007115494561009109,0.002769647376425564
1773798274753448000,3.567447998046875,0.041568274185061455,0.009069153946009463,0.006751355690043419
1773798274773412000,3.587412109375,0.038728666844964024,0.004441813805769197,0.007500603154767304
1773798274793377300,3.607377197265625,0.03887713540494442,0.009071473767259157,0.007571969624236226
1773798274813341200,3.627341064453125,0.04217033173143864,0.007779337897757068,0.006007807313743978
1773798274833305000,3.64730517578125,0.02541150463223457,0.0038930482160532843,-0.0029883864273317156
1773798274853269000,3.66726904296875,0.04666062888801097,-0.0018818408243823795,0.008389076427090912
1773798274873233200,3.687233154296875,0.027059271839261052,0.017982898134598507,0.005912840772978961
1773798274893197000,3.707197021484375,0.04741057047247886,0.0017269973225425928,0.0004221344022080302
1773798274913161000,3.727160888671875,0.042024201259016986,0.010364723881613462,-0.00044714097930118437
1773798274933125000,3.747125,0.04067921639084816,0.010752417158102616,-0.0034346688901074228
1773798274953090000,3.767090087890625,0.04232523003220558,-0.00009167403855826706,-0.009970609997492283
1773798274973054200,3.78705419921875,0.02975391775071621,0.005248536211927421,0.007616977809742092
1773798274993018000,3.80701806640625,0.03020341508388519,0.012058499354566446,-0.003063990680500865
1773798275012982000,3.82698193359375,0.042622167152166365,-0.0009694341206224634,-0.007503598829451948
1773798275032946200,3.8469462890625,0.04307283352911472,0.0033992185508133843,0.0012282083543948827
1773798275052910000,3.86691015625,0.03454349011480808,0.0032629838513210416,0.003924808760918676
1773798275072874000,3.8868740234375,0.045915363478660584,0.0017353815583977846,0.006968030648026615
1773798275092838100,3.906838134765625,0.03918050226569175,0.00442641987381503,-0.009573591770231723
1773798275112803000,3.926802978515625,0.025262451550364492,0.003311864494346082,0.001865264148917049
1773798275132767000,3.94676708984375,0.03259410961270332,0.004693929969891906,0.0032394568452611566
1773798275152731100,3.966731201171875,0.04007657432258129,0.00948945715073496,-0.012630622986983506
1773798275172695000,3.986695068359375,0.02900222260057926,0.005030582612310536,0.00983266283152625
1773798275192659200,4.0066591796875,0.039027942052483555,0.01647897354478482,-0.0043666159779764705
1773798275212623000,4.026623046875,0.03708323772549629,0.02643656423049979,0.005384158990066498
1773798275232587000,4.0465869140625,0.037082068681716915,-0.0033375240919878706,0.011276194437034428
1773798275252551200,4.06655126953125,0.0379804788261652,0.00477471728825476,0.009170874454546719
1773798275272516000,4.08651611328125,0.033338205978274346,0.0018763563650893047,0.004391567756142467
1773798275292480000,4.10647998046875,0.034984219619631766,0.006964770111860707,-0.004725055760517716
1773798275312444000,4.12644384765625,0.031094810965657232,0.015888008214579894,-0.009827329069282858
1773798275332408000,4.146407958984375,0.03917465704679489,0.01457941896719858,-0.0013062785592861473
1773798275352372200,4.166372314453125,0.045161330240964886,0.0008209335946012287,-0.01184855096489191
1773798275372336000,4.186336181640625,0.035136779832839964,-0.0024074721336830407,0.004266699267458171
1773798275392300000,4.206300048828125,0.04576046517789364,0.002830387420603074,0.008780486897472291
1773798275412264200,4.22626416015625,0.035735914769768715,0.011640844764653593,0.0074361961490474636
1773798275432229000,4.24622900390625,0.04441372674405575,0.004542059309850447,0.0035758857253938912
1773798275452193000,4.266193115234375,0.03169511494636536,0.00955341663188301,-0.000912146408855915
1773798275472157000,4.286156982421875,0.029600773015618323,0.005168954469962045,-0.006128291888255625
1773798275492121000,4.30612109375,0.02540975106656551,0.012833013691287486,-0.0056760180761106305
1773798275512085000,4.3260849609375,0.039621816292405125,0.00498574795674067,0.004964764534216374
1773798275532049200,4.346049072265625,0.03977203841805458,0.011222756349900737,-0.009744016433693468
1773798275552013000,4.366012939453125,0.03453472228646278,0.0036101441880222406,0.003298639686591923
1773798275571977200,4.385977294921875,0.04530746071338653,0.019990402032108976,0.005626845172140747
1773798275591941000,4.405941162109375,0.0391740725249052,-0.0007538323082961142,0.00853893322655931
1773798275611906000,4.425906005859375,0.04530921427905559,0.002325200677709654,-0.004133519608154892
1773798275631870000,4.445869873046875,0.04426233557462692,0.012244135286891833,0.004229874388407916
1773798275651834000,4.465834228515625,0.034089316606521605,0.0059262847764417525,0.003704900666233152
1773798275671797800,4.4857978515625,0.044561026260256764,0.012953160339081659,-0.0015388086735270918
1773798275691761700,4.50576171875,0.04500935454964637,0.01757025764652062,0.007180760083254426
1773798275711725800,4.525725830078125,0.043963644888997074,0.01123694927203469,0.0036150852246209977
1773798275731689700,4.545689697265625,0.043212534260749814,0.007571636264096014,-0.0010308774176985024
1773798275751653600,4.565653564453125,0.04007248266935348,0.007951812954409979,0.001256758595444262
1773798275771618600,4.58561865234375,0.03393967900276184,0.015422856654552742,-0.0024894421955570577
1773798275791582500,4.60558251953125,0.025859248399734497,0.015068873851420356,0.008709083895385265
1773798275811547000,4.625546875,0.031098318096995353,-0.0008871991972671822,-0.007230353112332523
1773798275831510800,4.6455107421875,0.033790041399002074,-0.003627442382695153,0.00035252149840816853
1773798275851474700,4.665474609375,0.03364098831713199,0.010974407612020148,0.005299129321426153
1773798275871438800,4.68543896484375,0.05429156215786934,0.015325460694683714,0.004603438674844801
1773798275891402800,4.70540283203125,0.0459101027816534,0.009265512201748788,0.004063102986756712
1773798275911366700,4.72536669921875,0.041269583499431606,0.003481622437527403,0.007846968907024712
1773798275931330600,4.74533056640625,0.03947510129809379,0.0017214991635177283,0.005730817003268748
1773798275951295500,4.76529541015625,0.034834582015872,-0.002014787588245235,0.0017070779125206172
1773798275971259600,4.785259765625,0.04800327566862106,0.00886284511841368,-0.0011731171662919223
1773798275991223600,4.8052236328125,0.035434301474690434,0.019575126628950237,0.0015077559481374919
1773798276011187700,4.825187744140625,0.031246202135086058,0.005253943039407022,0.0036871275475248693
1773798276031151900,4.84515185546875,0.038726913279294964,0.009049819057877174,-0.004679115993250161
1773798276051115800,4.86511572265625,0.05159750076830387,-0.0009810606263345107,0.005691179112624377
1773798276071079700,4.88507958984375,0.03603577449917793,-0.0062852497153682635,0.0003786605866625905
1773798276091043600,4.905043701171875,0.03992576767504215,0.003778641755878925,0.0010226393123157322
1773798276111007700,4.9250078125,0.03693126203417778,0.008496728919493034,0.010821235477458686
1773798276130972700,4.94497265625,0.039624154379963875,-0.0038576481091091405,-0.0040677426292560995
1773798276150936600,4.9649365234375,0.04441314222216606,0.0072851703057996925,0.003717741881497204
1773798276170900500,4.984900390625,0.03333879050016403,0.004967700843396597,0.0000021006255410611626
1773798276190865000,5.004864990234375,0.04276537501513958,-0.0008519086881773546,0.0010253427260555326
1773798276210828800,5.024828857421875,0.03154313925504684,-0.005634197361534461,-0.00010848360946401953
1773798276230792700,5.044792724609375,0.03124386404752731,0.010545195015054196,0.0016197649552486836
1773798276250756900,5.0647568359375,0.03453530680835247,0.0021335870957467705,0.010910265467781573
1773798276270720800,5.084720703125,0.037827918612957,0.0017534423714736477,-0.004484835530165583
1773798276290685700,5.104685791015625,0.048752632731199265,0.009909226065920665,0.0010021993124857543
1773798276310649600,5.124649658203125,0.040672786650061604,0.015220886075356974,-0.006562354190275073
1773798276330613500,5.144613525390625,0.03199263658821583,0.01566709547289647,0.0024813867532648146
1773798276350577700,5.16457763671875,0.032440964877605435,-0.0017337238908512517,0.005072535757627338
1773798276370541600,5.18454150390625,0.033790625920891756,0.001236126799369231,0.009289861191716044
1773798276390505700,5.204505615234375,0.04081950164437294,0.0010479381503537297,0.0010494359876960515
1773798276410470000,5.224469970703125,0.03288929316699505,0.0047918556527234615,0.0043214981946162875
1773798276430433800,5.244433837890625,0.0330395152926445,0.014424452167772687,-0.01290648078629747
1773798276450397700,5.264397705078125,0.03812660929858684,-0.0010725246023386716,0.0037113304070197045
1773798276470362600,5.284362548828125,0.04635609298348427,0.0069991975378477945,-0.009424082030635326
1773798276490326500,5.304326416015625,0.032740240085124966,0.00485601606327109,0.0022990524563007053
1773798276510290700,5.324290771484375,0.040375265008211134,-0.0012893228579079733,-0.003081069679465145
1773798276530254600,5.344254638671875,0.042619829064607616,0.006448198891850188,-0.0040100758915767075
1773798276550218500,5.364218505859375,0.04740706334114075,0.004277133896504528,0.005524900901317596
1773798276570183000,5.384182861328125,0.03648351826667785,0.009502485595666802,0.0011893011161126195
1773798276590146800,5.404146728515625,0.04217091625332832,0.0031676154517568645,0.004241546559892595
1773798276610110700,5.42411083984375,0.047557285466790195,0.010178019370208494,-0.005631229086313396
1773798276630074600,5.44407470703125,0.04216916268765926,0.006479521045298315,0.009429251396097241
1773798276650038800,5.464038818359375,0.03259177152514457,0.007656209275010041,-0.004905161567777395
1773798276670003200,5.484003173828125,0.04351590112149715,0.016235689141089096,-0.0024550102029927074
1773798276689967000,5.503967041015625,0.051445525076985354,0.0014490982631919906,0.0025229060737416145
1773798276709931000,5.523930908203125,0.03887421279549599,-0.0026589855096070094,0.006174377785995602
1773798276729895200,5.543895263671875,0.037226445588469506,0.017296966263628564,0.0102755294945091
1773798276749859000,5.563859130859375,0.04889934772551059,0.00697807255142834,0.009015318566653876
1773798276769823000,5.583822998046875,0.03513561078906059,-0.00517727020715829,-0.0007045132738538086
1773798276789787400,5.603787353515625,0.04082359329760074,-0.0021291712155332787,0.0011927534485235809
1773798276809751300,5.623751220703125,0.03498772675096989,0.0018404265351826324,-0.0054230296957306565
1773798276829715200,5.643715087890625,0.03139583973884583,0.0006587835691403598,0.007614785852655768
1773798276849680100,5.66368017578125,0.0382809230774641,0.0008715449704090133,0.0022323256293311712
1773798276869644300,5.683644287109375,0.03603577449917793,-0.0030505238441517575,-0.005388232376985252
1773798276889608200,5.703608154296875,0.04770692307054996,0.008529311448265797,0.014529533677175641
1773798276909572000,5.723572021484375,0.03663374039232731,0.007003718449338339,0.0028306933812797066
1773798276929536000,5.743535888671875,0.03468962058722973,0.003010885953507386,-0.0013178776655346153
1773798276949500200,5.763500244140625,0.03094984953701496,0.012915828569955191,0.0020758016270585357
1773798276969464300,5.78346435546875,0.04965513452887535,0.0038597624343819914,-0.0072737903952598566
1773798276989428200,5.80342822265625,0.0399281057626009,0.009199625624995678,0.00456144443033263
1773798277009392400,5.823392333984375,0.030949265015125273,0.00404705603425391,0.0002874203729443252
1773798277029357300,5.843357421875,0.04022562740445137,0.005474298658664338,0.008114789530355482
1773798277049321200,5.8633212890625,0.03334171310961246,0.018284895022166892,-0.0011564582924358546
1773798277069285000,5.88328515625,0.043814591807127,0.00627476485397201,0.007139185963850468
1773798277089249000,5.9032490234375,0.03812719382047653,-0.0031953893746715038,-0.001491663329862058
1773798277109213200,5.923213134765625,0.03199146754443645,0.0098636470582569,-0.007036693703755736
1773798277129177000,5.943177001953125,0.039323710128664965,0.001587447287957184,-0.0004561097370460629
1773798277149141000,5.96314111328125,0.040520810958743096,0.008797164037637412,0.013381222158577292
1773798277169105400,5.98310546875,0.03438625372648239,0.005891715786559507,-0.0028350407628342507
1773798277189069300,6.0030693359375,0.04889993224740028,0.0000351809112355113,0.004650456154346466
1773798277209033200,6.023033203125,0.034684944412112236,0.00848073676591739,-0.007021897993423044
1773798277228998100,6.042998046875,0.03947276321053505,-0.005681963759707287,0.011283427895419298
1773798277248962000,6.062962158203125,0.039624154379963875,0.0077911835991777475,0.002501534492149949
1773798277268926200,6.08292626953125,0.0319938056319952,-0.0009616115737706422,-0.000962871949095279
1773798277288890000,6.10289013671875,0.04217150077521801,0.014786554345279,-0.00131784113291651
1773798277308854000,6.12285400390625,0.03828326116502285,0.001187885477161035,-0.006920245983544736
1773798277328818200,6.142818115234375,0.020924130085110664,0.00776627292020712,0.012730320501793175
1773798277348782300,6.1627822265625,0.04082768495082855,0.0020953100451268254,-0.0021669870418496427
1773798277368746200,6.182746337890625,0.038432898768782614,0.007782484269491396,-0.00108479956202209
1773798277388710100,6.202710205078125,0.030651158851385116,0.0008760339158587157,-0.0006233012638054788
1773798277408674300,6.22267431640625,0.02750818465054035,-0.00175482604438439,-0.009541370001062751
1773798277428638200,6.24263818359375,0.040078912410140034,0.0034006204900331794,0.0037595717292279005
1773798277448603100,6.26260302734375,0.0364858563542366,-0.0017040502717951312,0.0003486125082708895
1773798277468567000,6.282567138671875,0.030050854870676994,0.003222007953538559,0.0007345796185545622
1773798277488531200,6.30253125,0.04830781157314777,0.002399873349117115,0.003910378376767039
1773798277508495000,6.3224951171875,0.03528875552415848,0.01061587649793364,-0.004588533366657793
1773798277528459000,6.342458984375,0.03723462889492511,0.012158119237562642,-0.0017429346771910786
1773798277548423200,6.362423095703125,0.04845511108934879,0.005358444593497552,-0.00037438627034425733
1773798277568387300,6.38238720703125,0.03079378219246864,0.006216586659639142,0.0035060718921944498
1773798277588351200,6.402351318359375,0.0381242712110281,0.009325676857191137,-0.003491148317698389
1773798277608315100,6.422315185546875,0.04231470863819122,0.0029046262671705335,-0.0003765234285034239
1773798277628279300,6.442279296875,0.056532034561038016,0.0035685792017728086,-0.004779178834240883
1773798277648244200,6.462244140625,0.037827918612957,0.00014316219720058142,-0.00810490745715797
1773798277668208400,6.48220849609375,0.034684359890222546,0.012054818693292326,0.0035908275661990043
1773798277688172300,6.50217236328125,0.03558510812222957,0.003063237195252441,-0.009376114703062922
1773798277708136400,6.522136474609375,0.04411328249275684,-0.005297585818311199,0.02137978316443041
1773798277728100400,6.542100341796875,0.03678045538663864,0.005858484803815372,0.0062632616458460685
1773798277748064300,6.562064208984375,0.03872632875740528,0.00539738836439792,-0.0027575185472145675
1773798277768028200,6.582028076171875,0.04381400728523731,0.005170438607572578,0.006563267505727708
1773798277787992300,6.601992431640625,0.038276831424236296,0.014325868897815234,-0.003433116253837943
1773798277807956200,6.621956298828125,0.04890051676928997,0.00010911379712633788,0.009929382937960326
1773798277827920100,6.641920166015625,0.02495850016772747,0.0037165271719451992,0.0021589863984845577
1773798277847885300,6.66188525390625,0.04141922110319137,0.010552697901497595,0.000012567220628261566
1773798277867849500,6.681849365234375,0.0403723423987627,0.008105962336505762,0.003324486513901502
1773798277887813400,6.7018134765625,0.035432547909021374,0.015449173839320427,0.0034880430451594293
1773798277907777300,6.72177734375,0.03244213392138481,-0.005225246667885221,-0.004866911916621029
1773798277927741200,6.7417412109375,0.03723053724169731,-0.00018864530674181877,0.004967066089157015
1773798277947705300,6.761705322265625,0.04441255770027637,-0.0014608298001810907,0.006416954370215535
1773798277967669200,6.781669189453125,0.03588321428596973,0.002385716959601268,-0.006104728349577635
1773798277987633200,6.801633056640625,0.027652561557292937,0.0035110037956386803,0.017073847865127025
1773798278007597300,6.821597412109375,0.032740240085124966,0.0009544329143129288,-0.0038681466702371833
1773798278027561500,6.8415615234375,0.037976971694827076,0.0013445556099060923,0.005428308659046888
1773798278047525400,6.861525390625,0.04366086255013942,-0.0024336660208646205,0.007319949358236044
1773798278067489300,6.8814892578125,0.0505459458887577,0.0029935740591026843,0.0038028446153737603
1773798278087454200,6.9014541015625,0.051741877675056454,0.014761762397317215,0.008337492370326072
1773798278107418400,6.92141845703125,0.03707914607226848,0.0007592391357757151,0.0004993095579557121
1773798278127382300,6.94138232421875,0.037975218129158016,-0.002918481262587011,0.007493643691018223
1773798278147346200,6.96134619140625,0.04022036670744419,0.0004865870737005025,-0.0003379815164022147
1773798278167310300,6.981310302734375,0.045156069543957705,-0.005006658314028754,-0.004528857334982603
1773798278187274200,7.001274169921875,0.041264907324314114,0.007793238558946177,-0.0033153716256842016
1773798278207238100,7.021238037109375,0.029891280394792556,0.005109872093331068,0.0012601378626190126
1773798278227202300,7.041202392578125,0.02914250785410404,0.004910915455128997,-0.0005198956882581115
1773798278247166500,7.06116650390625,0.04096270950734615,0.0015455306752584874,0.00430233683642
1773798278267130400,7.08113037109375,0.03827098620533943,-0.0018144655434414742,-0.004212667525280267
1773798278287094300,7.10109423828125,0.028245266753435132,0.0025097269317600874,-0.00506627041362226
1773798278307059200,7.12105908203125,0.043210196173191065,0.007654633805854245,0.0045572614455595606
1773798278327023400,7.1410234375,0.03079202862679958,0.007901448173774406,0.0028384200300090013
1773798278346987300,7.1609873046875,0.04635258585214615,0.0044415626440197226,-0.004392572403140366
1773798278366951200,7.180951171875,0.0560796146184206,-0.011592009787401185,0.0010881422965787352
1773798278386915300,7.200915283203125,0.016575287225842474,0.00802269080011174,-0.0032334837622009214
1773798278406879500,7.22087939453125,0.04889642511606216,-0.00199427908975631,0.00562706436784938
1773798278426843400,7.240843505859375,0.033035423639416694,-0.0009592369535937904,0.009790029266197233
1773798278446807300,7.260807373046875,0.029442952105402945,-0.007167498742882162,-0.003941924292501062
1773798278466771500,7.280771484375,0.03243687322437763,0.010195057269977405,-0.010892145289201289
1773798278486735400,7.3007353515625,0.04335866473317146,0.007626732018776237,-0.007517554289568215
1773798278506699300,7.32069921875,0.0384206238090992,0.0032097010278142987,-0.007339512575231492
1773798278526663400,7.340663330078125,0.03916822730600834,0.0022456600349396467,-0.006132200878392904
1773798278546628400,7.36062841796875,0.05353285274505615,0.013017804806819185,-0.0020581198398955166
1773798278566592300,7.38059228515625,0.04096154046356678,0.009843686549039558,-0.010197057430818677
1773798278586556400,7.400556396484375,0.044853287205100054,0.009155183695070445,-0.00341331557482481
1773798278606520300,7.420520263671875,0.038865444967150685,0.01532066578855738,-0.00888882437646389
1773798278626484500,7.440484375,0.034524200892448426,-0.002116517229937017,-0.008504172440432011
1773798278646448400,7.460448486328125,0.04978548291027546,0.004456632348988205,-0.004877214114926755
1773798278666412300,7.480412353515625,0.045295770275592805,-0.0005925133998971432,0.004805701514985412
1773798278686376400,7.50037646484375,0.03272621155977249,0.011087530863983557,-0.0002530979782342911
1773798278706340400,7.52034033203125,0.023148235875368118,0.010242860200768335,0.003731569477450102
1773798278726304300,7.54030419921875,0.03661620473563671,-0.010208848333312199,-0.012380264955107122
1773798278746268200,7.56026806640625,0.03960954133272171,-0.008205079896003007,-0.00026665157955139875
1773798278766232300,7.580232421875,0.04798983166515827,0.002845845284638926,0.0010283201344311237
1773798278786197500,7.600197509765625,0.041108255457878114,0.0038202798073645678,-0.002910900744330138
1773798278806161400,7.620161376953125,0.04245674745738506,0.005121060207625851,-0.0010164835661649703
1773798278826125300,7.640125244140625,0.038867198532819745,-0.010995651329448446,-0.004396956317313015
1773798278846089500,7.66008935546875,0.033033085551857945,-0.0021580000177957117,-0.002254884521011263
1773798278866053400,7.680053466796875,0.04425707487761974,0.00485398850296624,0.010002429907862096
1773798278886017300,7.700017333984375,0.0394704251229763,0.003886020253645256,0.008154226491600275
1773798278905981200,7.719981201171875,0.033035423639416694,0.0016076817918103188,0.0035227855649776754
1773798278925945300,7.7399453125,0.0340805487781763,-0.0034375914995558557,0.00644270986597985
1773798278945909200,7.7599091796875,0.0321375980168581,0.002173352850554511,-0.006657631258293986
1773798278965873200,7.779873046875,0.04889642511606216,0.005607903009653091,-0.0049911228181794285
1773798278985837300,7.79983740234375,0.045754035437107085,0.00569109691423364,0.0056140952884219586
1773798279005801200,7.81980126953125,0.04724982695281505,0.011350465249642729,-0.010617273870576172
1773798279025765400,7.839765380859375,0.05577975488901138,-0.004897507984284311,-0.011506258599553256
1773798279045730300,7.859730224609375,0.03482990584075451,-0.007302550698863342,0.000479508878942579
1773798279065694200,7.879694091796875,0.030941666230559346,0.000006922931130975484,-0.0006468282698653638
1773798279085658400,7.899658447265625,0.04994388834238052,0.0054685128052718935,0.015720971951447428
1773798279105622300,7.919622314453125,0.04291033644378185,0.009369949823757632,0.009477036060579121
1773798279125586200,7.939586181640625,0.03348258288502693,0.005580393948219717,0.000668236384075135
1773798279145550300,7.95955029296875,0.03782207339406013,0.006895823928341269,0.007239303603768349
1773798279165514200,7.97951416015625,0.03453121515512466,-0.0006502806022763252,0.0026430983873084184
1773798279185478100,7.99947802734375,0.03737432962656021,0.0013155030453577638,-0.004732015224266797
1773798279205442300,8.0194423828125,0.0358802916765213,-0.003542202651500702,-0.00671153513630852
1773798279225406500,8.039406494140625,0.045454760229587554,0.00155729417828843,0.000708897188026458
1773798279245370400,8.059370361328124,0.04650397702157497,0.014654237769078463,-0.008803922571986913
1773798279265334300,8.079334228515625,0.03558277003467083,0.004174974996550008,0.005716368352808058
1773798279285298400,8.09929833984375,0.037078561550378794,0.0006417776354122907,-0.00041038916548714037
1773798279305263400,8.119263427734374,0.03154313925504684,-0.0018852018252480773,-0.01184409398548305
1773798279325227300,8.139227294921875,0.03588262976408005,-0.001970596820069477,0.008022069745603948
1773798279345191200,8.159191162109375,0.04411269797086716,0.00867762017804198,-0.006335577963385731
1773798279365155300,8.1791552734375,0.03768061909675598,0.004878967680595815,0.0008968575081788003
1773798279385119200,8.199119140625,0.04246843789517879,0.004726681462023407,-0.0019016689028590915
1773798279405083400,8.21908349609375,0.03393792543709278,0.004685637065581977,0.0035744426869787275
1773798279425047300,8.23904736328125,0.045913025391101835,0.014919135782960802,0.003962875748984515
1773798279445011500,8.259011474609375,0.04337093969285488,0.006845600711600855,-0.0055736536801792675
1773798279464975400,8.278975341796874,0.04112754468023777,0.0032335294279735535,-0.00923420374803245
1773798279484939300,8.298939208984375,0.04681318910121918,0.010687927953992038,-0.0059198550356552
1773798279504903400,8.3189033203125,0.03933189343512058,0.006663129417318851,0.0006406542574055493
1773798279524867300,8.338867431640624,0.03918225583136081,0.000023472207132726906,-0.006124894354771823
1773798279544831200,8.358831298828125,0.042025370302796364,0.0025531276820693165,0.0019512071330100296
1773798279564795100,8.378795166015625,0.03813537712693214,-0.004715548146655783,0.0029356333267875016
1773798279584759300,8.39875927734375,0.04621639225184917,0.011511318367160857,-0.008373623129632324
1773798279604724500,8.418724365234375,0.03230184866786003,0.005417020080052316,0.0113614067687653
1773798279624688400,8.4386884765625,0.03245207079350948,0.0021343086149543523,-0.004829374651517719
1773798279644652300,8.45865234375,0.04232990620732307,-0.0023749581035692243,0.006129351334180682
1773798279664616000,8.478615966796875,0.028862521868944165,0.004716187467472628,-0.004225344343762844
1773798279684579800,8.498579833984374,0.0305079509884119,0.0007950685009825974,0.0027483123274520036
1773798279704543700,8.518543701171875,0.037388942673802376,-0.011693378669489175,0.008181772085651755
1773798279724508000,8.5385078125,0.03873685015141964,-0.005716523616435006,-0.007618694842793047
1773798279744471800,8.558471923828124,0.03080605715215206,0.00503677032450214,-0.006204736391641199
1773798279764435700,8.578435791015625,0.041429742497205733,0.0012468034570105374,0.0012904234030283986
1773798279784400000,8.59839990234375,0.03559446047246456,0.013911566175613552,-0.008137604150362313
1773798279804364000,8.618364013671876,0.04681844979822635,0.009660712931258603,-0.002027998696267605
1773798279824328000,8.638327880859375,0.01808744535446167,0.006064980861078947,-0.0005691051248461008
1773798279844291800,8.658291748046874,0.03215279558598995,0.00043475642176344986,-0.0062703124411404125
1773798279864256000,8.678256103515626,0.0454699577987194,0.0055406829923391335,-0.0006766571525484323
1773798279884220000,8.698219970703125,0.03709025198817253,0.00004465199247933924,0.006199932352360338
1773798279904184800,8.718184814453124,0.041729017704725264,-0.0032908125731628385,-0.002491104429680854
1773798279924148700,8.738148681640626,0.028262802410125732,-0.001875456749368459,0.001980743754748255
1773798279944113000,8.75811279296875,0.041131051811575885,-0.004387247774051502,-0.00358310091746971
1773798279964076800,8.778076904296874,0.03604103519618511,0.00568225602065213,0.00009589812252670526
1773798279984041000,8.798041015625,0.04516834450364113,-0.006048532049776986,0.006228701789118349
1773798280004004900,8.8180048828125,0.030652327895164488,0.005063210806855931,0.000040898265969008204
1773798280023969000,8.837968994140626,0.041277182283997536,-0.0053187016715761275,0.010226539253629744
1773798280043933000,8.857932861328125,0.024818214914202687,-0.004887817707331851,0.004154945988673717
1773798280063896800,8.877896728515625,0.03274959243535995,0.0007553027461748569,-0.005704476985614746
1773798280083861000,8.897861083984376,0.04427285696864128,0.007025441657379269,-0.007344298348203301
1773798280103825000,8.917824951171875,0.03529401622116565,0.010702687131706625,0.007218224283121526
1773798280123788800,8.937788818359374,0.041428573453426355,-0.001582456019008532,0.008312430994305758
1773798280143752700,8.957752685546875,0.031551907083392144,0.0027291966350283473,-0.00004471592456102371
1773798280163716900,8.977716796875,0.040078327888250345,0.00018180457400158046,-0.0017462956780567764
1773798280183680800,8.9976806640625,0.03169628399014473,-0.0013762659224215894,0.00570098812058568
1773798280203646000,9.01764599609375,0.029302082329988478,0.003854437805293128,-0.0013384272632189094
1773798280223609900,9.03760986328125,0.04441723387539386,0.0037278522835578766,0.0013314860657788813
1773798280243574000,9.057573974609374,0.03289513838589191,0.006477680714661255,-0.005126293505169451
1773798280263538000,9.077537841796875,0.026460136902332305,0.0071811802083626385,-0.008711622912343592
1773798280283501800,9.097501708984375,0.038430560681223865,0.0068650360644329335,0.0024037732060998677
1773798280303465700,9.1174658203125,0.040972646379470824,0.005630808961205184,-0.003360160615481436
1773798280323430000,9.137429931640625,0.03693301559984684,0.00026013050721958276,0.0009659589553251862
1773798280343393800,9.157393798828124,0.043967152020335194,0.009351793112559244,-0.0005781652141362429
1773798280363357700,9.177357666015626,0.040375265008211134,0.008143376304022967,0.010108520630840211
1773798280383321900,9.19732177734375,0.045913609912991524,-0.0011033215994015336,-0.0008410539340227842
1773798280403285800,9.21728564453125,0.027656653210520743,0.011995366423903033,0.004287321930378675
1773798280423250000,9.23725,0.03499006483852863,0.01300957583459094,-0.014893855211231856
1773798280443213800,9.2572138671875,0.034244799429178234,0.00631579555068165,0.0012620558250695465
1773798280463178000,9.277177978515626,0.036786885127425194,0.0060204658659175035,-0.0037327750538475807
1773798280483142000,9.297141845703125,0.036785716083645816,0.007504174218187108,-0.000050542877148836846
1773798280503105800,9.317105712890625,0.03588672141730785,-0.004977916276734322,0.0026760873414576054
1773798280523070000,9.337070068359376,0.026908465191721916,0.011752735040755942,-0.00918026333739981
1773798280543033900,9.357033935546875,0.030501521247625347,0.01112165232929401,-0.00015349179496988653
1773798280562998800,9.376998779296875,0.043967152020335194,0.001929424559464678,-0.0075801894633099436
1773798280582962700,9.396962646484376,0.032298926058411594,0.0019240451314486563,0.0048048247321508825
1773798280602926800,9.4169267578125,0.03574059094488621,-0.006054450333910062,0.005968516482971608
1773798280622891000,9.43689111328125,0.028707623568177222,0.006007259324472397,-0.004398764681909233
1773798280642855000,9.45685498046875,0.04157587296962738,0.0004108914889860898,0.00009029036564752459
1773798280662819800,9.47681982421875,0.04082710042893886,0.010607200001133606,0.0009172061764635145
1773798280682783700,9.49678369140625,0.03918400939702987,0.009373931879131122,-0.004835311201959848
1773798280702748000,9.516747802734375,0.03424596847295761,-0.006459752332326024,-0.004375109811685979
1773798280722711800,9.5367119140625,0.04636486081182956,-0.002570791202923283,0.000363170756585896
1773798280742675700,9.55667578125,0.034243045863509174,0.0015452475474681704,0.012672270171623676
1773798280762640000,9.576639892578125,0.02556640293300152,-0.0006965034973341972,-0.002282448381371796
1773798280782603800,9.596603759765625,0.04382277511358261,0.004382124074362218,-0.004567307915538549
1773798280802567700,9.616567626953126,0.034844518887996674,-0.0053371323774103075,0.006568254208099097
1773798280822531600,9.636531494140625,0.045319151151180265,0.005960616304306313,-0.01125427486617118
1773798280842496000,9.65649609375,0.04187865530848503,0.0002484857351984829,-0.002152647989243269
1773798280862460000,9.6764599609375,0.04696808740198612,-0.0048546186906285585,-0.006897833222337067
1773798280882423800,9.696423828125,0.03514671670496464,0.01026729138912633,0.013150847468804567
1773798280902388000,9.716387939453124,0.0409825832515955,-0.009949567209463566,-0.007580810517817735
1773798280922353000,9.736352783203126,0.03604278876185417,0.0058913321940694,0.01002217578794807
1773798280942316800,9.75631689453125,0.0405336704403162,0.007732685744436457,0.0006615509149618447
1773798280962280700,9.77628076171875,0.03305295929610729,0.009548429929511621,0.0045019693280570205
1773798280982244600,9.79624462890625,0.03275543765425682,0.0048993528814986346,-0.006606905718054622
1773798281002208800,9.816208740234375,0.04891571433842182,0.0002353705252986401,-0.009123235920537263
1773798281022173000,9.8361728515625,0.04098492133915424,0.0036145281021948902,-0.0019755926555953917
1773798281042136800,9.85613671875,0.04427811766564846,-0.002658633883157745,-0.003699603436607867
1773798281062101000,9.87610107421875,0.032305940321087835,0.005899150174343958,-0.008777071097679435
1773798281082065000,9.89606494140625,0.04562427157759666,-0.0012314688905607908,0.008117657340876758
1773798281102028800,9.91602880859375,0.024976620346307755,-0.0004995378868188709,0.01097107401061803
1773798281121992700,9.93599267578125,0.04757248303592205,0.0166292915685568,0.004549333867430686
1773798281141956900,9.955956787109375,0.041588147929310794,0.00531949625601992,0.0030075843181461095
1773798281161920800,9.975920654296875,0.04472995308637619,0.008746164502762258,-0.0031188626728951927
1773798281181884700,9.995884765625,0.036949966734647746,0.006505354172876105,-0.0016734496375545858
1773798281201848800,10.015848876953125,0.03620411680340767,0.008754183412436395,0.001188278202805668
1773798281221812700,10.035812744140625,0.03979658833742142,0.01205833039120771,-0.001284578184131533
1773798281241776600,10.055776611328126,0.045182373028993604,0.0008487257838249206,-0.0024132351541891694
1773798281261740800,10.07574072265625,0.05221358684003353,0.012515965365059674,-0.0055866044932976365
1773798281281705000,10.095705078125,0.03216331698000431,-0.004757286662841215,0.011830083726439624
1773798281301668900,10.1156689453125,0.04114157320559025,0.001150777470320463,0.0073463624411262566
1773798281321633800,10.1356337890625,0.03291208952069282,0.00854675120683387,-0.004597209863457828
1773798281341597700,10.15559765625,0.03455868768393993,0.004761853240104392,0.003271569016575813
1773798281361561900,10.175561767578126,0.04189209931194782,0.01857616958632134,0.007399590465705841
1773798281381525800,10.19552587890625,0.03785129948854446,0.007188422799902036,-0.004998520673345774
1773798281401489700,10.21548974609375,0.03545592878460884,0.004770374473277479,-0.002100899535696953
1773798281421453800,10.235453857421875,0.0430868620544672,0.012663831136841327,-0.0037188378600403666
1773798281441418000,10.25541796875,0.039945641419291494,-0.0029331765082199123,-0.008153550638165325
1773798281461382000,10.2753818359375,0.03710135790407657,0.018998705847328528,-0.006024301790818571
1773798281481345800,10.295345703125,0.040241409495472905,-0.002641847145138308,0.00016845190208405255
1773798281501310000,10.31531005859375,0.03156009038984775,0.003583822436677292,-0.0010010668013244867
1773798281521273900,10.33527392578125,0.04697451714277267,0.010066617717873304,0.0073048065880313515
1773798281541237800,10.35523779296875,0.04099076655805111,0.008589156443299726,-0.008212696946877986
1773798281561202000,10.375201904296874,0.04084171347618103,0.0006740268040448426,-0.0030052644968964156
1773798281581165800,10.395165771484375,0.03814706756472588,0.005953181916521862,0.004251118105836212
1773798281601129700,10.415129638671875,0.027974048596620556,-0.001399190140282735,-0.009214457867946476
1773798281621093600,10.43509375,0.05116670813560485,0.009889854645170271,0.0026477014971897006
1773798281641057800,10.455057861328125,0.03784837687909603,-0.006388312797620892,-0.012270119111519305
1773798281661021700,10.475021728515625,0.03380933062136173,0.00516861654324457,0.014389997342322021
1773798281680985900,10.49498583984375,0.03351122445762157,0.011712658758694306,-0.0001321202133782208
1773798281700950000,10.514949951171875,0.02932195607423782,-0.004399751062598079,0.0007322415309958159
1773798281720914000,10.534913818359374,0.04144377102255821,0.011669605068257078,-0.002425857173744589
1773798281740877800,10.5548779296875,0.04039923040568828,-0.000839729626616463,-0.01427502919314429
1773798281760841700,10.574841796875,0.04503741160035133,0.007379050001176074,-0.007633399221580475
1773798281780806700,10.594806640625,0.037107787644863124,0.0053037963633891195,-0.004875716277584433
1773798281800770800,10.614770751953126,0.03396598248779774,-0.0021250293299555777,0.002836081942450255
1773798281820734700,10.634734619140625,0.03291910378336906,0.013096103340573609,0.003972867420036346
1773798281840699000,10.654698974609374,0.05371756166219711,0.005768089406890794,0.004495101195853203
1773798281860663000,10.6746630859375,0.03531330544352531,0.0031424353447277098,-0.0012165909818373619
1773798281880627000,10.694626953125,0.03052373307943344,0.00949248935803771,-0.0003137238579802215
1773798281900590800,10.7145908203125,0.039950902116298675,0.003122515934705734,-0.006410122770629823
1773798281920554800,10.7345546875,0.04249357233643532,0.013279734545480459,0.004487338014505803
1773798281940519000,10.754518798828125,0.04384031077027321,0.0032683632793370633,-0.003269979847688228
1773798281960482800,10.77448291015625,0.049376902109384536,0.0031290826728101817,0.0009264854614622891
1773798281980446700,10.79444677734375,0.03620645489096641,0.0046365098273847246,-0.0004324183342047035
1773798282000411000,10.814410888671874,0.044885435909032816,0.005181494291126728,0.006567194762174039
1773798282020374800,10.834374755859375,0.05057166485190391,0.00955429341471754,-0.003341181920375675
1773798282040338700,10.854338623046875,0.04682897119224071,0.015114886683924123,-0.00486941440096125
1773798282060302800,10.874302734375,0.043536359387636184,-0.002943597437534481,0.010069796055648476
1773798282080267000,10.89426708984375,0.038596564897894856,-0.0032862825285177675,0.007003229825571179
1773798282100231000,10.91423095703125,0.041889176702499385,0.0016544161435216665,0.0012929076210595667
1773798282120194800,10.93419482421875,0.03784662331342697,-0.006259535318799317,-0.006433266184199601
1773798282140159000,10.954158935546875,0.0230313314974308,0.007983966224920005,0.005477043171599507
1773798282160123000,10.974122802734374,0.04891863694787025,0.012302989334659651,0.0010610898928716777
1773798282180086800,10.994086669921876,0.03380465444624424,0.003476489604683593,-0.0028068741142749784
1773798282200051000,11.014051025390625,0.04098725942671299,0.0037884416306857016,-0.00008897519139572977
1773798282220014800,11.034014892578124,0.04368073629438877,-0.005206701797619462,-0.005477719025034457
1773798282239978800,11.053978759765625,0.04293137923181057,0.00921367241665721,-0.0018617752838879823
1773798282259942700,11.073942626953125,0.038893502017855644,-0.00979922635280527,-0.003366973948758095
1773798282279906800,11.09390673828125,0.04128828819990158,0.009735056809103115,0.0000798603031784296
1773798282299871000,11.11387109375,0.03994038072228431,0.007386603119969367,-0.0022887502579949795
1773798282319835000,11.1338349609375,0.03245616244673729,0.003964190923236311,0.011540124336536972
1773798282339799800,11.1537998046875,0.03709434364140034,0.0009197908591944724,-0.004280965254828333
1773798282359764000,11.173763916015625,0.03679448391199112,-0.004065048348670825,-0.002197272582259029
1773798282379728000,11.193727783203125,0.029310850158333776,0.0021630232527852056,0.00267274460690096
1773798282399691800,11.21369189453125,0.03888590323328971,0.012788169902563094,-0.011427001084573566
1773798282419655700,11.23365576171875,0.03544365382492542,0.0010939144502393901,0.0008776961499825119
1773798282439619800,11.253619873046874,0.041428573453426355,0.013637471075123175,-0.006010748189501464
1773798282459583700,11.273583740234375,0.034545828202366825,0.008966063464293256,-0.004535962929204106
1773798282479547600,11.293547607421875,0.03858545898199081,0.004731357637140899,0.004581098978873342
1773798282499512000,11.313511962890624,0.03963116864264011,-0.00009830014216713607,0.003912844328489155
1773798282519476000,11.33347607421875,0.04187456365525722,0.0036435076015070077,-0.0063150466320104895
1773798282539439900,11.35343994140625,0.04172200344204902,-0.0010565324487630278,0.003406538774166256
1773798282559403800,11.37340380859375,0.03633621875047684,-0.005613154573505744,0.0018129677060991524
1773798282579368000,11.393367919921875,0.03528875552415848,0.012038438380649313,0.0064249184809625146
1773798282599331800,11.413331787109374,0.027805121770501134,-0.0010759038695134222,-0.0036680757871828972
1773798282619295700,11.433295654296876,0.031844168028235434,0.007260565587505698,0.016123049946315585
1773798282639260000,11.453260009765625,0.04725508764982223,0.0019215974460355936,0.008619469383172691
1773798282659223800,11.473223876953124,0.03647942661345005,0.01852918863943778,-0.005261244996450841
1773798282679187500,11.4931875,0.03707739250659942,0.005859813677798956,-0.009538776185177266
1773798282699151600,11.513151611328125,0.047701662373542786,0.005687936842767522,0.004339362644869834
1773798282719115500,11.533115478515626,0.03483399749398231,0.002840712451795116,0.002930263031926006
1773798282739079400,11.553079345703125,0.04246434624195099,-0.00008895692508667707,0.013576288072951137
1773798282759043300,11.573043212890624,0.018820435804128646,0.01420268547614105,0.011819945924915372
1773798282779007700,11.5930078125,0.03887012114226818,0.003950555123528466,-0.0006622633010149001
1773798282798971600,11.6129716796875,0.047696401676535605,-0.002241915441583842,0.00018383213430643082
1773798282818935600,11.632935546875,0.03737257606089115,0.0036718660463113334,-0.007690992894023656
1773798282838899700,11.652899658203125,0.031686931639909745,0.0031567926636431364,-0.0008663710383698343
1773798282858863600,11.672863525390625,0.03213409088551998,0.0035417551269289103,0.005315660331118852
1773798282878827500,11.69282763671875,0.03153320238292217,0.004585683822445571,-0.008226195749267935
1773798282898791400,11.71279150390625,0.028689503389596936,0.00026781149017624553,0.0014020122850313783
1773798282918755600,11.732755615234375,0.027944237980246544,0.0029956016194075345,-0.0030804668912664053
1773798282938719500,11.752719482421876,0.028842063602805137,0.0038307007366791363,-0.002663319191429764
1773798282958683400,11.772683349609375,0.03542553364634514,0.011742113182041793,0.006188424577657133
1773798282978647600,11.7926474609375,0.029586159968376158,0.004914221657067537,0.008046765795443207
1773798282998611500,11.812611572265626,0.04290449122488498,-0.0036189942147582766,-0.009621668695658444
1773798283018575600,11.83257568359375,0.03317629341483116,0.012609726329427211,0.0030673699476756154
1773798283038540500,11.85254052734375,0.04619651850759983,0.0008381587240379303,0.0035883981470949946
1773798283058504700,11.872504638671876,0.04125906210541725,0.0055642373978625976,-0.00015047785397619007
1773798283078468600,11.892468505859375,0.05143208107352257,-0.010686092189932241,0.0032516952723264693
1773798283098432500,11.9124326171875,0.04649462467133999,-0.00023071261649020014,-0.009654822046589106
1773798283118396400,11.932396484375,0.05367898321747779,0.00787922720881179,0.003848053730279207
1773798283138360600,11.952360595703125,0.04380056328177452,-0.0023807667898479846,0.003063808017410338
1773798283158324500,11.972324462890626,0.03482113801240921,-0.007560407050605863,0.0013053469775244594
1773798283178288400,11.992288330078125,0.05038520236909389,0.012512924024602398,-0.010408800485357642
1773798283198252800,12.012252685546875,0.03407294999361038,-0.010474486132711172,0.006946951327379792
1773798283218216700,12.032216796875,0.049935120514035224,0.008040810978692024,-0.006141480163391679
1773798283238180600,12.0521806640625,-0.002140519160032272,0.002199026147928089,0.00616369199519977
1773798283258144500,12.07214453125,0.05277648141980171,0.021218034997768698,-0.0009491539509966969
1773798283278108700,12.092108642578125,0.011928922724723815,0.00581828522416763,0.011870470535755157
1773798283298072600,12.112072509765625,0.04319792121350765,-0.005868700237153098,-0.004889744802936911
1773798283318036500,12.132036376953126,0.07312719553112983,0.010238750281231477,0.013770696400199085
1773798283338000600,12.152000732421875,0.01581833137869835,0.00006301876623183488,-0.006791833830904215
1773798283357964500,12.171964599609375,0.050236149287223815,0.021983009754586964,-0.007215137276891619
1773798283377928400,12.191928466796876,0.03512099774181843,-0.011605599921336397,-0.00009447335042059421
1773798283397892400,12.211892333984375,0.04290156861543655,-0.000905415273969993,-0.0013143522678874433
1773798283417856500,12.2318564453125,0.05786766707897186,-0.00018924809494055806,0.017015103415213523
1773798283437820700,12.251820556640626,0.03018354133963585,-0.0028607779922895133,-0.0061102813075296575
1773798283457784600,12.27178466796875,0.04484744198620319,0.0014030443314928562,0.011541074184607713
1773798283477748700,12.291748779296874,0.032875849163532256,0.005057986642466858,-0.00619744813432917
1773798283497712600,12.311712646484375,0.04349894998669624,0.0046310573341324926,0.0031836898037232455
1773798283517676500,12.331676513671875,0.02269932306408882,0.008884604859072715,0.017254282465949653
1773798283537640400,12.351640380859376,0.03526829725801944,0.00026807635165750977,0.000563314704876393
1773798283557604600,12.3716044921875,0.03961129489839077,0.01644931362546049,-0.004039082790352404
1773798283577568500,12.391568603515625,0.0399105701059103,0.005669195609679445,-0.007643537023104727
1773798283597532400,12.411532470703126,0.04200374299287796,0.0005115023192483932,0.0009607165246270596
