time,seconds_elapsed,z,y,x
1773798271219793700,0.033793701171875,0.00007053744047880173,0.0014982197899371386,0.00005905516445636749
1773798271239757600,0.053757568359375,0.0007930794963613153,-0.000045304885134100914,-0.0006848103366792202
1773798271259721500,0.073721435546875,-0.001460375846363604,0.00010222312994301319,-0.0008884808048605919
1773798271279685400,0.093685302734375,0.0001956212508957833,-0.0006397922988981009,0.000754854641854763
1773798271299649500,0.1136494140625,0.00017304369248449802,0.0011566085740923882,-0.0002568671479821205
1773798271319614500,0.133614501953125,0.0008348185219801962,-0.0009611742570996284,0.0010232683271169662
1773798271339578400,0.153578369140625,-0.0008152028312906623,0.0011460871901363134,-0.000724750105291605
1773798271359542300,0.173542236328125,0.00023165647871792316,0.0001287513878196478,0.0009610331617295742
1773798271379506400,0.19350634765625,-0.0002575041726231575,0.00020740763284265995,0.0007555559277534485
1773798271399470300,0.21347021484375,-0.00048535194946452975,0.0005275802686810493,0.0008419658988714218
1773798271419435500,0.233435546875,-0.0002923671854659915,0.0017755043227225542,-0.0011358954943716526
1773798271439399400,0.2533994140625,-0.0016501545906066895,-0.000454433960840106,0.0008412664756178856
1773798271459363600,0.273363525390625,0.0006572511047124863,-0.001388023141771555,-0.00007768673822283745
1773798271479327500,0.293327392578125,0.0006934123812243342,0.00008711987175047398,-0.0007139458321034908
1773798271499291400,0.31329150390625,-0.00006899933214299381,-0.0014557482209056616,0.00014063715934753418
1773798271519255300,0.33325537109375,0.00038061977829784155,0.00001683342270553112,-0.0002380101941525936
1773798271539220200,0.35322021484375,0.0004182459961157292,0.00032569002360105515,0.00022642454132437706
1773798271559184600,0.3731845703125,-0.002536638407036662,-0.0007492059376090765,-0.0011480371467769146
1773798271579148500,0.3931484375,-0.0005549808265641332,0.0006091599352657795,-0.0006440295837819576
1773798271599112400,0.413112548828125,-0.0003729645977728069,-0.00017417268827557564,-0.0011138939298689365
1773798271619076600,0.43307666015625,-0.001136784558184445,-0.000011897878721356392,0.00025277165696024895
1773798271639040500,0.45304052734375,0.000025142740923911333,-0.00021739094518125057,0.00018852436915040016
1773798271659006000,0.473005859375,0.0004951235023327172,0.0009499515872448683,0.0015484103932976723
1773798271678969900,0.492969970703125,0.0005065437871962786,0.00048602279275655746,0.0017858687788248062
1773798271698933800,0.512933837890625,-0.00036527079646475613,-0.0005186512134969234,0.00032307999208569527
1773798271718898000,0.53289794921875,0.0013083277735859156,0.0007491614669561386,0.001059077214449644
1773798271738861800,0.55286181640625,0.0004459730116650462,-0.0012206481769680977,-0.00028387177735567093
1773798271758825700,0.57282568359375,-0.0004335698322393,0.00025886879302561283,0.0005112690851092339
1773798271778790700,0.592790771484375,-0.000950331799685955,0.0003903305623680353,-0.0008354480378329754
1773798271798754800,0.6127548828125,0.00026873702881857753,0.0012523399200290442,-0.000459437258541584
1773798271818719000,0.632718994140625,-0.0002204809570685029,0.00031962525099515915,0.0005553103983402252
1773798271838683000,0.652682861328125,-0.0007434276631101966,0.0003245484549552202,-0.0004461444914340973
1773798271858646800,0.672646728515625,0.0001864725345512852,-0.00044973636977374554,-0.000016041100025177002
1773798271878611000,0.69261083984375,-0.0010271702194586396,0.0013873099815100431,-0.00031274929642677307
1773798271898576000,0.712575927734375,0.001504580955952406,0.00048110494390130043,-0.001989345531910658
1773798271918539800,0.732539794921875,0.0009616711759008467,-0.0007330439984798431,0.000923521351069212
1773798271938503700,0.752503662109375,0.0015172341372817755,0.0006795609369874001,0.0014807344414293766
1773798271958467800,0.7724677734375,-0.00005581954610534012,0.0007517607882618904,0.00022353790700435638
1773798271978431700,0.792431640625,-0.0005335211753845215,-0.0014727178495377302,-0.000009748619049787521
1773798271998396000,0.81239599609375,0.0005624287878163159,-0.0013163406401872635,0.0004813061095774174
1773798272018360800,0.83236083984375,-0.0004287043702788651,-0.0007849866524338722,-0.0003223228268325329
1773798272038324700,0.85232470703125,0.00013831965043209493,-0.0008769319392740726,-0.0003772773779928684
1773798272058289000,0.872288818359375,0.0015837060054764152,-0.0004077961202710867,-0.0001688944175839424
1773798272078252800,0.892252685546875,-0.0005252083647064865,-0.0012520223390311003,0.0006365571171045303
1773798272098216700,0.912216796875,0.0010429627727717161,0.00007045408710837364,-0.0011392883025109768
1773798272118180900,0.932180908203125,-0.0007774244877509773,0.0006250429432839155,0.0007444210350513458
1773798272138146000,0.95214599609375,0.000021206127712503076,0.0005583553574979305,0.0000031068921089172363
1773798272158110000,0.97210986328125,-0.0003186478279531002,-0.0005378297064453363,0.0006910962983965874
1773798272178073900,0.992073974609375,0.00028991844737902284,-0.0005640999879688025,0.0008763968944549561
1773798272198037800,1.012037841796875,0.0009749950841069221,0.000008540693670511246,0.00024175457656383514
1773798272218002000,1.032001953125,0.0005316189490258694,-0.00010605808347463608,-0.0008507156744599342
1773798272237965800,1.0519658203125,0.0005363955860957503,-0.0007036670576781034,0.0007228818722069263
1773798272257929700,1.0719296875,-0.0005713648861274123,-0.0005823553074151278,0.000019366852939128876
1773798272277894700,1.091894775390625,-0.0004396947624627501,0.001136726001277566,0.00010751606896519661
1773798272297858800,1.11185888671875,-0.0004129208391532302,0.0005779890343546867,0.0007504248060286045
1773798272317823000,1.131822998046875,-0.00022429972887039185,0.000891887815669179,-0.0004906933754682541
1773798272337787000,1.151786865234375,0.00042507826583459973,0.0001702173613011837,0.0002471618354320526
1773798272357750800,1.171750732421875,-0.00023302173940464854,-0.00009775231592357159,-0.0005961665883660316
1773798272377715000,1.19171484375,0.000024265027604997158,-0.0009112099651247263,-0.0010246094316244125
1773798272397679900,1.211679931640625,0.0007847196538932621,-0.0009128155652433634,0.0013262066058814526
1773798272417643800,1.231643798828125,0.00019759879796765745,-0.0021407941821962595,0.001008473802357912
1773798272437607700,1.251607666015625,0.0016469249967485666,0.00032656476832926273,0.0004898807965219021
1773798272457571800,1.27157177734375,0.00031418821890838444,-0.00043457653373479843,-0.0006249146535992622
1773798272477535700,1.29153564453125,-0.00034289879840798676,0.00015734159387648106,-0.0010970751754939556
1773798272497499600,1.311499755859375,-0.0002887193695642054,0.0005476369988173246,-0.0002092905342578888
1773798272517463800,1.3314638671875,-0.0013364613987505436,-0.000014774501323699951,-0.0005944040603935719
1773798272537428700,1.3514287109375,-0.0004073604941368103,0.001737313810735941,-0.0007039476186037064
1773798272557393000,1.371392822265625,-0.00024044587917160243,-0.00020056474022567272,0.0009688334539532661
1773798272577356800,1.391356689453125,0.0006095482967793941,-0.000574811827391386,0.00106885377317667
1773798272597320700,1.41132080078125,0.00059269875055179,-0.0010845840442925692,0.0002945265732705593
1773798272617284900,1.431284912109375,0.0012675472535192966,-0.0004617378581315279,-0.0008110282942652702
1773798272637248800,1.451248779296875,-0.0009303323458880186,0.0006176347378641367,-0.0001047896221280098
1773798272657214200,1.471214111328125,-0.0004270001663826406,-0.0007550008594989777,0.0002327919937670231
1773798272677178000,1.49117822265625,0.0009579028701409698,-0.0004419053439050913,-0.00020163832232356071
1773798272697142000,1.51114208984375,-0.0008089544135145843,0.00021515367552638054,-0.0018479838036000729
1773798272717106200,1.531106201171875,-0.00012898826389573514,0.001260706689208746,0.000049530062824487686
1773798272737070000,1.551070068359375,-0.0008037596708163619,-0.0006039433646947145,0.0007327194325625896
1773798272757034000,1.571033935546875,-0.0011521209962666035,0.00024950155057013035,0.00022451486438512802
1773798272776998100,1.590998046875,-0.0007657802198082209,0.0010687857866287231,0.00038183853030204773
1773798272796963000,1.610963134765625,-0.0003629325074143708,0.0012887682532891631,-0.0009048408828675747
1773798272816927000,1.630927001953125,0.00075180409476161,-0.0009202377405017614,0.00008612126111984253
1773798272836891100,1.65089111328125,-0.001291754306294024,-0.00026323855854570866,0.0003695087507367134
1773798272856855000,1.67085498046875,-0.0008260686881840229,0.0008100764825940132,-0.0005326964892446995
1773798272876819200,1.690819091796875,-0.0006055060657672584,0.0002512603532522917,-0.0003113560378551483
1773798272896783000,1.710783203125,0.0007586351130157709,-0.0007389290258288383,-0.0008071786724030972
1773798272916748000,1.730748046875,0.0004273364902473986,0.000517962733283639,0.0014447537250816822
1773798272936712000,1.7507119140625,-0.00003458569699432701,0.0011329283006489277,-0.0008113309741020203
1773798272956676000,1.770676025390625,-0.0000015073019312694669,0.002035046461969614,-0.00030400510877370834
1773798272976640000,1.790639892578125,-0.0006970860413275659,0.0004222327843308449,0.00020034005865454674
1773798272996604000,1.81060400390625,-0.00067981390748173,-0.00021323631517589092,0.0003063259646296501
1773798273016568000,1.830568115234375,-0.00011794784222729504,0.0010564438998699188,0.0002659936435520649
1773798273036532200,1.8505322265625,-0.00038051677984185517,0.0003589342813938856,-0.0005692760460078716
1773798273056497200,1.8704970703125,-0.0007821174804121256,-0.00007347040809690952,-0.0006776247173547745
1773798273076461000,1.8904609375,0.00034224693081341684,0.00006632506847381592,0.0008660797029733658
1773798273096425000,1.910425048828125,-0.000019403232727199793,-0.001798019278794527,-0.002833546604961157
1773798273116389000,1.93038916015625,0.00011272303527221084,0.0022779435385018587,0.001500963233411312
1773798273136353000,1.95035302734375,-0.0010687580797821283,0.0010089213028550148,-0.002165516372770071
1773798273156317000,1.97031689453125,0.00005666198558174074,0.0008803068194538355,0.0009092725813388824
1773798273176281000,1.990281005859375,0.0022287548054009676,-0.0017580832354724407,0.000188478734344244
1773798273196246300,2.010246337890625,-0.00030628975946456194,0.0006609333213418722,0.0002431892789900303
1773798273216210200,2.030210205078125,0.0005049534956924617,0.0006187986582517624,-0.0006628753617405891
1773798273236174000,2.050174072265625,-0.000371729489415884,0.0005869495216757059,-0.000739535316824913
1773798273256138000,2.070137939453125,-0.0018316450295969844,0.0008224418852478266,-0.0004078284837305546
1773798273276102100,2.09010205078125,0.0008226522477343678,0.00043661193922162056,0.00033428706228733063
1773798273296066000,2.110066162109375,-0.001051229308359325,-0.00009480351582169533,-0.0005208100192248821
1773798273316030000,2.130030029296875,0.000033419273677282035,0.00045160064473748207,0.0006817919202148914
1773798273335995000,2.149994873046875,-0.00038395976298488677,0.00033547799102962017,-0.0006441525183618069
1773798273355959300,2.169959228515625,0.0006191555876284838,0.0002843155525624752,-0.0011746324598789215
1773798273375923200,2.189923095703125,0.000001956737833097577,-0.0004943851381540298,0.0006694230251014233
1773798273395887000,2.20988720703125,0.0010343171888962388,0.0011365397367626429,-0.0000941036269068718
1773798273415851000,2.22985107421875,-0.0005346254329197109,0.0011694676941260695,-0.0003998926840722561
1773798273435815200,2.249815185546875,-0.0020698413718491793,-0.0003744259011000395,-0.0013823332265019417
1773798273455779000,2.269779052734375,0.000820287736132741,0.0016497067408636212,-0.0002616629935801029
1773798273475744000,2.289743896484375,0.0002088027395075187,0.005517769604921341,-0.002406519837677479
1773798273495708000,2.3097080078125,0.0008595759863965213,-0.0013804500922560692,-0.0021468177437782288
1773798273515672000,2.329672119140625,0.00005018657248001546,-0.00826467014849186,0.00019508181139826775
1773798273535636000,2.349635986328125,-0.00045893335482105613,-0.002917882055044174,-0.0014319331385195255
1773798273555600100,2.36960009765625,0.00005275469447951764,0.0056702494621276855,0.0007799407467246056
1773798273575564000,2.38956396484375,0.00020871596643701196,0.004338752944022417,-0.0009836619719862938
1773798273595528200,2.409528076171875,-0.0004013204015791416,-0.002501916838809848,-0.00040409108623862267
1773798273615493000,2.4294931640625,-0.00003386958269402385,-0.0028529041446745396,-0.0009058350697159767
1773798273635457000,2.44945703125,-0.0006751207401975989,-0.002020898973569274,0.00039502279832959175
1773798273655421000,2.4694208984375,0.000002673594281077385,-0.0006847777403891087,0.0009442772716283798
1773798273675385000,2.489385009765625,0.00013909283734392375,0.0006272976752370596,-0.000640341080725193
1773798273695349000,2.509348876953125,-0.0014539705589413643,0.0007823375053703785,-0.00029172375798225403
1773798273715313000,2.52931298828125,-0.00027013200451619923,-0.000052273739129304886,-0.000047520268708467484
1773798273735277000,2.549277099609375,-0.0007320650620386004,-0.0016715570818632841,-0.000055267009884119034
1773798273755242000,2.569241943359375,0.0001924212701851502,-0.0018456969410181046,0.0012017511762678623
1773798273775206000,2.589205810546875,0.0005637325812131166,-0.00084082898683846,-0.0005805450491607189
1773798273795169800,2.609169677734375,-0.001336446963250637,0.0006565959192812443,-0.00003638630732893944
1773798273815134000,2.629134033203125,0.000614575226791203,-0.0001383037306368351,0.001992730889469385
1773798273835098000,2.64909814453125,0.00011590005306061357,0.0009346231818199158,0.00006290571764111519
1773798273855062000,2.66906201171875,-0.000003000604920089245,0.000005732756108045578,-0.0005705677904188633
1773798273875026000,2.68902587890625,0.0006205407553352416,-0.001025214558467269,-0.00014103390276432037
1773798273894990800,2.708990966796875,0.0014889200683683157,-0.001369274454191327,-0.0007719756104052067
1773798273914955000,2.728955078125,0.0004388876259326935,0.0007167935837060213,-0.00039321277290582657
1773798273934919000,2.7489189453125,0.00042869301978498697,0.0013412910047918558,0.0008752550929784775
1773798273954882800,2.7688828125,-0.0011517845559865236,-0.00022279378026723862,0.00041739828884601593
1773798273974846700,2.7888466796875,0.0008884657290764153,-0.0006728817243129015,-0.0012548179365694523
1773798273994811100,2.80881103515625,0.00035296191344968975,0.0008001707028597593,-0.0006071813404560089
1773798274014775000,2.828775146484375,-0.0011466731084510684,0.00033309892751276493,-0.000015916302800178528
1773798274034740000,2.848739990234375,-0.0017378026386722922,-0.00019512418657541275,-0.0008493890054523945
1773798274054703900,2.868703857421875,0.0009534586570225656,-0.002899486105889082,0.00014571892097592354
1773798274074668000,2.88866796875,0.0014527953462675214,-0.00026776385493576527,-0.0004607471637427807
1773798274094632000,2.9086318359375,0.00014100541011430323,0.0005295425653457642,0.000255826860666275
1773798274114595800,2.928595947265625,0.000013110489817336202,-0.0008853471372276545,0.0007966822013258934
1773798274134559700,2.948559814453125,0.0001410376571584493,-0.000893191434442997,0.001458571758121252
1773798274154524000,2.96852392578125,0.0010133886244148016,-0.00024627777747809887,-0.000920803751796484
1773798274174487800,2.98848779296875,-0.0006471308879554272,-0.0005225103814154863,-0.00002500554546713829
1773798274194453000,3.008452880859375,0.0004638949176296592,0.000680228928104043,0.00023438315838575363
1773798274214417000,3.0284169921875,-0.000817484688013792,0.00003525847569108009,-0.0002359882928431034
1773798274234381000,3.048381103515625,0.0002712997084017843,-0.000512510072439909,-0.0012452923692762852
1773798274254345000,3.068344970703125,0.00020142196444794536,0.00044266507029533386,0.00031025195494294167
1773798274274308900,3.088308837890625,-0.0015352212358266115,-0.0006659636273980141,-0.0003862357698380947
1773798274294273000,3.10827294921875,-0.0005565703613683581,-0.0009717792272567749,0.0005195890553295612
1773798274314237000,3.12823681640625,-0.00047665537567809224,0.00029661436565220356,0.0003735828213393688
1773798274334202000,3.1482021484375,-0.0002770686405710876,0.00048530264757573605,0.00015874207019805908
1773798274354166000,3.168166015625,-0.0014098779065534472,0.0009866124019026756,-0.0003477646969258785
1773798274374130000,3.1881298828125,0.00012336230429355055,-0.0001359370071440935,-0.0003552529960870743
1773798274394094000,3.208093994140625,-0.0003558234893716872,0.0007385483477264643,0.000680617056787014
1773798274414058000,3.22805810546875,0.0011685912031680346,0.0007524059619754553,-0.0008636643178761005
1773798274434022000,3.24802197265625,0.0001254333183169365,-0.00004342920146882534,0.00023633427917957306
1773798274453986000,3.267986083984375,0.0008913407800719142,0.0007414116989821196,0.0011292626149952412
1773798274473950000,3.287949951171875,0.00012506898201536387,0.0007330514490604401,0.0014814389869570732
1773798274493915000,3.307914794921875,0.0006524476921185851,-0.00023601925931870937,-0.0006716861389577389
1773798274513878800,3.327878662109375,0.0002644653432071209,-0.0000016475096344947815,0.0009030383080244064
1773798274533843000,3.347843017578125,-0.00029719219310209155,-0.0005998814012855291,0.0010677976533770561
1773798274553807000,3.36780712890625,0.0013268704060465097,0.00029293447732925415,0.0000627376139163971
1773798274573771000,3.38777099609375,-0.000708833453245461,0.0015433036023750901,-0.0011835531331598759
1773798274593735000,3.40773486328125,0.0006181916105560958,0.0011678347364068031,0.000548080075532198
1773798274613699000,3.427698974609375,-0.000817361637018621,0.00032287114299833775,0.0007224990986287594
1773798274633664000,3.4476640625,0.0002648704976309091,0.0002747317776083946,-0.0005835476331412792
1773798274653628000,3.4676279296875,0.0006900674197822809,-0.0009154879953712225,-0.0007870919071137905
1773798274673592000,3.487592041015625,0.001677206950262189,-0.00014988146722316742,0.0006843302398920059
1773798274693556000,3.507555908203125,-0.00007305905455723405,0.000520879402756691,0.0005930233746767044
1773798274713520000,3.52752001953125,-0.0001885522506199777,-0.00025984644889831543,-0.0001367568038403988
1773798274733484000,3.547484130859375,-0.00045423349365592003,0.0005330732092261314,-0.0011122552677989006
1773798274753448000,3.567447998046875,0.000217432199860923,0.00011220481246709824,0.0005398453213274479
1773798274773412000,3.587412109375,0.0003094706335105002,-0.00027510570362210274,-0.0007850853726267815
1773798274793377300,3.607377197265625,0.00023736819275654852,0.00009952159598469734,0.00007651513442397118
1773798274813341200,3.627341064453125,-0.0007509927381761372,-0.000622433377429843,-0.00011710403487086296
1773798274833305000,3.64730517578125,0.001041339710354805,-0.00012278486974537373,0.0003305780701339245
1773798274853269000,3.66726904296875,-0.00022330880165100098,-0.00023840880021452904,0.0000288449227809906
1773798274873233200,3.687233154296875,0.0003414677921682596,0.0006536180153489113,-0.0006051091477274895
1773798274893197000,3.707197021484375,0.00008469406748190522,0.0003563603386282921,-0.001080547459423542
1773798274913161000,3.727160888671875,0.0004178462259005755,0.0005714537110179663,-0.00021567940711975098
1773798274933125000,3.747125,0.00030418700771406293,-0.0003795607481151819,0.00040219584479928017
1773798274953090000,3.767090087890625,0.00002509920159354806,-0.0009986839722841978,0.0008190996013581753
1773798274973054200,3.78705419921875,-0.00022362731397151947,-0.001145344227552414,-0.00004387693479657173
1773798274993018000,3.80701806640625,0.0002974530216306448,0.0001555092167109251,0.0009544012136757374
1773798275012982000,3.82698193359375,0.0008071793126873672,0.00023931730538606644,-0.0006425254978239536
1773798275032946200,3.8469462890625,-0.0010449240216985345,0.00024005630984902382,0.00023754732683300972
1773798275052910000,3.86691015625,0.0011486714938655496,-0.00036925217136740685,-0.0003395490348339081
1773798275072874000,3.8868740234375,0.0009059539879672229,0.0005367931444197893,-0.0007237736135721207
1773798275092838100,3.906838134765625,0.0004444665974006057,0.00048371986486017704,0.0001524677500128746
1773798275112803000,3.926802978515625,0.000004302521119825542,0.00041183200664818287,-0.0012138532474637032
1773798275132767000,3.94676708984375,-0.00008969572081696242,0.00002684793435037136,0.0002604643814265728
1773798275152731100,3.966731201171875,-0.0010352511890232563,-0.00009846175089478493,-0.00158771313726902
1773798275172695000,3.986695068359375,0.0014546657912433147,-0.0002814582549035549,0.0003893277607858181
1773798275192659200,4.0066591796875,0.00042617289000190794,-0.00004845438525080681,-0.0005872058682143688
1773798275212623000,4.026623046875,-0.0003193687880411744,-0.000515469117090106,0.00023501552641391754
1773798275232587000,4.0465869140625,0.0005249804235063493,-0.0012840225826948881,0.0009896601550281048
1773798275252551200,4.06655126953125,-0.001052791136316955,0.00038019497878849506,-0.000910809263586998
1773798275272516000,4.08651611328125,0.0006626557442359626,-0.001091356622055173,-0.00047270581126213074
1773798275292480000,4.10647998046875,0.00033169714151881635,0.00003953487612307072,0.001405404880642891
1773798275312444000,4.12644384765625,-0.0016430013347417116,0.0004422897472977638,-0.0008519208058714867
1773798275332408000,4.146407958984375,-0.0016774992691352963,-0.0009131229016929865,-0.0002199583686888218
1773798275352372200,4.166372314453125,0.0003700316301546991,0.0005705072544515133,-0.0004840227775275707
1773798275372336000,4.186336181640625,-0.00020805501844733953,0.0001537033822387457,0.0011057304218411446
1773798275392300000,4.206300048828125,-0.0004465598030947149,-0.0001917690970003605,0.001975086983293295
1773798275412264200,4.22626416015625,-0.00002251635305583477,0.00013852771371603012,0.000705962534993887
1773798275432229000,4.24622900390625,-0.0005224731285125017,-0.00004404108040034771,-0.0004884954541921616
1773798275452193000,4.266193115234375,-0.00003652927989605814,-0.00010035419836640358,0.00088117690756917
1773798275472157000,4.286156982421875,0.0003934492124244571,-0.00006174668669700623,-0.0006766533479094505
1773798275492121000,4.30612109375,-0.0009463529568165541,0.00012060767039656639,0.00036533502861857414
1773798275512085000,4.3260849609375,-0.0008267688099294901,-0.0007826541550457478,-0.00007772259414196014
1773798275532049200,4.346049072265625,-0.0008184313774108887,0.0013675341615453362,0.0007817866280674934
1773798275552013000,4.366012939453125,0.0002497822279110551,-0.00046441657468676567,-0.00047537684440612793
1773798275571977200,4.385977294921875,0.0008447025320492685,0.000049448804929852486,0.0007561095990240574
1773798275591941000,4.405941162109375,-0.002009100280702114,0.000546283321455121,-0.0005726595409214497
1773798275611906000,4.425906005859375,-0.000829557713586837,-0.0003704824484884739,0.0014241584576666355
1773798275631870000,4.445869873046875,-0.000730528961867094,-0.00024138973094522953,0.0010467860847711563
1773798275651834000,4.465834228515625,0.0008154505048878491,0.0001305870246142149,0.0012220260687172413
1773798275671797800,4.4857978515625,-0.000476606423035264,-0.0006368621252477169,0.0007935445755720139
1773798275691761700,4.50576171875,0.0005806967383250594,-0.0006261547096073627,-0.0010814126580953598
1773798275711725800,4.525725830078125,-0.0009122196934185922,0.0013562431558966637,0.001007630955427885
1773798275731689700,4.545689697265625,0.00019215818610973656,-0.0004020861815661192,0.0006818119436502457
1773798275751653600,4.565653564453125,-0.0011140534188598394,-0.00039723957888782024,-0.0009501525200903416
1773798275771618600,4.58561865234375,0.00105267483741045,0.00005602370947599411,0.0003396328538656235
1773798275791582500,4.60558251953125,-0.00003936102439183742,0.0000671125017106533,0.0018395408987998962
1773798275811547000,4.625546875,0.000927628600038588,0.0002694297581911087,-0.00035380804911255836
1773798275831510800,4.6455107421875,-0.0006410609930753708,-0.000067075714468956,-0.0006531649269163609
1773798275851474700,4.665474609375,-0.001026279293000698,0.00018140464089810848,0.0007051266729831696
1773798275871438800,4.68543896484375,0.00010760802251752466,-0.0007938072085380554,-0.0012830132618546486
1773798275891402800,4.70540283203125,0.0013535255566239357,-0.00024112407118082047,0.0011050528846681118
1773798275911366700,4.72536669921875,-0.000045740423956885934,0.00032950518652796745,-0.0015117884613573551
1773798275931330600,4.74533056640625,0.0007105587283149362,0.000056324293836951256,0.0001330627128481865
1773798275951295500,4.76529541015625,-0.0007829272653907537,0.00019582407549023628,-0.00019304268062114716
1773798275971259600,4.785259765625,0.0002118134725606069,0.00011190003715455532,0.001249041873961687
1773798275991223600,4.8052236328125,0.0007417762535624206,0.0008775563910603523,-0.00100352568551898
1773798276011187700,4.825187744140625,-0.0007408398669213057,-0.0006490820087492466,0.0004776138812303543
1773798276031151900,4.84515185546875,-0.0015534460544586182,0.0006020902656018734,-0.0008127344772219658
1773798276051115800,4.86511572265625,0.00038830642006359994,0.0006302662659436464,-0.00015487195923924446
1773798276071079700,4.88507958984375,0.00047567294677719474,0.00026657991111278534,-0.00017875898629426956
1773798276091043600,4.905043701171875,0.0004703627491835505,-0.000043442705646157265,0.0009941793978214264
1773798276111007700,4.9250078125,-0.00011088969768024981,-0.00024316459894180298,-0.001776677556335926
1773798276130972700,4.94497265625,0.00027608696836978197,-0.0002370972651988268,0.0008032107725739479
1773798276150936600,4.9649365234375,0.00036825091228820384,-0.0005876040086150169,0.0005233041010797024
1773798276170900500,4.984900390625,-0.0003728600568138063,-0.00046710087917745113,-0.0005960785783827305
1773798276190865000,5.004864990234375,0.0000026676570996642113,0.0006812156643718481,-0.0016535832546651363
1773798276210828800,5.024828857421875,-0.000015107099898159504,-0.0014993445947766304,0.00021309498697519302
1773798276230792700,5.044792724609375,-0.0008733249269425869,0.0005810228176414967,-0.0000871066004037857
1773798276250756900,5.0647568359375,-0.00036025838926434517,-0.0008461256511509418,-0.0006644520908594131
1773798276270720800,5.084720703125,-0.0003432651574257761,0.000877095852047205,0.001823856495320797
1773798276290685700,5.104685791015625,0.0007751240627840161,-0.0013355165719985962,-0.0004265890456736088
1773798276310649600,5.124649658203125,0.00048325536772608757,-0.00029005017131567,-0.0008186735212802887
1773798276330613500,5.144613525390625,0.0000787711760494858,0.00022431113757193089,-0.00035846931859850883
1773798276350577700,5.16457763671875,0.0005945219891145825,0.0011522609274834394,0.0007763896137475967
1773798276370541600,5.18454150390625,0.000059144411352463067,0.001175545621663332,0.00011027883738279343
1773798276390505700,5.204505615234375,0.0007125767297111452,-0.0006050132215023041,-0.00020233122631907463
1773798276410470000,5.224469970703125,-0.0005291237030178308,-0.00046201329678297043,0.0006126333028078079
1773798276430433800,5.244433837890625,-0.0002576551923993975,-0.0001862070057541132,-0.00008992990478873253
1773798276450397700,5.264397705078125,0.000816972169559449,0.0011130624916404486,-0.0007690191268920898
1773798276470362600,5.284362548828125,-0.0003681239322759211,0.0007459772750735283,0.0006937659345567226
1773798276490326500,5.304326416015625,-0.0002317774633411318,-0.0003103506751358509,0.0004508751444518566
1773798276510290700,5.324290771484375,0.0013214444043114781,0.0005858838558197021,0.0006951075047254562
1773798276530254600,5.344254638671875,-0.00006964401109144092,-0.0010509726125746965,0.0003558723255991936
1773798276550218500,5.364218505859375,-0.000616194331087172,-0.0009315698407590389,0.0008864281699061394
1773798276570183000,5.384182861328125,0.0007826884975656867,-0.0012187771499156952,0.00010553048923611641
1773798276590146800,5.404146728515625,-0.0011747584212571383,-0.00016517005860805511,-0.0010223360732197762
1773798276610110700,5.42411083984375,0.0007571566384285688,-0.0015660671051591635,0.0015977434813976288
1773798276630074600,5.44407470703125,-0.0003357294772285968,-0.0008891753386706114,-0.0005099647678434849
1773798276650038800,5.464038818359375,-0.0005551163922064006,0.0011741018388420343,-0.00011875899508595467
1773798276670003200,5.484003173828125,0.0004601675900630653,-0.0006302259862422943,-0.0012125447392463684
1773798276689967000,5.503967041015625,-0.0008262720075435936,-0.000583764398470521,-0.0006066146306693554
1773798276709931000,5.523930908203125,-0.0006515348213724792,-0.00011756899766623974,-0.0008249697275459766
1773798276729895200,5.543895263671875,-0.0016656358493492007,-0.0000710231252014637,-0.0005477601662278175
1773798276749859000,5.563859130859375,0.000025670189643278718,0.0014023617841303349,-0.000008621253073215485
1773798276769823000,5.583822998046875,0.0012204052181914449,0.001076818909496069,-0.00037741241976618767
1773798276789787400,5.603787353515625,0.00062023033387959,-0.0001015982124954462,-0.000009668059647083282
1773798276809751300,5.623751220703125,-0.0007032549474388361,-0.0005319204647094011,-0.000008464790880680084
1773798276829715200,5.643715087890625,0.0005137472180649638,0.00176749168895185,0.00041453028097748756
1773798276849680100,5.66368017578125,-0.0007360553136095405,0.0005082357674837112,-0.0005694902502000332
1773798276869644300,5.683644287109375,-0.00003746722359210253,0.0016244797734543681,0.0007528807036578655
1773798276889608200,5.703608154296875,-0.0007009187247604132,0.00004252535291016102,-0.0008104098960757256
1773798276909572000,5.723572021484375,0.000881971325725317,-0.00015203282237052917,0.0009719417430460453
1773798276929536000,5.743535888671875,0.00030413639615289867,0.0003929855301976204,-0.0005955304950475693
1773798276949500200,5.763500244140625,0.0007854358409531415,0.0002561206929385662,0.0010409806855022907
1773798276969464300,5.78346435546875,-0.00033980878652073443,-0.0001302831806242466,-0.001439712941646576
1773798276989428200,5.80342822265625,0.001975539606064558,0.0005392895545810461,0.0011389506980776787
1773798277009392400,5.823392333984375,-0.002081000478938222,-0.0013627633452415466,0.00009795930236577988
1773798277029357300,5.843357421875,0.00042095122626051307,-0.0007470410782843828,0.000006983056664466858
1773798277049321200,5.8633212890625,0.0002221901377197355,-0.00037605082616209984,-0.0004212222993373871
1773798277069285000,5.88328515625,0.0010207692394033074,-0.0007041322533041239,0.0008285697549581528
1773798277089249000,5.9032490234375,-0.0012031156802549958,0.000007641268894076347,0.0009352900087833405
1773798277109213200,5.923213134765625,0.00007502341759391129,-0.00015161512419581413,-0.0013014394789934158
1773798277129177000,5.943177001953125,0.0002878745144698769,0.001594056375324726,-0.0007860446348786354
1773798277149141000,5.96314111328125,0.0005434637423604727,-0.0010173243936151266,-0.0009004920721054077
1773798277169105400,5.98310546875,-0.0005689753452315927,-0.00045243301428854465,-0.001216944307088852
1773798277189069300,6.0030693359375,0.000018274644389748573,-0.00023462017998099327,-0.0003786403685808182
1773798277209033200,6.023033203125,0.000932818278670311,-0.0006030520889908075,0.0015418948605656624
1773798277228998100,6.042998046875,0.00007422496855724603,0.00023216987028717995,0.0002612648531794548
1773798277248962000,6.062962158203125,0.00034812837839126587,0.0008170248474925756,0.0008584624156355858
1773798277268926200,6.08292626953125,0.0007017228635959327,-0.0007348859217017889,0.0006457604467868805
1773798277288890000,6.10289013671875,0.0006768614985048771,0.00015218858607113361,0.00044882064685225487
1773798277308854000,6.12285400390625,-0.0007893345318734646,0.00047986116260290146,0.00029681529849767685
1773798277328818200,6.142818115234375,-0.00017780880443751812,0.0001090862788259983,0.00002149585634469986
1773798277348782300,6.1627822265625,-0.00023482792312279344,-0.00004632631316781044,0.0006214655004441738
1773798277368746200,6.182746337890625,-0.00014518611715175211,-0.00027189310640096664,-0.0004768911749124527
1773798277388710100,6.202710205078125,0.00008686156070325524,0.00020345859229564667,0.00015635602176189423
1773798277408674300,6.22267431640625,0.00010930276766885072,-0.0004954151809215546,0.001540114637464285
1773798277428638200,6.24263818359375,0.0003461613960098475,0.00007699034176766872,0.0012577762827277184
1773798277448603100,6.26260302734375,0.0013392081018537283,0.0006004681345075369,-0.001177697442471981
1773798277468567000,6.282567138671875,0.0007985049742273986,-0.00109528424218297,0.0001742066815495491
1773798277488531200,6.30253125,0.0005754915764555335,-0.00013607856817543507,-0.0002783029340207577
1773798277508495000,6.3224951171875,0.00026172975776717067,0.00026909587904810905,0.00020866096019744873
1773798277528459000,6.342458984375,-0.00004645615990739316,0.0004860323388129473,0.00037268921732902527
1773798277548423200,6.362423095703125,-0.0022917466703802347,0.000289273913949728,-0.0004263725131750107
1773798277568387300,6.38238720703125,0.0004468312254175544,0.00010240520350635052,-0.00040457211434841156
1773798277588351200,6.402351318359375,-0.0012099554296582937,0.00043224217370152473,-0.0009717731736600399
1773798277608315100,6.422315185546875,0.0010619171662256122,0.0004143964033573866,-0.000540862325578928
1773798277628279300,6.442279296875,0.0002503943396732211,-0.0008270393591374159,0.0005814335308969021
1773798277648244200,6.462244140625,-0.0010720009449869394,-0.0003326251171529293,-0.001425599679350853
1773798277668208400,6.48220849609375,-0.001078543602488935,-0.0008094008080661297,0.001673075370490551
1773798277688172300,6.50217236328125,0.0005557429976761341,0.00014965026639401913,0.0003187209367752075
1773798277708136400,6.522136474609375,-0.0011924917344003916,-0.000142629723995924,-0.0009402292780578136
1773798277728100400,6.542100341796875,0.0004453665460459888,0.0004337246064096689,0.0001704031601548195
1773798277748064300,6.562064208984375,-0.001257798750884831,0.00031010410748422146,0.00003239233046770096
1773798277768028200,6.582028076171875,0.0002565356553532183,0.00014280318282544613,-0.0005095275118947029
1773798277787992300,6.601992431640625,-0.00033501244615763426,-0.0000037278514355421066,0.0005471683107316494
1773798277807956200,6.621956298828125,0.0008184792823158205,0.0001124704722315073,0.0002200724557042122
1773798277827920100,6.641920166015625,-0.0013463229406625032,-0.00013415631838142872,-0.00017161015421152115
1773798277847885300,6.66188525390625,-0.0008958421531133354,-0.00022429926320910454,-0.00027996674180030823
1773798277867849500,6.681849365234375,-0.00035329346428625286,0.0005879821255803108,0.0004973877221345901
1773798277887813400,6.7018134765625,-0.0014346332754939795,0.0005661167670041323,-0.0015423945151269436
1773798277907777300,6.72177734375,0.00007529281720053405,0.000015661120414733887,0.0014095432125031948
1773798277927741200,6.7417412109375,0.0011181687004864216,0.0005223678890615702,-0.001410363707691431
1773798277947705300,6.761705322265625,0.001655838219448924,0.0009680460207164288,0.0003493111580610275
1773798277967669200,6.781669189453125,0.0009435269748792052,0.0012431376380845904,-0.00019104406237602234
1773798277987633200,6.801633056640625,0.0008770609856583178,-0.00006126891821622849,0.0005651572719216347
1773798278007597300,6.821597412109375,0.0006006785552017391,-0.0012239939533174038,-0.0009176046587526798
1773798278027561500,6.8415615234375,0.00028141820803284645,-0.0003458478022366762,0.00017007673159241676
1773798278047525400,6.861525390625,-0.0019010514952242374,-0.0009213348384946585,0.0005634855479001999
1773798278067489300,6.8814892578125,0.0010271272622048855,-0.001279687974601984,0.0008887746371328831
1773798278087454200,6.9014541015625,-0.0016189153539016843,-0.0006377191748470068,-0.0007664649747312069
1773798278107418400,6.92141845703125,-0.001267394982278347,-0.00042381277307868004,-0.00035199522972106934
1773798278127382300,6.94138232421875,0.00008945554145611823,-0.0012028433848172426,0.0010930649004876614
1773798278147346200,6.96134619140625,-0.0003289167652837932,0.0005812521558254957,0.0009534470736980438
1773798278167310300,6.981310302734375,-0.0011412095045670867,-0.0003917776048183441,-0.0011982214637100697
1773798278187274200,7.001274169921875,-0.00031384656904265285,0.00033854320645332336,-0.00009025121107697487
1773798278207238100,7.021238037109375,0.0006903756875544786,-0.0017459308728575706,0.00040135905146598816
1773798278227202300,7.041202392578125,-0.0001180831459350884,0.000509846955537796,-0.00002930406481027603
1773798278247166500,7.06116650390625,0.00029285650816746056,-0.00020511518232524395,-0.00121227465569973
1773798278267130400,7.08113037109375,-0.0005276431911624968,0.0011975117959082127,0.000011997297406196594
1773798278287094300,7.10109423828125,0.0015075517585501075,0.0017324916552752256,0.0003968789242208004
1773798278307059200,7.12105908203125,0.0008508417522534728,-0.0008202039171010256,-0.00039726635441184044
1773798278327023400,7.1410234375,-0.001147241098806262,-0.0023961758706718683,-0.00032898131757974625
1773798278346987300,7.1609873046875,0.000028472888516262174,0.00034196674823760986,0.0014508320018649101
1773798278366951200,7.180951171875,0.0018847386818379164,0.00096095260232687,-0.002055938821285963
1773798278386915300,7.200915283203125,0.0001241949066752568,-0.00015436834655702114,-0.000036718323826789856
1773798278406879500,7.22087939453125,0.0008014611667022109,-0.00015502097085118294,-0.0008949227631092072
1773798278426843400,7.240843505859375,0.0009762638946995139,-0.0016382578760385513,-0.0008390508592128754
1773798278446807300,7.260807373046875,0.0005894273053854704,-0.0002879712264984846,-0.001103544607758522
1773798278466771500,7.280771484375,0.0012660736683756113,0.00044863205403089523,0.000029206741601228714
1773798278486735400,7.3007353515625,0.0015097933355718851,0.00005556084215641022,0.0008049821481108665
1773798278506699300,7.32069921875,0.00015813055506441742,0.0016411473043262959,0.0012197932228446007
1773798278526663400,7.340663330078125,0.0010387281654402614,0.001140321372076869,-0.0002462225966155529
1773798278546628400,7.36062841796875,-0.00007715824176557362,0.0002471376210451126,0.001053367741405964
1773798278566592300,7.38059228515625,-0.0016971091972663999,-0.0007465973030775785,0.0007925108075141907
1773798278586556400,7.400556396484375,-0.0010034317383542657,0.000422133831307292,-0.0006173513829708099
1773798278606520300,7.420520263671875,-0.00044439465273171663,-0.0010850306134670973,-0.0004086713306605816
1773798278626484500,7.440484375,0.0007168659940361977,-0.0003589449916034937,0.000347828958183527
1773798278646448400,7.460448486328125,-0.0010659340769052505,0.00041893566958606243,-0.00011290796101093292
1773798278666412300,7.480412353515625,-0.0005653260741382837,-0.0003518455196171999,-0.0003597377799451351
1773798278686376400,7.50037646484375,-0.0014976314269006252,-0.0006650639697909355,0.00027159275487065315
1773798278706340400,7.52034033203125,0.0007362503092736006,-0.00004850071854889393,-0.00000536162406206131
1773798278726304300,7.54030419921875,-0.00009316549403592944,-0.00013825134374201298,-0.0008368152193725109
1773798278746268200,7.56026806640625,0.00017614396347198635,-0.0016332690138369799,0.0007108715362846851
1773798278766232300,7.580232421875,0.0015233970480039716,-0.0000970193650573492,0.0006726155988872051
1773798278786197500,7.600197509765625,-0.00140686787199229,-0.00008105020970106125,0.000675709918141365
1773798278806161400,7.620161376953125,0.0016711108619347215,-0.0005834586918354034,-0.00048016663640737534
1773798278826125300,7.640125244140625,0.0007762127788737416,-0.00045607518404722214,0.0004422692582011223
1773798278846089500,7.66008935546875,-0.0009045789483934641,0.0007124822586774826,0.00006140954792499542
1773798278866053400,7.680053466796875,-0.0005522611318156123,-0.0004508914425969124,-0.0005134465172886848
1773798278886017300,7.700017333984375,0.0013965476537123322,0.00041197449900209904,0.0001708613708615303
1773798278905981200,7.719981201171875,0.0009367424063384533,-0.00018629617989063263,-0.0009354311041533947
1773798278925945300,7.7399453125,-0.0008639198495075107,-0.0003393169026821852,0.0008496479131281376
1773798278945909200,7.7599091796875,-0.00163792516104877,0.000614626333117485,0.000822567380964756
1773798278965873200,7.779873046875,0.00020348782709334046,0.000017881160601973534,0.0005284040234982967
1773798278985837300,7.79983740234375,0.0004077429184690118,-0.0014273072592914104,0.0005984469316899776
1773798279005801200,7.81980126953125,-0.000056802702601999044,-0.0005850940942764282,0.00007891980931162834
1773798279025765400,7.839765380859375,-0.00025195718626491725,-0.00004877476021647453,0.000052002258598804474
1773798279045730300,7.859730224609375,0.00021395416115410626,0.00013064686208963394,0.0003125653602182865
1773798279065694200,7.879694091796875,-0.0017801426583901048,0.0000603280495852232,-0.00008777622133493423
1773798279085658400,7.899658447265625,0.0008440461242571473,-0.000160508556291461,-0.0010173749178647995
1773798279105622300,7.919622314453125,-0.00007754424586892128,-0.00022587133571505547,0.001126335933804512
1773798279125586200,7.939586181640625,-0.0001429493713658303,0.00008760858327150345,-0.0003717420622706413
1773798279145550300,7.95955029296875,-0.00043348839972168207,0.00009971088729798794,0.00021369988098740578
1773798279165514200,7.97951416015625,0.00000567277311347425,0.0010860259644687176,0.00008548004552721977
1773798279185478100,7.99947802734375,0.0011407958809286356,0.0001810891553759575,-0.0002454454079270363
1773798279205442300,8.0194423828125,0.001058864057995379,0.00015559233725070953,0.0000473950058221817
1773798279225406500,8.039406494140625,0.000306751171592623,-0.0010091930162161589,-0.0003101406618952751
1773798279245370400,8.059370361328124,0.0004038430342916399,0.00016211881302297115,0.00034600403159856796
1773798279265334300,8.079334228515625,-0.00026681830058805645,0.001132457284256816,-0.0008465023711323738
1773798279285298400,8.09929833984375,0.00004024384543299675,-0.00033278483897447586,-0.000984889455139637
1773798279305263400,8.119263427734374,0.0008348004776053131,-0.0003361860290169716,0.0006884532049298286
1773798279325227300,8.139227294921875,0.0009355174261145294,0.0008257264271378517,-0.0002074679359793663
1773798279345191200,8.159191162109375,0.0007573406910523772,0.0011139847338199615,0.0003293883055448532
1773798279365155300,8.1791552734375,0.00021396778174676,-0.0013764349278062582,0.00032751867547631264
1773798279385119200,8.199119140625,0.00012039623106829822,0.00006497837603092194,0.0006696521304547787
1773798279405083400,8.21908349609375,0.00008893790072761476,-0.000682861777022481,0.0009883088059723377
1773798279425047300,8.23904736328125,0.0001917617191793397,0.00023482320830225945,-0.0010631498880684376
1773798279445011500,8.259011474609375,-0.00011565512977540493,0.0004606577567756176,-0.0014684954658150673
1773798279464975400,8.278975341796874,-0.0014645322225987911,0.0007847636006772518,0.0017025424167513847
1773798279484939300,8.298939208984375,-0.0010549385333433747,-0.0002441760152578354,0.00023717014119029045
1773798279504903400,8.3189033203125,0.00024526557535864413,-0.00003955443389713764,0.00005710264667868614
1773798279524867300,8.338867431640624,-0.0005894897622056305,0.00025806925259530544,-0.00023278454318642616
1773798279544831200,8.358831298828125,-0.0004923860542476177,0.00013075652532279491,-0.00010878173634409904
1773798279564795100,8.378795166015625,-0.0008182267192751169,0.0010500771459192038,-0.0012375297956168652
1773798279584759300,8.39875927734375,-0.0012220183853060007,0.0009685039985924959,-0.0000314321368932724
1773798279604724500,8.418724365234375,-0.0008281641639769077,0.0016004794742912054,0.00016736937686800957
1773798279624688400,8.4386884765625,0.00039194896817207336,0.00022506876848638058,0.0012429631315171719
1773798279644652300,8.45865234375,0.00145722774323076,0.0010604513809084892,-0.0000016707926988601685
1773798279664616000,8.478615966796875,0.0009125791839323938,0.0017856095219030976,-0.00025706738233566284
1773798279684579800,8.498579833984374,-0.00011320074554532766,-0.0005371521692723036,-0.0005975537933409214
1773798279704543700,8.518543701171875,-0.00043779524276033044,-0.00040446268394589424,-0.0015400387346744537
1773798279724508000,8.5385078125,0.000828418240416795,0.0006930963136255741,0.000996425747871399
1773798279744471800,8.558471923828124,0.0003548594540916383,-0.0002625600900501013,-0.0013135746121406555
1773798279764435700,8.578435791015625,0.000544245820492506,-0.00007335632108151913,0.0001589716412127018
1773798279784400000,8.59839990234375,-0.0003859869029838592,-0.0000642719678580761,-0.0004203552380204201
1773798279804364000,8.618364013671876,0.000795792497228831,0.00019147712737321854,0.0012054885737597942
1773798279824328000,8.638327880859375,-0.000411254441132769,0.00030217599123716354,0.00035432586446404457
1773798279844291800,8.658291748046874,-0.0010754631366580725,0.0009462416637688875,0.0010469607077538967
1773798279864256000,8.678256103515626,0.0003110200341325253,0.0010060165077447891,0.00035702669993042946
1773798279884220000,8.698219970703125,-0.0004711104847956449,-0.0008372326847165823,0.00026275962591171265
1773798279904184800,8.718184814453124,0.00022982072550803423,-0.0005256037693470716,0.0005583777092397213
1773798279924148700,8.738148681640626,-0.0005462986882776022,-0.00013231812044978142,-0.00048443209379911423
1773798279944113000,8.75811279296875,0.0012018972774967551,-0.00032397196628153324,-0.0012822621501982212
1773798279964076800,8.778076904296874,-0.0013040300691500306,-0.00036970898509025574,-0.0007181190885603428
1773798279984041000,8.798041015625,0.00024842715356498957,-0.0005849623121321201,0.00020483043044805527
1773798280004004900,8.8180048828125,-0.0002498107496649027,-0.0013169690500944853,0.0005105901509523392
1773798280023969000,8.837968994140626,-0.000026379828341305256,0.00038528931327164173,-0.00024720141664147377
1773798280043933000,8.857932861328125,-0.00026127995806746185,0.00027574971318244934,-0.00009006727486848831
1773798280063896800,8.877896728515625,-0.0003327172598801553,0.00011016428470611572,0.0008978461846709251
1773798280083861000,8.897861083984376,-0.0008975460659712553,-0.0005909793544560671,-0.0000533335842192173
1773798280103825000,8.917824951171875,-0.0011724184732884169,-0.000986352562904358,0.00020644394680857658
1773798280123788800,8.937788818359374,0.0008658412843942642,-0.0003598721232265234,-0.0005980446003377438
1773798280143752700,8.957752685546875,0.00008632995013613254,-0.00035637151449918747,-0.000006525777280330658
1773798280163716900,8.977716796875,0.0019092699512839317,0.000491660088300705,0.0001638750545680523
1773798280183680800,8.9976806640625,0.0013235665392130613,-0.0006206515245139599,0.00014565559104084969
1773798280203646000,9.01764599609375,-0.0003111160476692021,0.00019164779223501682,-0.0012744567357003689
1773798280223609900,9.03760986328125,0.00032075203489512205,0.0015132772969081998,0.0005942382849752903
1773798280243574000,9.057573974609374,-0.0003479394654277712,0.00010277703404426575,-0.00005435477942228317
1773798280263538000,9.077537841796875,0.0009596376330591738,-0.00019037025049328804,0.0002532065846025944
1773798280283501800,9.097501708984375,0.0002639708109200001,-0.0013631463516503572,-0.00040356628596782684
1773798280303465700,9.1174658203125,-0.0006977760931476951,-0.0000739837996661663,0.00003790762275457382
1773798280323430000,9.137429931640625,-0.0007114375475794077,0.00009171315468847752,-0.0024062050506472588
1773798280343393800,9.157393798828124,0.0005638684378936887,0.0003116901498287916,0.0011676079593598843
1773798280363357700,9.177357666015626,-0.0007997773354873061,-0.0004119887016713619,-0.0004061018116772175
1773798280383321900,9.19732177734375,0.0006098668090999126,0.0009194428566843271,0.0014078500680625439
1773798280403285800,9.21728564453125,-0.0011062102857977152,-0.000542977824807167,0.00014643091708421707
1773798280423250000,9.23725,0.0011992532527074218,0.0003266774583607912,0.0003038807772099972
1773798280443213800,9.2572138671875,-0.00039899221155792475,0.00018664076924324036,0.0003245733678340912
1773798280463178000,9.277177978515626,0.00006608229887206107,-0.0006995643489062786,0.0005816635675728321
1773798280483142000,9.297141845703125,0.000020722116460092366,-0.0009688439313322306,0.0001657470129430294
1773798280503105800,9.317105712890625,0.00013256724923849106,-0.0009131375700235367,-0.00018359674140810966
1773798280523070000,9.337070068359376,0.00017364666564390063,0.0006697596982121468,-0.0002905065193772316
1773798280543033900,9.357033935546875,0.00038185546873137355,-0.00022661895491182804,-0.000008690636605024338
1773798280562998800,9.376998779296875,-0.0010761830490082502,-0.00018037622794508934,0.000007623340934514999
1773798280582962700,9.396962646484376,0.0015874969540163875,-0.00003337394446134567,-0.00019639218226075172
1773798280602926800,9.4169267578125,0.0006573675200343132,0.0006132225971668959,-0.0001698504202067852
1773798280622891000,9.43689111328125,0.0009722546674311161,-0.0004539641086012125,-0.0014579808339476585
1773798280642855000,9.45685498046875,0.00003944594936911017,0.000932666938751936,-0.0006329696625471115
1773798280662819800,9.47681982421875,-0.00047844505752436817,-0.0002967480104416609,0.001736531499773264
1773798280682783700,9.49678369140625,0.0008201680611819029,-0.0005817529745399952,-0.00021317554637789726
1773798280702748000,9.516747802734375,-0.0005549304187297821,-0.00029500690288841724,-0.0005903919227421284
1773798280722711800,9.5367119140625,0.00013219888205640018,0.0005004745908081532,0.00047351792454719543
1773798280742675700,9.55667578125,0.0007892706780694425,0.00009979144670069218,-0.0014186021871864796
1773798280762640000,9.576639892578125,0.00003655737964436412,-0.00009118323214352131,0.0002462761476635933
1773798280782603800,9.596603759765625,-0.0017904248088598251,-0.0014289747923612595,-0.0006591351702809334
1773798280802567700,9.616567626953126,0.00012053322279825807,-0.0007997225038707256,0.0011674189008772373
1773798280822531600,9.636531494140625,-0.0015413089422509074,0.0005399060901254416,-0.0016933144070208073
1773798280842496000,9.65649609375,0.0006142061902210116,0.00035837828181684017,0.0010445457883179188
1773798280862460000,9.6764599609375,0.0006442680605687201,0.00018540723249316216,0.00031609833240509033
1773798280882423800,9.696423828125,-0.0012268864084035158,-0.0000960417091846466,-0.00013680709525942802
1773798280902388000,9.716387939453124,0.0005159173160791397,-0.0007089525461196899,0.00027621956542134285
1773798280922353000,9.736352783203126,0.0010538261849433184,0.0008148758206516504,0.0014010719023644924
1773798280942316800,9.75631689453125,-0.00013817597937304527,-0.0003258613869547844,-0.00005075009539723396
1773798280962280700,9.77628076171875,-0.0012458963319659233,-0.000037365127354860306,0.0007199342362582684
1773798280982244600,9.79624462890625,0.00013608775043394417,0.0006146593950688839,-0.0004198141396045685
1773798281002208800,9.816208740234375,0.0004501049406826496,-0.0003918700385838747,-0.0001796279102563858
1773798281022173000,9.8361728515625,0.001324113574810326,0.0005077768582850695,0.0009279991500079632
1773798281042136800,9.85613671875,-0.000304156361380592,0.00015895627439022064,0.001092581544071436
1773798281062101000,9.87610107421875,0.0008481370168738067,-0.00042520975694060326,-0.00009121466428041458
1773798281082065000,9.89606494140625,0.0007870355620980263,0.00013470486737787724,-0.0006386023014783859
1773798281102028800,9.91602880859375,0.0002374078321736306,0.0002661410253494978,-0.00064042117446661
1773798281121992700,9.93599267578125,0.0004144319682382047,-0.0015319492667913437,0.0001287618651986122
1773798281141956900,9.955956787109375,-0.00012624426744878292,-0.000016462057828903198,0.0008744383230805397
1773798281161920800,9.975920654296875,-0.0006983449566178024,-0.00037015252746641636,-0.0005370210856199265
1773798281181884700,9.995884765625,-0.00033801328390836716,0.0007541924715042114,-0.00029115891084074974
1773798281201848800,10.015848876953125,-0.0008595989784225821,0.0011738466564565897,-0.0002944660373032093
1773798281221812700,10.035812744140625,-0.0008385159308090806,0.0005183680914342403,-0.0001920228824019432
1773798281241776600,10.055776611328126,-0.000002329994458705187,0.0002803876996040344,0.0004999237135052681
1773798281261740800,10.07574072265625,-0.0009892418747767806,0.0007463851943612099,-0.00031266920268535614
1773798281281705000,10.095705078125,0.0014108357718214393,0.00008339527994394302,0.0008084545843303204
1773798281301668900,10.1156689453125,-0.0003887330531142652,0.0004950729198753834,0.0009098509326577187
1773798281321633800,10.1356337890625,0.00011314201401546597,-0.000037703895941376686,0.00040062423795461655
1773798281341597700,10.15559765625,0.00017313502030447125,0.00009986269287765026,0.0006666779518127441
1773798281361561900,10.175561767578126,-0.00006107594526838511,0.000435840105637908,0.0014242352917790413
1773798281381525800,10.19552587890625,-0.00015082016761880368,-0.0002329670824110508,-0.0007836869917809963
1773798281401489700,10.21548974609375,-0.0012542910408228636,0.0005747363902628422,0.000544785987585783
1773798281421453800,10.235453857421875,0.0006892959354445338,0.0005641179159283638,-0.0014286837540566921
1773798281441418000,10.25541796875,-0.00024453169316984713,0.0011630724184215069,-0.00018902402371168137
1773798281461382000,10.2753818359375,0.0003201144572813064,-0.0012099288869649172,-0.0016260305419564247
1773798281481345800,10.295345703125,-0.00038014521123841405,0.000031828414648771286,-0.0007139202207326889
1773798281501310000,10.31531005859375,0.0005972834769636393,0.0006764321587979794,0.0006206268444657326
1773798281521273900,10.33527392578125,0.001877108938060701,0.0012477459385991096,0.0002604415640234947
1773798281541237800,10.35523779296875,-0.0007456175517290831,0.0011004374828189611,-0.0008151703514158726
1773798281561202000,10.375201904296874,-0.0005543251754716039,-0.0009245171677321196,0.0010900073684751987
1773798281581165800,10.395165771484375,-0.00037087584496475756,0.0015097410650923848,-0.0007209866307675838
1773798281601129700,10.415129638671875,0.001016618451103568,0.0004516292829066515,0.00013526016846299171
1773798281621093600,10.43509375,0.000951227149926126,-0.0003935496788471937,0.000565958209335804
1773798281641057800,10.455057861328125,0.000982149038463831,-0.0008851340971887112,-0.000046372879296541214
1773798281661021700,10.475021728515625,0.00016104041424114257,0.0009414777159690857,0.00037437817081809044
1773798281680985900,10.49498583984375,-0.0005876703653484583,-0.00014523183926939964,0.0010430356487631798
1773798281700950000,10.514949951171875,-0.0007632099441252649,-0.0003343755379319191,0.0003534676507115364
1773798281720914000,10.534913818359374,0.0007451885612681508,0.0017131469212472439,-0.0008483403362333775
1773798281740877800,10.5548779296875,0.00012297797366045415,0.0003545256331562996,0.000441728625446558
1773798281760841700,10.574841796875,-0.0012772178743034601,0.0007434776052832603,-0.00016781454905867577
1773798281780806700,10.594806640625,-0.0003324137069284916,0.0003280194941908121,-0.0002959473058581352
1773798281800770800,10.614770751953126,0.0008513497305102646,0.0004946212284266949,-0.00005534244701266289
1773798281820734700,10.634734619140625,-0.0008926854352466762,0.001753826392814517,0.0012553674168884754
1773798281840699000,10.654698974609374,-0.00007155425555538386,-0.00025500659830868244,0.0008656210266053677
1773798281860663000,10.6746630859375,-0.00046909539378248155,-0.0012090117670595646,0.00033124862238764763
1773798281880627000,10.694626953125,-0.0014865609118714929,-0.0006311286706477404,-0.0003033522516489029
1773798281900590800,10.7145908203125,-0.0017720587784424424,-0.0004477337934076786,-0.0007764734327793121
1773798281920554800,10.7345546875,-0.0000812048529041931,-0.0005709633696824312,0.0018466420006006956
1773798281940519000,10.754518798828125,-0.0005105775780975819,0.0006149797700345516,0.0007728054188191891
1773798281960482800,10.77448291015625,-0.00008042332774493843,-0.0009315370116382837,0.0007042521610856056
1773798281980446700,10.79444677734375,0.0006217483314685524,-0.0007484671659767628,-0.00027761515229940414
1773798282000411000,10.814410888671874,0.000490042264573276,-0.00009945756755769253,0.0008714776486158371
1773798282020374800,10.834374755859375,-0.000038519036024808884,0.000561542809009552,0.0010240846313536167
1773798282040338700,10.854338623046875,-0.0005951916100457311,-0.0011325892992317677,-0.0010532797314226627
1773798282060302800,10.874302734375,-0.0008734075236134231,0.00044836895540356636,-0.001542921643704176
1773798282080267000,10.89426708984375,-0.00029766574152745306,0.0002709939144551754,-0.0010734903626143932
1773798282100231000,10.91423095703125,0.0005335881724022329,-0.0007847570814192295,-0.0012260270304977894
1773798282120194800,10.93419482421875,-0.00037745098234154284,0.000123192323371768,-0.0012296359054744244
1773798282140159000,10.954158935546875,0.0005651775863952935,-0.0005478339735418558,0.0008424329571425915
1773798282160123000,10.974122802734374,0.000477146590128541,0.0006381925195455551,0.0011858493089675903
1773798282180086800,10.994086669921876,0.000044912027078680694,0.000645059859380126,0.0012425095774233341
1773798282200051000,11.014051025390625,0.00001653830986469984,-0.0006208543200045824,-0.0010646148584783077
1773798282220014800,11.034014892578124,-0.0015027596382424235,0.000411508372053504,-0.0008161379955708981
1773798282239978800,11.053978759765625,0.000441745447460562,0.00009745103307068348,-0.00011147931218147278
1773798282259942700,11.073942626953125,0.0006635162280872464,0.0008435989730060101,-0.00020816316828131676
1773798282279906800,11.09390673828125,0.0003184506786055863,-0.0006466021295636892,-0.00008689705282449722
1773798282299871000,11.11387109375,-0.0001356774300802499,0.0005520423874258995,0.0011730012483894825
1773798282319835000,11.1338349609375,-0.00017297631711699069,-0.0013773050159215927,-0.0007599014788866043
1773798282339799800,11.1537998046875,0.0007664778968319297,-0.00014802045188844204,-0.0006588692776858807
1773798282359764000,11.173763916015625,0.00015122439072001725,-0.0002050402108579874,0.00024814391508698463
1773798282379728000,11.193727783203125,0.0006271201418712735,-0.0002848778385668993,-0.0005400395020842552
1773798282399691800,11.21369189453125,-0.00003149814438074827,0.0005210319068282843,0.0006548771634697914
1773798282419655700,11.23365576171875,-0.00011175789404660463,-0.0005800903309136629,0.00031508738175034523
1773798282439619800,11.253619873046874,-0.000204524549189955,-0.00011615618132054806,-0.0011036801151931286
1773798282459583700,11.273583740234375,-0.00004713883390650153,0.0014167390763759613,-0.0003683599643409252
1773798282479547600,11.293547607421875,-0.000038002210203558207,-0.00013726856559515,-0.0001577325165271759
1773798282499512000,11.313511962890624,0.001122729736380279,-0.0015234868042171001,-0.0005380725488066673
1773798282519476000,11.33347607421875,0.00071719940751791,0.000043076928704977036,-0.0010055480524897575
1773798282539439900,11.35343994140625,0.0004457510367501527,0.00003071245737373829,-0.00006094388663768768
1773798282559403800,11.37340380859375,0.0005591547233052552,0.00047198240645229816,-0.001511718612164259
1773798282579368000,11.393367919921875,-0.00027111906092613935,-0.000181534793227911,0.0004735463298857212
1773798282599331800,11.413331787109374,-0.00012116477591916919,0.0013620387762784958,0.00017347047105431557
1773798282619295700,11.433295654296876,0.0017358207842335105,-0.000722511438652873,-0.00006207078695297241
1773798282639260000,11.453260009765625,-0.0010198317468166351,-0.0007583464030176401,0.0014916136860847473
1773798282659223800,11.473223876953124,-0.0008565740427002311,-0.001137362327426672,-0.001975029706954956
1773798282679187500,11.4931875,-0.0019840681925415993,0.00008189375512301922,0.0001144171692430973
1773798282699151600,11.513151611328125,0.0012429538182914257,0.00016103126108646393,-0.00038690492510795593
1773798282719115500,11.533115478515626,0.000297029095236212,-0.00006252340972423553,-0.0001859641633927822
1773798282739079400,11.553079345703125,-0.0020659146830439568,-0.00011376896873116493,0.0005198926664888859
1773798282759043300,11.573043212890624,0.001306990161538124,0.0009774601785466075,0.00010225316509604454
1773798282779007700,11.5930078125,-0.000363745930371806,-0.00037700985558331013,-0.001135215163230896
1773798282798971600,11.6129716796875,-0.00013783801114186645,0.00022758729755878448,0.0010107168927788734
1773798282818935600,11.632935546875,0.0006976733566261828,-0.0003719399683177471,-0.0008660536259412766
1773798282838899700,11.652899658203125,0.0001774502161424607,-0.0005910738836973906,-0.000012624543160200119
1773798282858863600,11.672863525390625,-0.0007021446945145726,-0.0009080807212740183,-0.0008940459229052067
1773798282878827500,11.69282763671875,0.0012972586555406451,-0.0006465236656367779,-0.0007364875636994839
1773798282898791400,11.71279150390625,0.0018188069807365537,0.00013364152982831,0.0001615537330508232
1773798282918755600,11.732755615234375,-0.00039113860111683607,0.00022429670207202435,0.0020232454407960176
1773798282938719500,11.752719482421876,-0.0009096033172681928,-0.0005441387183964252,-0.0015987111255526543
1773798282958683400,11.772683349609375,0.00021037354599684477,-0.0000037481077015399933,-0.0009773429483175278
1773798282978647600,11.7926474609375,-0.0004277150146663189,0.0003663254901766777,-0.0006629321724176407
1773798282998611500,11.812611572265626,0.000897839548997581,-0.0008617646526545286,0.00020806072279810905
1773798283018575600,11.83257568359375,0.0010596710490062833,0.000160514609888196,0.0012447591871023178
1773798283038540500,11.85254052734375,0.0008298652246594429,0.0010327822528779507,0.0012730038724839687
1773798283058504700,11.872504638671876,-0.0013322336599230766,0.0000854546669870615,-0.0001827678643167019
1773798283078468600,11.892468505859375,0.0012761433608829975,-0.0003288509324193001,-0.00042553991079330444
1773798283098432500,11.9124326171875,-0.001463624881580472,0.0012373494682833552,0.0004585706628859043
1773798283118396400,11.932396484375,-0.0006541080074384809,-0.0013758796267211437,0.0004186765290796757
1773798283138360600,11.952360595703125,-0.0010034029837697744,-0.0012189839035272598,-0.0002519073896110058
1773798283158324500,11.972324462890626,-0.001665795687586069,0.0011947356397286057,-0.0007642507553100586
1773798283178288400,11.992288330078125,-0.00002977918484248221,-0.0002713336143642664,0.0007303166203200817
1773798283198252800,12.012252685546875,-0.0013668688479810953,0.00038942648097872734,-0.0004464276134967804
1773798283218216700,12.032216796875,0.0006365207955241203,0.00396856851875782,-0.0011490480974316597
1773798283238180600,12.0521806640625,0.00001815856376197189,-0.0022665602155029774,-0.0004259273409843445
1773798283258144500,12.07214453125,0.0015780319226905704,-0.001955998595803976,-0.0011148219928145409
1773798283278108700,12.092108642578125,-0.0009518977603875101,0.0007770298980176449,-0.0007025580853223801
1773798283298072600,12.112072509765625,0.00010272548388456926,0.0016220771940425038,0.0007014255970716476
1773798283318036500,12.132036376953126,-0.0006981689366512001,-0.002185551915317774,0.0005957256071269512
1773798283338000600,12.152000732421875,-0.00042204424971714616,-0.0010858180467039347,0.0009719543159008026
1773798283357964500,12.171964599609375,-0.0004712734080385417,0.00022834120318293571,0.0014685047790408134
1773798283377928400,12.191928466796876,-0.0015364980790764093,0.002564000664278865,-0.0019620563834905624
1773798283397892400,12.211892333984375,0.00012097207945771515,0.0005456830840557814,0.000334207434207201
1773798283417856500,12.2318564453125,-0.00020728545496240258,-0.001867811195552349,-0.0001513371244072914
1773798283437820700,12.251820556640626,-0.0012019287096336484,-0.000187175115570426,0.0014167525805532932
1773798283457784600,12.27178466796875,-0.0003854390815831721,-0.00011825351975858212,0.00004039052873849869
1773798283477748700,12.291748779296874,-0.00024886365281417966,-0.0005930257029831409,0.0006647473201155663
1773798283497712600,12.311712646484375,0.00019152465392835438,-0.00027247308753430843,-0.0015862570144236088
1773798283517676500,12.331676513671875,0.0000856766346259974,0.0006102472543716431,0.00037659937515854836
1773798283537640400,12.351640380859376,0.0007688968325965106,-0.00021506869234144688,-0.00016964133828878403
1773798283557604600,12.3716044921875,0.0009160653571598232,-0.0010065713431686163,0.002395182615146041
1773798283577568500,12.391568603515625,0.00009719348599901423,-0.0009022976737469435,-0.0016642450354993343
1773798283597532400,12.411532470703126,-0.00031024328200146556,-0.0014223656617105007,-0.00002466142177581787
