time,seconds_elapsed,z,y,x
1773798271212306400,0.026306396484375,-0.0007523429812863469,-0.003979029133915901,-0.005221127066761255
1773798271232270600,0.0462705078125,-0.0019358517602086067,-0.0033249566331505775,-0.006456833798438311
1773798271252234500,0.066234375,-0.000574177538510412,-0.0024642229545861483,-0.0044144559651613235
1773798271272198400,0.086198486328125,-0.0009976201690733433,-0.003748399205505848,-0.005139101762324572
1773798271292162300,0.106162353515625,0.00010120012302650139,-0.0030834078788757324,-0.005535114090889692
1773798271312127200,0.126127197265625,-0.0006343649583868682,-0.0028152274899184704,-0.005960953421890736
1773798271332091400,0.14609130859375,0.0003462109307292849,-0.0032626385800540447,-0.00549250328913331
1773798271352055600,0.1660556640625,-0.00005752427750849165,-0.0017960357945412397,-0.0060933125205338
1773798271372019500,0.18601953125,-0.0010612696642056108,-0.0020999026019126177,-0.0052259210497140884
1773798271391983600,0.205983642578125,-0.0012397015234455466,-0.0029374666046351194,-0.005650961305946112
1773798271411947500,0.225947509765625,0.0008998821140266955,-0.003093261504545808,-0.005824067164212465
1773798271431912400,0.245912353515625,0.000056459015468135476,-0.00370099488645792,-0.006615558639168739
1773798271451876400,0.26587646484375,-0.00105354655534029,-0.0033686324022710323,-0.006149505265057087
1773798271471840300,0.28584033203125,-0.000547279603779316,-0.005240834783762693,-0.005849100649356842
1773798271491804400,0.305804443359375,-0.000972852751147002,-0.0020397149492055178,-0.006048837676644325
1773798271511768300,0.325768310546875,-0.0005842975224368274,-0.003641606541350484,-0.005940979812294245
1773798271531733500,0.3457333984375,-0.00018189390539191663,-0.003820038167759776,-0.00541260838508606
1773798271551697400,0.365697509765625,0.0003475425182841718,-0.003665308468043804,-0.0049343048594892025
1773798271571661600,0.38566162109375,-0.000556334329303354,-0.002261822810396552,-0.005967078730463982
1773798271591625500,0.40562548828125,-0.00011291803093627095,-0.0037923413328826427,-0.006030461750924587
1773798271611589400,0.42558935546875,-0.0010514160385355353,-0.0034083134960383177,-0.0060120862908661366
1773798271631553500,0.445553466796875,-0.0005904228310100734,-0.003067695302888751,-0.005122856702655554
1773798271651518700,0.465518798828125,0.00013768543431069702,-0.002046106616035104,-0.006624347064644098
1773798271671483000,0.48548291015625,-0.0014966964954510331,-0.0035981968976557255,-0.0062280683778226376
1773798271691446800,0.50544677734375,-0.0007286408799700439,-0.0028003137558698654,-0.005870139691978693
1773798271711410700,0.52541064453125,-0.0004820321628358215,-0.0022985744290053844,-0.006487193983048201
1773798271731374800,0.545374755859375,-0.00017603494052309543,-0.00301656243391335,-0.0038578552193939686
1773798271751338800,0.5653388671875,-0.0006420881254598498,-0.0018607506062835455,-0.006943127140402794
1773798271771304000,0.585303955078125,-0.00008548746700398624,-0.0034439999144524336,-0.005683984607458115
1773798271791267800,0.605267822265625,-0.0016966998809948564,-0.003713245503604412,-0.006691724993288517
1773798271811231700,0.625231689453125,-0.0004886900424025953,-0.003174754325300455,-0.004547880031168461
1773798271831196000,0.64519580078125,-0.0003057308786083013,-0.003915379289537668,-0.005428853910416365
1773798271851159800,0.665159912109375,-0.0013622068800032139,-0.0035428032279014587,-0.006043777801096439
1773798271871123700,0.685123779296875,-0.001076982356607914,-0.00321949552744627,-0.005111405160278082
1773798271891088600,0.705088623046875,0.00015446334145963192,-0.003518834710121155,-0.005154281854629517
1773798271911052800,0.725052734375,0.00010705907334340736,-0.003200586885213852,-0.004029096569865942
1773798271931017000,0.745016845703125,-0.00015632755821570754,-0.0015494271647185087,-0.005053614266216755
1773798271950980900,0.76498095703125,0.0010327738709747791,-0.004248274490237236,-0.00595562718808651
1773798271970944800,0.78494482421875,-0.001068193931132555,-0.0037982002831995487,-0.007131146267056465
1773798271990909000,0.804908935546875,-0.00013901700731366873,-0.004226170480251312,-0.0057103498838841915
1773798272010873900,0.824873779296875,-0.0013004215434193611,-0.001999235013499856,-0.0056829191744327545
1773798272030837800,0.844837646484375,0.0001531317684566602,-0.0020540961995720863,-0.006044310517609119
1773798272050801700,0.8648017578125,-0.0005102616851218045,-0.0028847360517829657,-0.006117813754826784
1773798272070765800,0.884765869140625,-0.0007323693134821951,-0.0033955303952097893,-0.005890646018087864
1773798272090729700,0.904729736328125,-0.00023755396250635386,-0.003602724289521575,-0.004043477587401867
1773798272110694000,0.92469384765625,-0.0003680488734971732,-0.003135872073471546,-0.005015264730900526
1773798272130658800,0.944658935546875,-0.00019467707898002118,-0.004387557972222567,-0.004879443906247616
1773798272150622700,0.964622802734375,-0.0009949569357559085,-0.0024860608391463757,-0.005228051450103521
1773798272170587000,0.9845869140625,0.0001691107318038121,-0.003224821761250496,-0.006170810665935278
1773798272190550800,1.00455078125,-0.0005898901727050543,-0.0030208237003535032,-0.006707170978188515
1773798272210514700,1.0245146484375,0.0005739112384617329,-0.0033372072502970695,-0.004911668132990599
1773798272230478800,1.044478759765625,-0.001017061178572476,-0.002584597794339061,-0.005102084018290043
1773798272250442800,1.06444287109375,-0.00009560748003423214,-0.0032229574862867594,-0.006954578682780266
1773798272270408000,1.084407958984375,0.00008628641808172688,-0.0030948594212532043,-0.0062941149808466434
1773798272290371800,1.104371826171875,-0.00039468047907575965,-0.0035947347059845924,-0.006412891671061516
1773798272310336000,1.1243359375,0.000007190534688561456,-0.003213636577129364,-0.005622465629130602
1773798272330300000,1.1442998046875,0.000143544384627603,-0.0032703618053346872,-0.005711681675165892
1773798272350263800,1.164263916015625,-0.0005542038124985993,-0.002621083054691553,-0.005948702804744244
1773798272370227700,1.184227783203125,0.00037816885742358863,-0.002700977958738804,-0.005160939879715443
1773798272390192600,1.204192626953125,0.0005262406193651259,-0.00276169809512794,-0.004911401774734259
1773798272410156800,1.22415673828125,0.00014274542627390474,-0.0024802018888294697,-0.006458698306232691
1773798272430120700,1.24412060546875,-0.0020956413354724646,-0.0034645062405616045,-0.005209941882640123
1773798272450084900,1.2640849609375,-0.0005640574963763356,-0.0037848844658583403,-0.005785184912383556
1773798272470049000,1.284049072265625,-0.0005065332516096532,-0.0029995182994753122,-0.00574896577745676
1773798272490013000,1.304012939453125,0.000940095866099,-0.00395852280780673,-0.004263987299054861
1773798272509976800,1.323976806640625,-0.0004894890007562935,-0.0017981663113459945,-0.006382798310369253
1773798272529941800,1.343941650390625,-0.0005877596559002995,-0.0017720673931762576,-0.005918076727539301
1773798272549905700,1.36390576171875,0.0006844323943369091,-0.0019086875254288316,-0.0038812910206615925
1773798272569869800,1.383869873046875,-0.0020535634830594063,-0.0018354506464675069,-0.00472657848149538
1773798272589833700,1.403833740234375,0.000502804818097502,-0.003278617514297366,-0.005874134600162506
1773798272609797600,1.423797607421875,0.00045833003241568804,-0.0020234698895365,-0.004849350079894066
1773798272629762000,1.443761962890625,-0.0006876281695440412,-0.003171292133629322,-0.004930309951305389
1773798272649727000,1.46372705078125,-0.000011717908819264267,-0.002898318227380514,-0.006028864067047834
1773798272669691100,1.483691162109375,0.0001699096756055951,-0.0036131106317043304,-0.005944442003965378
1773798272689655000,1.503655029296875,-0.0014543522847816348,-0.0028008464723825455,-0.00558092026039958
1773798272709619000,1.523618896484375,0.00032863407977856696,-0.00384374032728374,-0.006370547693222761
1773798272729583000,1.5435830078125,-0.0011310444679111242,-0.003260508179664612,-0.003992344718426466
1773798272749547000,1.563547119140625,-0.00043329631444066763,-0.00395825644955039,-0.0065292720682919025
1773798272769511000,1.583510986328125,0.0005150553770363331,-0.0034533210564404726,-0.006943659856915474
1773798272789476000,1.60347607421875,-0.0001496696495451033,-0.0026815368328243494,-0.006481601390987635
1773798272809440300,1.623440185546875,-0.0007102650706656277,-0.0032538501545786858,-0.004953479394316673
1773798272829404200,1.643404052734375,0.0005536712124012411,-0.0034115093294531107,-0.005879727192223072
1773798272849368000,1.6633681640625,-0.0004809668753296137,-0.0019739349372684956,-0.006539391819387674
1773798272869332000,1.68333203125,0.00041864890954457223,-0.0025680861435830593,-0.006259493995457888
1773798272889296100,1.703296142578125,-0.0005352954030968249,-0.00196434766985476,-0.005936718545854092
1773798272909260000,1.723260009765625,-0.0008594020619057119,-0.0025662221014499664,-0.0065527078695595264
1773798272929225000,1.743224853515625,0.0002860235108528286,-0.0035891421139240265,-0.007158310618251562
1773798272949188900,1.76318896484375,-0.0007555388147011399,-0.005115399602800608,-0.005312473513185978
1773798272969153300,1.7831533203125,-0.0003784351865760982,-0.0024580976460129023,-0.005617405753582716
1773798272989117200,1.8031171875,-0.0010849718237295747,-0.002061553066596389,-0.006155364215373993
1773798273009081000,1.8230810546875,-0.0011385013349354267,-0.0033004553988575935,-0.005397694651037455
1773798273029045000,1.843044921875,0.000023435817638528533,-0.0025483788922429085,-0.004760933108627796
1773798273049010000,1.863010009765625,-0.00018668759730644524,-0.002615490462630987,-0.004870655480772257
1773798273068974000,1.88297412109375,-0.0004500742070376873,-0.00541314110159874,-0.006421147845685482
1773798273088938000,1.90293798828125,-0.0005075985100120306,-0.0038991342298686504,-0.00606428412720561
1773798273108902000,1.92290185546875,-0.0016740630380809307,0.0007656587986275554,-0.0054152715019881725
1773798273128866000,1.942865966796875,-0.001151284552179277,-0.003270095447078347,-0.007640076335519552
1773798273148830200,1.962830322265625,0.002040780382230878,-0.003936418332159519,-0.0041191112250089645
1773798273168794000,1.982794189453125,0.000761664065066725,-0.004110855516046286,-0.006432066671550274
1773798273188759000,2.002759033203125,0.0002822950773406774,-0.0010274475207552314,-0.0062578958459198475
1773798273208723000,2.022722900390625,-0.0008412926108576357,-0.0023579627741128206,-0.005899700801819563
1773798273228687000,2.04268701171875,0.0004111920716241002,-0.0024285365361720324,-0.0072989254258573055
1773798273248651000,2.062651123046875,-0.0000018642127770363004,-0.00301736150868237,-0.005100485868752003
1773798273268615000,2.082614990234375,-0.000004793690095539205,-0.0033510555513203144,-0.007516505662351847
1773798273288579000,2.1025791015625,0.0005677859298884869,-0.002430667169392109,-0.005036570131778717
1773798273308543000,2.12254296875,-0.0011446266435086727,-0.002491120947524905,-0.004767857491970062
1773798273328508200,2.142508056640625,0.00023169501218944788,-0.0037385455798357725,-0.005234975833445787
1773798273348472000,2.16247216796875,0.0007424892974086106,-0.0030929953791201115,-0.005428853910416365
1773798273368436200,2.182436279296875,-0.000264718197286129,-0.0019196064677089453,-0.004035754129290581
1773798273388400000,2.202400146484375,-0.00044794369023293257,-0.0037233654875308275,-0.0051862397231161594
1773798273408364000,2.222364013671875,0.000007989483492565341,-0.00293267285451293,-0.006201170384883881
1773798273428328000,2.242327880859375,0.0010980212828144431,-0.0022146848496049643,-0.004626443609595299
1773798273448292000,2.2622919921875,-0.0011808456620201468,-0.0049377670511603355,-0.004997687879949808
1773798273468257000,2.282257080078125,-0.0015811186749488115,-0.009433182887732983,-0.005003813188523054
1773798273488221200,2.30222119140625,0.0013704627053812146,-0.010335195809602737,-0.003510312642902136
1773798273508185000,2.32218505859375,-0.001190166687592864,-0.0003962783666793257,-0.005936718545854092
1773798273528149200,2.342149169921875,-0.0010863033821806312,0.004848551005125046,-0.005082643125206232
1773798273548113200,2.362113037109375,-0.0023286680225282907,-0.0007728493656031787,-0.006072273477911949
1773798273568077000,2.3820771484375,-0.00036698358599096537,-0.00839721318334341,-0.0064802695997059345
1773798273588041000,2.402041015625,-0.0007337008719332516,-0.008476309478282928,-0.0054906392470002174
1773798273608006000,2.422005859375,-0.0004852279380429536,-0.0023640880826860666,-0.005373460240662098
1773798273627970000,2.441969970703125,-0.0012426309986039996,-0.0006495449924841523,-0.006757771130651236
1773798273647934000,2.461933837890625,-0.0020724718924611807,-0.0005645901546813548,-0.006073338910937309
1773798273667897900,2.48189794921875,0.00021997711155563593,-0.0020703414920717478,-0.00498144282028079
1773798273687862000,2.501862060546875,-0.0012697952333837748,-0.004818723537027836,-0.0060328589752316475
1773798273707826000,2.521825927734375,-0.00012623383372556418,-0.0047260457649827,-0.005199822131544352
1773798273727789800,2.541789794921875,-0.0004767058417201042,-0.002787530655041337,-0.004752943757921457
1773798273747755000,2.561755126953125,0.0005965480813756585,-0.001990712946280837,-0.006081594619899988
1773798273767719000,2.581718994140625,-0.0005358280031941831,-0.0015273229219019413,-0.00580755528062582
1773798273787683000,2.60168310546875,-0.0006018743733875453,-0.0032376048620790243,-0.005396629683673382
1773798273807647000,2.62164697265625,0.000565389113035053,-0.0036738307680934668,-0.00589730404317379
1773798273827611000,2.64161083984375,0.0002612560929264873,-0.003308178624138236,-0.005814746022224426
1773798273847575000,2.661574951171875,-0.0008586031035520136,-0.0027273432351648808,-0.004775314126163721
1773798273867539000,2.6815390625,-0.001969141187146306,-0.0013462279457598925,-0.0057588196359574795
1773798273887504000,2.70150390625,0.00047883635852485895,-0.0015140071045607328,-0.006154032424092293
1773798273907467800,2.7214677734375,0.0001507349224993959,-0.0007001450285315514,-0.0059660132974386215
1773798273927432000,2.741431884765625,-0.0009041432058438659,-0.002491120947524905,-0.005724730901420116
1773798273947396000,2.76139599609375,-0.0006532734259963036,-0.0022040321491658688,-0.004703408572822809
1773798273967360000,2.781360107421875,-0.0009286442655138671,-0.003510312642902136,-0.006997988559305668
1773798273987324000,2.801323974609375,0.0004844290087930858,-0.0023851271253079176,-0.007551925722509623
1773798274007288000,2.8212880859375,-0.0008812400046736002,-0.002175003755837679,-0.0057401773519814014
1773798274027252000,2.841251953125,-0.00010492854926269501,-0.0028328043408691883,-0.006600112188607454
1773798274047217000,2.861216796875,0.0008444883860647678,-0.001499625970609486,-0.006542054936289787
1773798274067180800,2.881180908203125,-0.00044048685231246054,-0.0032599754631519318,-0.004478371702134609
1773798274087145000,2.90114501953125,-0.001823466387577355,-0.002466087229549885,-0.004029628820717335
1773798274107108900,2.92110888671875,-0.000050866376113845035,-0.003127083647996187,-0.004708202555775642
1773798274127073000,2.941072998046875,-0.000922519015148282,-0.0033135050907731056,-0.006730606779456139
1773798274147037000,2.961036865234375,-0.00035686357296071947,-0.0033926009200513363,-0.005567871034145355
1773798274167001000,2.9810009765625,0.00018801917030941695,-0.004233627114444971,-0.006102367304265499
1773798274186966000,3.000966064453125,-0.0009803095599636436,-0.004432565066963434,-0.004756139125674963
1773798274206930000,3.020929931640625,-0.000030360035452758893,-0.0030575753189623356,-0.004061853047460318
1773798274226893800,3.040893798828125,-0.0005773733137175441,-0.003180613275617361,-0.005985986907035112
1773798274246858000,3.06085791015625,-0.0014929680619388819,-0.0025305356830358505,-0.005081311333924532
1773798274266822000,3.08082177734375,-0.00033182985498569906,-0.00341577036306262,-0.005997705273330212
1773798274286785800,3.100785888671875,-0.0007656587986275554,-0.002614957746118307,-0.005575860384851694
1773798274306750000,3.12075,-0.0008847020799294114,-0.0032980586402118206,-0.0057220677845180035
1773798274326714000,3.140714111328125,-0.0007408913807012141,-0.0026903252582997084,-0.005065864883363247
1773798274346679000,3.160678955078125,-0.0017896442441269755,-0.0026549051981419325,-0.00538331363350153
1773798274366643000,3.180642822265625,-0.0004540689697023481,-0.0038607846945524216,-0.006911701988428831
1773798274386606800,3.20060693359375,-0.0005752427969127893,-0.004477039910852909,-0.006097839679569006
1773798274406571000,3.220571044921875,-0.0004093278548680246,-0.0026381274219602346,-0.005558283533900976
1773798274426535000,3.240534912109375,-0.0007936219917610288,-0.0009182579233311117,-0.005969741847366095
1773798274446498800,3.260498779296875,0.00027856664382852614,-0.003495398908853531,-0.005498362239450216
1773798274466463000,3.280462890625,0.0001752359967213124,-0.003691940102726221,-0.0044014062732458115
1773798274486428000,3.300427978515625,-0.00014194648247212172,-0.0035606464371085167,-0.00555242458358407
1773798274506392000,3.32039208984375,-0.0008812400046736002,-0.0029254823457449675,-0.005887716542929411
1773798274526356000,3.34035595703125,-0.0006772418855689466,-0.0040884846821427345,-0.006644054315984249
1773798274546320000,3.36031982421875,0.00045912896166555583,-0.002657302189618349,-0.007302920334041119
1773798274566284000,3.380283935546875,-0.00008229167724493891,-0.0025688852183520794,-0.005617672111839056
1773798274586248000,3.400248046875,-0.00042983421008102596,-0.00239258399233222,-0.006743390113115311
1773798274606211800,3.4202119140625,-0.00026844663079828024,-0.003625627374276519,-0.005711948033422232
1773798274626176000,3.440176025390625,-0.0010237190872430801,-0.003581951605156064,-0.005675728898495436
1773798274646141000,3.460140869140625,0.00011877698125317693,-0.0029635655228048563,-0.006854177452623844
1773798274666105000,3.48010498046875,-0.002359027974307537,-0.00330231967382133,-0.006098372396081686
1773798274686069000,3.500069091796875,-0.0008530105114914477,-0.002659432590007782,-0.005780657287687063
1773798274706033000,3.520032958984375,-0.0018194715958088636,-0.0023494407068938017,-0.005370264407247305
1773798274725997000,3.5399970703125,-0.0003760383406188339,-0.0026024410035461187,-0.005122590344399214
1773798274745961000,3.5599609375,0.0002969424531329423,-0.003204581793397665,-0.004819522611796856
1773798274765925000,3.579925048828125,-0.0014386395923793316,-0.0033949976786971092,-0.00700944010168314
1773798274785890000,3.59989013671875,0.00024474450037814677,-0.0033957967534661293,-0.004864263813942671
1773798274805854200,3.619854248046875,-0.0008825715631246567,-0.002388589084148407,-0.005705556366592646
1773798274825818000,3.639818115234375,-0.0002359560749027878,-0.0035233621019870043,-0.00561181316152215
1773798274845782000,3.659781982421875,0.0013432984706014395,-0.0035270904190838337,-0.005958023946732283
1773798274865746000,3.679745849609375,-0.0016429040115326643,-0.0035340148024260998,-0.005330050364136696
1773798274885710000,3.6997099609375,-0.0003217098710592836,-0.0020793962758034468,-0.005939914379268885
1773798274905674000,3.719674072265625,-0.0002865561400540173,-0.003796069882810116,-0.0060387179255485535
1773798274925638000,3.739637939453125,-0.0005480785621330142,-0.003591539105400443,-0.0060182115994393826
1773798274945602300,3.759602294921875,-0.00041678472189232707,-0.0038059235084801912,-0.0062645538710057735
1773798274965567200,3.779567138671875,-0.0007076018955558538,-0.0032671659719198942,-0.005933522712439299
1773798274985531100,3.79953125,0.00040959418402053416,-0.0021198762115091085,-0.004594219382852316
1773798275005495000,3.8194951171875,-0.00021917815320193768,-0.0034943337086588144,-0.006313822232186794
1773798275025459000,3.839458984375,-0.0010940266074612737,-0.0036786242853850126,-0.005520466715097427
1773798275045423000,3.859423095703125,-0.0019214707426726818,-0.003952131140977144,-0.007158843334764242
1773798275065387000,3.879386962890625,0.0004106594424229115,-0.0026490462478250265,-0.006458165589720011
1773798275085351000,3.899350830078125,-0.0001531317684566602,-0.0030013825744390488,-0.006687197368592024
1773798275105316000,3.919316162109375,-0.0016937704058364034,-0.0022213426418602467,-0.006858971435576677
1773798275125280300,3.9392802734375,0.00036378781078383327,-0.0032288164366036654,-0.0049521480686962605
1773798275145244200,3.959244140625,0.00009560748003423214,-0.0029784792568534613,-0.006585731171071529
1773798275165208000,3.9792080078125,0.0010910971323028207,-0.0031308121979236603,-0.006083192303776741
1773798275185172000,3.999171875,-0.0003025351034011692,-0.003023220458999276,-0.005972937680780888
1773798275205136100,4.01913623046875,-0.0011936287628486753,-0.0038453382439911366,-0.0049185920506715775
1773798275225100000,4.03910009765625,0.0013752563390880823,-0.0026192190125584602,-0.005805691238492727
1773798275245064000,4.05906396484375,0.0007491472060792148,-0.0022559636272490025,-0.005735916085541248
1773798275265028900,4.07902880859375,0.0006490123341791332,-0.002840793924406171,-0.006186789367347956
1773798275284993300,4.0989931640625,-0.0002258360618725419,-0.002915096003562212,-0.0062488410621881485
1773798275304957200,4.118957275390625,-0.000059921123465755954,-0.002011485630646348,-0.005204349290579557
1773798275324921000,4.138921142578125,0.00023435817274730653,-0.0032530513126403093,-0.006113019771873951
1773798275344885000,4.158885009765625,0.00025060345069505274,-0.002960103563964367,-0.0065138256177306175
1773798275364849200,4.17884912109375,-0.0016399745363742113,-0.003180879633873701,-0.0073114424012601376
1773798275384813000,4.19881298828125,0.00063356600003317,-0.00321922916918993,-0.005879727192223072
1773798275404777000,4.21877685546875,-0.000966727442573756,-0.0021547635551542044,-0.00669332267716527
1773798275424741000,4.2387412109375,-0.0013797837309539318,-0.002299106912687421,-0.0057257963344454765
1773798275444706000,4.2587060546875,-0.0013760552974417806,-0.0030120352748781443,-0.005191565956920385
1773798275464670200,4.278670166015625,-0.0003757720405701548,-0.0032751555554568768,-0.0062789348885416985
1773798275484634000,4.298634033203125,-0.0006082659820094705,-0.002682602033019066,-0.005562278442084789
1773798275504598000,4.318597900390625,0.0007329019135795534,-0.0034133736044168472,-0.006508233025670052
1773798275524562200,4.338562255859375,-0.0005174521938897669,-0.0036280243657529354,-0.005936984904110432
1773798275544526000,4.358526123046875,0.0011488876771181822,-0.0036450685001909733,-0.004323109518736601
1773798275564490000,4.378489990234375,0.0019148128340020776,-0.003266899613663554,-0.00484349112957716
1773798275584454100,4.3984541015625,-0.0003067961661145091,-0.0028929917607456446,-0.0062941149808466434
1773798275604419000,4.418419189453125,0.0003259709046687931,-0.0020516992080956697,-0.004923918284475803
1773798275624383000,4.438383056640625,-0.0002311623829882592,-0.002366218715906143,-0.006203301250934601
1773798275644347000,4.458346923828125,-0.00043542683124542236,-0.003028546692803502,-0.004752144683152437
1773798275664310800,4.478310791015625,-0.0007443535141646862,-0.003061037277802825,-0.005619269795715809
1773798275684274700,4.498274658203125,-0.0009150621481239796,-0.0029702235478907824,-0.006045109126716852
1773798275704238600,4.518238525390625,-0.0017813884187489748,-0.003609115956351161,-0.0054735951125621796
1773798275724202800,4.53820263671875,-0.00006764429417671636,-0.0038980687968432903,-0.0052203284576535225
1773798275744166700,4.558166748046875,0.00019334549142513424,-0.0022306637838482857,-0.005086637567728758
1773798275764131800,4.5781318359375,0.0018738001817837358,-0.0016285229939967394,-0.0038482677191495895
1773798275784095700,4.598095703125,-0.001100684516131878,-0.0031755531672388315,-0.006082393694669008
1773798275804059600,4.6180595703125,0.000660463934764266,-0.0021816615480929613,-0.005020857788622379
1773798275824023800,4.63802392578125,-0.0004423510399647057,-0.003291400847956538,-0.005798766855150461
1773798275843987700,4.65798779296875,-0.00015233281010296196,-0.0035079156514257193,-0.005786516238003969
1773798275863951600,4.67795166015625,-0.0005984122981317341,-0.003456516657024622,-0.005369198974221945
1773798275883915800,4.697915771484375,-0.0007691209320910275,-0.003736148588359356,-0.006538859568536282
1773798275903879700,4.717879638671875,-0.0005736448802053928,-0.0035278894938528538,-0.006453105714172125
1773798275923843600,4.737843505859375,-0.0005693838465958834,-0.0040916805155575275,-0.00640729907900095
1773798275943808800,4.757808837890625,0.0014330470003187656,-0.0027984497137367725,-0.007336209993809462
1773798275963772700,4.777772705078125,-0.0008356999605894089,-0.0023558323737233877,-0.006470948923379183
1773798275983736800,4.79773681640625,-0.0009952232940122485,-0.0012982910266146064,-0.005364671815186739
1773798276003700700,4.81770068359375,0.0021528995130211115,-0.0018815232906490564,-0.006638195365667343
1773798276023664600,4.83766455078125,-0.00008096009696600959,-0.002817091764882207,-0.005994243081659079
1773798276043628800,4.85762890625,-0.001449025934562087,-0.002923884429037571,-0.004757470916956663
1773798276063592700,4.8775927734375,0.0008527441532351077,-0.002749447477981448,-0.006571882404386997
1773798276083556600,4.897556640625,-0.00022290658671408892,-0.0036064526066184044,-0.005855758674442768
1773798276103520500,4.9175205078125,0.0008950884221121669,-0.003591006388887763,-0.006237922236323357
1773798276123485700,4.937485595703125,0.00020825919636990875,-0.003870371961966157,-0.005593170877546072
1773798276143449900,4.957449951171875,-0.00012090751260984689,-0.0028879318851977587,-0.005804359447211027
1773798276163413800,4.977413818359375,-0.0008697884040884674,-0.002508697798475623,-0.00558251840993762
1773798276183377700,4.997377685546875,-0.0009137305896729231,-0.003091397462412715,-0.005565207917243242
1773798276203341800,5.017341796875,0.0008189220097847283,-0.002758768619969487,-0.004776911810040474
1773798276223305700,5.0373056640625,-0.0009464874165132642,-0.002383262850344181,-0.006196376867592335
1773798276243269600,5.05726953125,-0.0015105449128895998,-0.003742540255188942,-0.005761216394603252
1773798276263233500,5.077233642578125,-0.0004141215467825532,-0.002663427498191595,-0.005676794331520796
1773798276283198700,5.09719873046875,-0.0000015978966985130683,-0.004141215234994888,-0.005841377656906843
1773798276303162600,5.11716259765625,-0.0002545981842558831,-0.0027196200098842382,-0.006614226847887039
1773798276323126800,5.137126708984375,0.0009134642314165831,-0.0037926076911389828,-0.0062634884379804134
1773798276343090700,5.157090576171875,0.0006737797521054745,-0.0025949841365218163,-0.005141764879226685
1773798276363054800,5.177054931640625,-0.00011052118497900665,-0.0034674357157200575,-0.005006742663681507
1773798276383018800,5.197018798828125,0.0010865697404369712,-0.004538825247436762,-0.005929261911660433
1773798276402982700,5.216982666015625,-0.0009147958480753005,-0.0026112294290214777,-0.004691424313932657
1773798276422946800,5.23694677734375,0.00017310546536464244,-0.0024671524297446012,-0.005428054835647345
1773798276442910700,5.25691064453125,0.000571248063351959,-0.004261057823896408,-0.005646167788654566
1773798276462874600,5.27687451171875,-0.00042530681821517646,-0.003183010034263134,-0.006366020068526268
1773798276482839600,5.296839599609375,0.000051132694352418184,-0.0010578075889497995,-0.006851247977465391
1773798276502803700,5.3168037109375,0.00000852211542223813,-0.0015941682504490018,-0.004748948849737644
1773798276522768000,5.336767822265625,0.0010013486025854945,-0.0025837989524006844,-0.0051833102479577065
1773798276542731800,5.356731689453125,0.00044314999831840396,-0.004363855812698603,-0.005755091086030006
1773798276562695700,5.37669580078125,0.00021651499264407903,-0.0032583775464445353,-0.004686364438384771
1773798276582659800,5.396659912109375,-0.0012591425329446793,-0.0025989788118749857,-0.005882123950868845
1773798276602623700,5.416623779296875,0.000604004948399961,-0.0029976540245115757,-0.006194246467202902
1773798276622587600,5.436587646484375,-0.0002796319022309035,-0.002210689941421151,-0.004346012603491545
1773798276642551600,5.456551513671875,-0.0005126585019752383,-0.003993410151451826,-0.005393167492002249
1773798276662516200,5.47651611328125,-0.0005400890368036926,-0.002950516063719988,-0.007876564748585224
1773798276682480000,5.496480224609375,-0.0008649947121739388,-0.0036514601670205593,-0.006430734880268574
1773798276702444000,5.516444091796875,-0.0010692591313272715,-0.0032775523141026497,-0.005528189707547426
1773798276722408200,5.536408203125,0.0006764429272152483,-0.003724430687725544,-0.0062461779452860355
1773798276742372400,5.556372314453125,-0.0005581985460594296,-0.001975799212232232,-0.00538357999175787
1773798276762336300,5.576336181640625,0.00041571943438611925,-0.0024024376180022955,-0.005888249259442091
1773798276782300200,5.596300048828125,-0.00047936898772604764,-0.002728408435359597,-0.005078648217022419
1773798276802264300,5.616264404296875,0.00034194986801594496,-0.0025752766523510218,-0.006951915565878153
1773798276822228200,5.636228271484375,-0.00030652983696199954,-0.003522030543535948,-0.005952964071184397
1773798276842193200,5.656193115234375,-0.0015427692560479045,-0.0029888655990362167,-0.006130330264568329
1773798276862157000,5.676156982421875,-0.00022663500567432493,-0.0027358653023838997,-0.007276821415871382
1773798276882121000,5.696120849609375,0.0002854908525478095,-0.0036525253672152758,-0.005367334932088852
1773798276902085400,5.71608544921875,-0.0006900250446051359,-0.0030487868934869766,-0.00490287970751524
1773798276922049300,5.73604931640625,0.00004713794987765141,-0.002100435085594654,-0.005583583377301693
1773798276942013200,5.75601318359375,0.000030892668291926384,-0.003221359569579363,-0.007815578952431679
1773798276961977300,5.775977294921875,-0.00138031633105129,-0.003308444982394576,-0.004815261345356703
1773798276981941200,5.795941162109375,-0.0007563377148471773,-0.0030453247018158436,-0.00592606607824564
1773798277001905200,5.8159052734375,-0.0008146609761752188,-0.003975034225732088,-0.00526640098541975
1773798277021869000,5.835869140625,0.0007430219557136297,-0.0030799456872045994,-0.00637827068567276
1773798277041834200,5.855834228515625,-0.0012026835465803742,-0.0027899276465177536,-0.004800880327820778
1773798277061798100,5.875798095703125,0.0025963156949728727,-0.0028160265646874905,-0.005345230456441641
1773798277081762000,5.895761962890625,0.0006833671359345317,-0.003029345767572522,-0.005474660079926252
1773798277101726200,5.915726318359375,-0.000022903184799361043,-0.0020719394087791443,-0.006388390902429819
1773798277121690400,5.9356904296875,-0.0007731156656518579,-0.0030157635919749737,-0.005556951742619276
1773798277141654300,5.955654296875,-0.0003880225704051554,-0.002807770622894168,-0.005645102355629206
1773798277161618200,5.9756181640625,0.0001400822657160461,-0.0025563682429492474,-0.005059739574790001
1773798277181582300,5.995582275390625,0.0015707324491813779,-0.0029113676864653826,-0.005241633392870426
1773798277201546200,6.015546142578125,-0.0004777711001224816,-0.0018556906143203378,-0.004858937580138445
1773798277221510100,6.03551025390625,-0.0003259709046687931,-0.002782470779493451,-0.005287173669785261
1773798277241475000,6.05547509765625,0.00101146858651191,-0.002709766384214163,-0.005638178437948227
1773798277261439000,6.07543896484375,-0.0007789746159687638,-0.0028644960839301348,-0.005420864559710026
1773798277281403400,6.0954033203125,-0.0012383698485791683,-0.0012575446162372828,-0.005258677992969751
1773798277301367300,6.1153671875,-0.0002980077115353197,-0.003703924361616373,-0.004768389742821455
1773798277321331200,6.135331298828125,0.00022743394947610795,-0.002709500025957823,-0.005856025032699108
1773798277341295400,6.15529541015625,-0.00006338323146337643,-0.003674097126349807,-0.006135124247521162
1773798277361259300,6.17525927734375,-0.0010873686987906694,-0.003736681304872036,-0.005282113794237375
1773798277381223200,6.19522314453125,0.000031425301131093875,-0.002787264296784997,-0.005319930613040924
1773798277401187000,6.21518701171875,-0.00034594463068060577,-0.0032583775464445353,-0.005868807900696993
1773798277421151200,6.235151123046875,0.0005731122801080346,-0.001600559800863266,-0.005183043889701366
1773798277441116200,6.2551162109375,-0.001710814656689763,-0.003043726785108447,-0.0049127331003546715
1773798277461080000,6.275080078125,-0.0003347593592479825,-0.004848817363381386,-0.005654157139360905
1773798277481044200,6.295044189453125,-0.0012519520241767168,-0.002713228575885296,-0.005107942968606949
1773798277501008400,6.31500830078125,-0.000107858024421148,-0.003668504301458597,-0.006964166183024645
1773798277520972300,6.33497216796875,-0.0005755090969614685,-0.003953728824853897,-0.005511145573109388
1773798277540936200,6.354936279296875,-0.0001661812566453591,-0.0035987296141684055,-0.005949235521256924
1773798277560900000,6.374900146484375,-0.0011614045361056924,-0.00350392097607255,-0.005431250669062138
1773798277580864300,6.3948642578125,-0.000570981705095619,-0.002823483431711793,-0.007620102725923061
1773798277600828200,6.414828125,-0.00021012341312598437,-0.002159290947020054,-0.005336708389222622
1773798277620792000,6.4347919921875,-0.0004964132094755769,-0.0028330706991255283,-0.0046179210767149925
1773798277640757000,6.454757080078125,0.0004370247188489884,-0.002240783767774701,-0.006068544927984476
1773798277660721400,6.474721435546875,0.000248472933890298,-0.0025097629986703396,-0.005440571811050177
1773798277680685300,6.494685302734375,-0.00035233621019870043,-0.0025779400020837784,-0.004447745159268379
1773798277700649200,6.514649169921875,0.0007126618875190616,-0.003186205867677927,-0.006961236707866192
1773798277720613000,6.534613037109375,0.00021758026559837162,-0.004093278665095568,-0.006183327175676823
1773798277740577300,6.554577392578125,-0.001430916483514011,-0.002763828495517373,-0.005554821342229843
1773798277760541200,6.574541259765625,-0.00021385183208622038,-0.0039007319137454033,-0.004593953024595976
1773798277780505300,6.59450537109375,-0.0007723167072981596,-0.00350445369258523,-0.006085855886340141
1773798277800469500,6.614469482421875,-0.00088949577184394,-0.002547047333791852,-0.005897836294025183
1773798277820433400,6.634433349609375,-0.0012575446162372828,-0.0037172401789575815,-0.005681055132299662
1773798277840397300,6.654397216796875,-0.00026045716367661953,-0.003433613572269678,-0.006685866042971611
1773798277860362200,6.6743623046875,-0.000013582121027866378,-0.002689792774617672,-0.005268531385809183
1773798277880326100,6.694326171875,-0.0013281183782964945,-0.003525226376950741,-0.006669087801128626
1773798277900290300,6.714290283203125,0.00007723167072981596,-0.0027662254869937897,-0.005302886478602886
1773798277920254200,6.734254150390625,-0.0001877528557088226,-0.002037318190559745,-0.005458681378513575
1773798277940218000,6.754218017578125,0.00006498113361885771,-0.0016916398890316486,-0.0065590995363891125
1773798277960182500,6.7741826171875,0.0004830974212381989,-0.0022921827621757984,-0.006958839949220419
1773798277980146400,6.794146484375,0.00003781688792514615,-0.0019270633347332478,-0.0062757390551269054
1773798278000110300,6.8141103515625,-0.002189118415117264,-0.0030682277865707874,-0.005047223065048456
1773798278020074200,6.83407421875,-0.0014775217277929187,-0.00221974472515285,-0.006804642733186483
1773798278040038400,6.854038330078125,-0.00014061490946915,-0.003614442190155387,-0.005044027231633663
1773798278060002300,6.874002197265625,-0.0004138552176300436,-0.003150519449263811,-0.004592088516801596
1773798278079967200,6.89396728515625,-0.0006351639167405665,-0.0029827402904629707,-0.005744704511016607
1773798278099931100,6.91393115234375,0.0004170510219410062,-0.003439206164330244,-0.006980677600950003
1773798278119895300,6.933895263671875,0.00016431703988928348,-0.004297276493161917,-0.006088252644985914
1773798278139859200,6.953859130859375,-0.0014791196445003152,-0.003468234557658434,-0.005504753906279802
1773798278159823400,6.9738232421875,-0.0004878911131527275,-0.004156395327299833,-0.00484349112957716
1773798278179787500,6.99378759765625,-0.0008772452711127698,-0.0031278827227652073,-0.006351639050990343
1773798278199751400,7.01375146484375,-0.000728907180018723,-0.0036418726667761803,-0.005372394807636738
1773798278219715300,7.03371533203125,-0.0002258360618725419,-0.002124669961631298,-0.006673881784081459
1773798278239679200,7.05367919921875,0.00041012681322172284,-0.003753725439310074,-0.009048089385032654
1773798278259643400,7.073643310546875,-0.00010892329009948298,-0.00020426444825716317,-0.005105279851704836
1773798278279607300,7.093607177734375,0.00039547940832562745,-0.004231230355799198,-0.004817392211407423
1773798278299572200,7.113572265625,0.00037736992817372084,-0.0036946034524589777,-0.005151086021214724
1773798278319536000,7.1335361328125,-0.0007113303290680051,-0.001592037733644247,-0.005455485545098782
1773798278339500500,7.15350048828125,-0.00015899071877356619,-0.0023100259713828564,-0.005203284323215485
1773798278359464400,7.17346435546875,-0.0005107942852191627,-0.0026109630707651377,-0.0065537733025848866
1773798278379428400,7.193428466796875,-0.0006823018775321543,-0.003320961957797408,-0.004580370616167784
1773798278399392300,7.213392333984375,-0.001118793967179954,-0.0030008498579263687,-0.006426474079489708
1773798278419356400,7.2333564453125,0.000041278995922766626,-0.002793123247101903,-0.006106095854192972
1773798278439320300,7.2533203125,0.00035952674807049334,-0.003055711043998599,-0.006333795841783285
1773798278459284200,7.2732841796875,0.00105301383882761,-0.0036671727430075407,-0.005911152344197035
1773798278479248400,7.293248291015625,-0.0002788329729810357,-0.002494050422683358,-0.005681587848812342
1773798278499212300,7.31321240234375,0.00027057717670686543,-0.0025859293527901173,-0.004960137419402599
1773798278519176200,7.33317626953125,0.000474575295811519,-0.003537743119522929,-0.006687463726848364
1773798278539141400,7.353141357421875,-0.0013909690314903855,-0.00344559783115983,-0.005465073045343161
1773798278559105300,7.373105224609375,-0.000958205375354737,-0.0030328077264130116,-0.007026217877864838
1773798278579069400,7.3930693359375,0.0003787015157286078,-0.001555818715132773,-0.006055229343473911
1773798278599033300,7.413033447265625,-0.001290834159590304,-0.002871153876185417,-0.006114351563155651
1773798278618997200,7.432997314453125,-0.000358461489668116,-0.0011358382180333138,-0.006205964367836714
1773798278638961400,7.45296142578125,-0.0004849616379942745,-0.003525492735207081,-0.005583050660789013
1773798278658925300,7.47292529296875,0.0011153318919241428,-0.002980876248329878,-0.005910619627684355
1773798278678889200,7.49288916015625,-0.000012250540748937055,-0.0036016590893268585,-0.0063154203817248344
1773798278698853400,7.512853271484375,-0.0002069276088150218,-0.0035444011446088552,-0.005484247580170631
1773798278718817300,7.5328173828125,-0.0003664509567897767,-0.001207743538543582,-0.006874683778733015
1773798278738781200,7.55278125,-0.000755805114749819,-0.002552107209339738,-0.006927414797246456
1773798278758745300,7.572745361328125,0.001532116555608809,-0.0028213527984917164,-0.005354018881917
1773798278778710300,7.592710205078125,-0.001918807509355247,-0.002832005498930812,-0.006352970842272043
1773798278798674400,7.61267431640625,0.0016192019684240222,-0.0025478461757302284,-0.005919674411416054
1773798278818638300,7.632638427734375,-0.0006450176006183028,-0.0030900659039616585,-0.004524710588157177
1773798278838602200,7.652602294921875,0.000716922979336232,-0.003014432033523917,-0.005726595409214497
1773798278858566400,7.67256640625,0.00043835630640387535,-0.0030602384358644485,-0.005922071170061827
1773798278878530300,7.6925302734375,-0.0004111920716241002,-0.0038402783684432507,-0.005548163317143917
1773798278898494200,7.712494140625,-0.0011574097443372011,-0.0024628913961350918,-0.005407015793025494
1773798278918458000,7.7324580078125,0.0009171926649287343,-0.004000067710876465,-0.006403836887329817
1773798278938422300,7.75242236328125,-0.0000804274677648209,-0.0027334685437381268,-0.005369998048990965
1773798278958386400,7.772386474609375,-0.0003616572648752481,-0.0038245655596256256,-0.006073072552680969
1773798278978350300,7.792350341796875,0.00043888893560506403,-0.00307675008662045,-0.004990763962268829
1773798278998314500,7.812314453125,-0.00001944107498275116,-0.003908987622708082,-0.006428071763366461
1773798279018278400,7.8322783203125,-0.0008125304593704641,-0.003263970138505101,-0.005858155433088541
1773798279038243300,7.852243408203125,-0.0015182681381702423,-0.002282062778249383,-0.004204598721116781
1773798279058207200,7.872207275390625,-0.00014620754518546164,-0.0030562435276806355,-0.0049129994586110115
1773798279078171100,7.892171142578125,-0.0005217132274992764,-0.00273133791051805,-0.005848035216331482
1773798279098135300,7.91213525390625,0.0001536643976578489,-0.002919090911746025,-0.00615270109847188
1773798279118099200,7.93209912109375,-0.0015414375811815262,-0.0037286917213350534,-0.005634982604533434
1773798279138063400,7.9520634765625,-0.0018732674652710557,-0.0030240193009376526,-0.005418733693659306
1773798279158027500,7.972027587890625,-0.0010836402652785182,-0.0031467911321669817,-0.004668787587434053
1773798279177991400,7.991991455078125,-0.00017603494052309543,-0.0022690133191645145,-0.006430734880268574
1773798279197955300,8.011955322265624,0.0003938815207220614,-0.0022383867762982845,-0.005862682592123747
1773798279217919200,8.031919189453125,-0.00017337177996523678,-0.0036663739010691643,-0.005489840172231197
1773798279237883400,8.05188330078125,-0.0008349010022357106,-0.002403502818197012,-0.00503923324868083
1773798279257847300,8.071847412109374,0.000005326322025211994,-0.0018485001055523753,-0.005563609767705202
1773798279277811200,8.091811279296875,-0.00015925703337416053,-0.0024708807468414307,-0.006255765445530415
1773798279297775400,8.111775390625,-0.0012333098566159606,-0.0026317357551306486,-0.005893575493246317
1773798279317740300,8.131740234375,-0.00018322547839488834,-0.0036304211243987083,-0.005657352972775698
1773798279337704400,8.151704345703125,-0.0011052117915824056,-0.003936151973903179,-0.004748948849737644
1773798279357668400,8.17166845703125,0.000245543458731845,-0.0033830134198069572,-0.006078665144741535
1773798279377632300,8.19163232421875,-0.00016112125013023615,-0.0023156185634434223,-0.005859753116965294
1773798279397596400,8.211596435546875,-0.0009187905816361308,-0.002813629573211074,-0.005598497111350298
1773798279417560300,8.231560302734374,-0.0003350256592966616,-0.003430417738854885,-0.005458415020257235
1773798279437524200,8.251524169921876,0.0003020024741999805,-0.0016399745363742113,-0.005512743256986141
1773798279457488400,8.27148828125,0.0015931029338389635,-0.0031257520895451307,-0.005892243701964617
1773798279477452300,8.291452392578124,0.00030892668291926384,-0.0031278827227652073,-0.005672266706824303
1773798279497416200,8.311416259765625,-0.00034700988908298314,-0.002858637133613229,-0.005514341406524181
1773798279517380400,8.33138037109375,0.0007062703371047974,-0.0030421288684010506,-0.00532685499638319
1773798279537344300,8.35134423828125,0.0011017497163265944,-0.002925216220319271,-0.005544435232877731
1773798279557308200,8.37130810546875,0.0002085255109705031,-0.002223206916823983,-0.005287972744554281
1773798279577273300,8.3912734375,-0.00017097493400797248,-0.002927080262452364,-0.007812649011611938
1773798279597237200,8.4112373046875,-0.0005957491230219603,-0.0017009610310196877,-0.00703900121152401
1773798279617201400,8.431201416015625,0.0006314354832284153,-0.003859453136101365,-0.006586529780179262
1773798279637165300,8.451165283203125,-0.0010245180455967784,-0.002180063631385565,-0.0041641187854111195
1773798279657129200,8.471129150390626,0.0007555388147011399,-0.0028796761762350798,-0.005939914379268885
1773798279677092900,8.4910927734375,-0.0009555422002449632,-0.002891660202294588,-0.006570817437022924
1773798279697056800,8.511056884765624,0.0005360943032428622,-0.00267780851572752,-0.004567055031657219
1773798279717020700,8.531020751953125,-0.0005733785801567137,-0.0041462755762040615,-0.0038725025951862335
1773798279736985000,8.550985107421875,0.0005842975224368274,-0.0034173682797700167,-0.006483998149633408
1773798279756949000,8.570948974609376,-0.00025273399660363793,-0.0031936627347022295,-0.004948153160512447
1773798279776913000,8.590912841796875,-0.0011592740193009377,-0.0015225291717797518,-0.00564004248008132
1773798279796876800,8.610876708984375,-0.00010173275222769007,-0.002909237053245306,-0.004504470620304346
1773798279816841000,8.630841064453126,-0.000021837920940015465,-0.0041404166258871555,-0.004990497604012489
1773798279836804900,8.650804931640625,-0.00011291803093627095,-0.0030985879711806774,-0.006854710169136524
1773798279856768800,8.670768798828124,-0.0003581951605156064,-0.003165699541568756,-0.005912217777222395
1773798279876733000,8.69073291015625,-0.00048655952559784055,-0.0029920614324510098,-0.004975583869963884
1773798279896697900,8.71069775390625,-0.0009305084822699428,-0.003319896524772048,-0.006659766659140587
1773798279916661800,8.730661865234374,-0.0004261057765688747,-0.002040780382230878,-0.004716724622994661
1773798279936626000,8.7506259765625,-0.0005281048361212015,-0.002540655666962266,-0.006025668233633041
1773798279956589800,8.77058984375,0.0002545981842558831,-0.00404614070430398,-0.006590524688363075
1773798279976554000,8.790553955078124,-0.0011656655697152019,-0.0032408006954938173,-0.0065740132704377174
1773798279996518000,8.810517822265625,0.00003062635369133204,-0.00387276872061193,-0.0056392434053123
1773798280016481800,8.830481689453125,-0.0003432814555708319,-0.0028482507914304733,-0.004308195784687996
1773798280036446000,8.850446044921876,0.0001613875647308305,-0.0026072347536683083,-0.004235225263983011
1773798280056409900,8.870409912109375,-0.00038509309524670243,-0.003713245503604412,-0.005340170580893755
1773798280076373800,8.890373779296874,-0.00039254993316717446,-0.0033952640369534492,-0.005175853613764048
1773798280096338000,8.910337890625,0.00008442220860160887,-0.003975833300501108,-0.00517691858112812
1773798280116301800,8.9303017578125,0.000218645524000749,-0.002983539365231991,-0.00680144689977169
1773798280136265700,8.950265625,0.0003038666909560561,-0.0035382758360356092,-0.005272526293992996
1773798280156230000,8.97022998046875,0.0014197311829775572,-0.0024226775858551264,-0.007529821712523699
1773798280176194000,8.990194091796875,-0.0004980111261829734,-0.0035055188927799463,-0.006089051254093647
1773798280196158000,9.010157958984376,-0.0007603325066156685,-0.001175519311800599,-0.005813147872686386
1773798280216123000,9.030122802734375,-0.00003914846820407547,-0.002700711600482464,-0.005370530765503645
1773798280236086800,9.050086669921875,0.0012303803814575076,-0.003309244057163596,-0.007539142854511738
1773798280256051000,9.070051025390624,-0.00023196132679004222,-0.0026972496416419744,-0.007013967260718346
1773798280276014800,9.090014892578125,-0.0007936219917610288,-0.0030312100425362587,-0.006202235817909241
1773798280295978800,9.109978759765625,-0.00020399813365656883,-0.002195776207372546,-0.006596117280423641
1773798280315942700,9.129942626953126,0.000577107013668865,-0.0030123014003038406,-0.005170527379959822
1773798280335906800,9.14990673828125,-0.0007123955874703825,-0.0018016285030171275,-0.004686098080128431
1773798280355871000,9.16987109375,-0.0007994809420779347,-0.0038690404035151005,-0.00606481684371829
1773798280375835000,9.1898349609375,0.000437291048001498,-0.0024517059791833162,-0.006105563137680292
1773798280395799000,9.209799072265625,-0.0009957558941096067,-0.0038991342298686504,-0.006969758775085211
1773798280415763000,9.229762939453124,-0.00019094864546786994,-0.002540655666962266,-0.005426190793514252
1773798280435726800,9.249726806640625,-0.00019813918333966285,-0.001344630029052496,-0.005063734482973814
1773798280455690800,9.269690673828125,-0.000740625080652535,-0.004013383761048317,-0.005419532768428326
1773798280475655000,9.289655029296876,-0.0002695118892006576,-0.0034794199746102095,-0.005929261911660433
1773798280495618800,9.309618896484375,0.0004037352045997977,-0.002960103563964367,-0.006220878101885319
1773798280515582700,9.329582763671874,-0.000499875342939049,-0.002810700098052621,-0.004412591457366943
1773798280535547000,9.349546875,-0.0003683151735458523,-0.0033188313245773315,-0.005769205745309591
1773798280555512000,9.369511962890625,-0.000041012681322172284,-0.0032107068691402674,-0.005298891570419073
1773798280575476000,9.38947607421875,0.0016373114194720984,-0.0018317222129553556,-0.005677326582372189
1773798280595439900,9.40943994140625,-0.00019867181254085153,-0.004092479590326548,-0.005841909907758236
1773798280615403800,9.42940380859375,-0.000978978001512587,-0.0026258768048137426,-0.005022988189011812
1773798280635368000,9.449367919921874,-0.0006948187365196645,-0.003157443832606077,-0.005875199567526579
1773798280655331800,9.469331787109375,-0.00017789915727917105,-0.002213353058323264,-0.005816610064357519
1773798280675296800,9.489296875,-0.0008157262345775962,-0.002624811604619026,-0.005146026145666838
1773798280695260700,9.5092607421875,0.0005305017111822963,-0.0032892702147364616,-0.005829926114529371
1773798280715224800,9.529224853515625,0.0005275722360238433,-0.004224305972456932,-0.0051715923473238945
1773798280735188700,9.549188720703125,0.0002980077115353197,-0.0031348068732768297,-0.005191033706068993
1773798280755152600,9.569152587890626,-0.00022423815971706063,-0.002826679265126586,-0.004689560271799564
1773798280775116800,9.58911669921875,-0.0010346380295231938,-0.002627474721521139,-0.006196376867592335
1773798280795081000,9.6090810546875,-0.0007661914569325745,-0.0031411985401064157,-0.005221393425017595
1773798280815044900,9.629044921875,-0.0001560612436151132,-0.002603506203740835,-0.00697961263358593
1773798280835008800,9.6490087890625,-0.0014367754338309169,-0.00270657055079937,-0.0031734227668493986
1773798280854973000,9.668972900390624,-0.0001656486128922552,-0.0028213527984917164,-0.004787032026797533
1773798280874936800,9.688936767578125,0.0005422196118161082,-0.0031822111923247576,-0.004199805203825235
1773798280894900700,9.708900634765625,-0.00006258428766159341,-0.003260241821408272,-0.005138036794960499
1773798280914865000,9.728864990234374,0.00011078749957960099,-0.0034115093294531107,-0.006022206041961908
1773798280934829800,9.748829833984376,-0.0013789847726002336,-0.0012002866715192795,-0.007257113698869944
1773798280954794000,9.7687939453125,0.00011930961773032323,-0.0027305390685796738,-0.005303951445966959
1773798280974758000,9.7887578125,-0.0006934871198609471,-0.0019254654180258512,-0.0049220542423427105
1773798280994721800,9.8087216796875,0.0005699164466932416,-0.005112470127642155,-0.005584648810327053
1773798281014686000,9.82868603515625,-0.0003270361921750009,-0.0032927324064075947,-0.005411010701209307
1773798281034649900,9.84864990234375,-0.0007198524544946849,-0.002098038326948881,-0.005513009615242481
1773798281054613800,9.86861376953125,-0.0006474144756793976,-0.0023997745011001825,-0.005636047571897507
1773798281074578000,9.888577880859375,-0.0003398193512111902,-0.0037081853952258825,-0.005173456855118275
1773798281094541800,9.908541748046876,0.00035420042695477605,-0.0020908478181809187,-0.0065228804014623165
1773798281114505700,9.928505615234375,-0.000013582121027866378,-0.0029710223898291588,-0.005474127363413572
1773798281134469600,9.9484697265625,0.00023142869758885354,-0.002892459277063608,-0.004601143300533295
1773798281154433800,9.968433837890625,0.0005928196478635073,-0.002703907433897257,-0.005495166406035423
1773798281174397700,9.988397705078125,-0.000687361869495362,-0.002266882685944438,-0.005536711774766445
1773798281194361900,10.00836181640625,-0.00088976213010028,-0.0023467775899916887,-0.00535375252366066
1773798281214326000,10.028325927734375,-0.0012924320762977004,-0.0018777948571369052,-0.004795554094016552
1773798281234290000,10.0482900390625,-0.000699079770129174,-0.0029736857395619154,-0.006097307428717613
1773798281254253800,10.06825390625,-0.0001776328426785767,-0.003620833856984973,-0.005880525801330805
1773798281274217700,10.0882177734375,-0.0007898935582488775,-0.002412291243672371,-0.005160673521459103
1773798281294182000,10.108181884765624,-0.0017134778900071979,-0.0029529130551964045,-0.0037939392495900393
1773798281314146800,10.128146728515626,-0.00020373181905597448,-0.002981142606586218,-0.005597964394837618
1773798281334110700,10.14811083984375,-0.002126534003764391,-0.002799781272187829,-0.005374525208026171
1773798281354074600,10.16807470703125,-0.000016245283404714428,-0.0019600866362452507,-0.006999852601438761
1773798281374038800,10.188038818359376,-0.0014359764754772186,-0.0025739450938999653,-0.006898918654769659
1773798281394003000,10.2080029296875,-0.0013616742799058557,-0.0046690539456903934,-0.005814213305711746
1773798281413966800,10.227966796875,0.0012993563432246447,-0.004229898564517498,-0.00697801448404789
1773798281433930800,10.2479306640625,0.0009917612187564373,-0.0037649108562618494,-0.005891977343708277
1773798281453895000,10.26789501953125,-0.0005864280392415822,-0.0035486621782183647,-0.005915147252380848
1773798281473858800,10.28785888671875,-0.0003414172388147563,-0.0025329324416816235,-0.007237406447529793
1773798281493822700,10.30782275390625,0.001103880233131349,-0.002966228872537613,-0.006934605073183775
1773798281513787000,10.327786865234375,0.001059405505657196,-0.0024687503464519978,-0.005298358853906393
1773798281533750800,10.347750732421876,-0.0004719121498055756,-0.0034525219816714525,-0.004962800536304712
1773798281553714700,10.367714599609375,0.0003486077766865492,-0.0021262678783386946,-0.00621182331815362
1773798281573678800,10.387678955078124,-0.0009017463307827711,-0.0030336068011820316,-0.006194246467202902
1773798281593642800,10.407642822265625,-0.00038748994120396674,-0.0020634171087294817,-0.00558118661865592
1773798281613607000,10.42760693359375,0.0009347695158794522,-0.003569967346265912,-0.004779042676091194
1773798281633570800,10.44757080078125,-0.0013957626651972532,-0.002139050979167223,-0.005270129535347223
1773798281653535000,10.467534912109375,-0.0007454187725670636,-0.004342816770076752,-0.00572925852611661
1773798281673499000,10.487498779296875,-0.0005526058957912028,-0.002770752878859639,-0.004730040207505226
1773798281693462800,10.507462890625,-0.000013848437447450124,-0.0020458402577787638,-0.006420615129172802
1773798281713427000,10.527427001953125,-0.0013435647124424577,-0.002662362065166235,-0.006653907708823681
1773798281733390800,10.547390869140624,-0.0008346347021870315,-0.0010048106778413057,-0.005878928117454052
1773798281753354800,10.567354736328125,0.00008921589324017987,-0.0038519962690770626,-0.005816610064357519
1773798281773320000,10.58731982421875,-0.0008953547803685069,-0.0021252024453133345,-0.005111405160278082
1773798281793283800,10.607283935546874,0.00001917476038215682,-0.0018868496408686042,-0.005991579964756966
1773798281813248000,10.627248046875,-0.0007715177489444613,-0.004703674931079149,-0.00484269205480814
1773798281833212000,10.6472119140625,-0.00015712650201749057,-0.0036487970501184464,-0.0049257827922701836
1773798281853175800,10.66717578125,0.00034115093876607716,-0.001674861996434629,-0.005711681675165892
1773798281873140000,10.687139892578125,-0.00037390782381407917,-0.003424825146794319,-0.005953496787697077
1773798281893103900,10.707103759765625,0.0005036037764512002,-0.0026320021133869886,-0.004742024466395378
1773798281913067800,10.72706787109375,0.0005520732956938446,-0.002930009737610817,-0.004233360756188631
1773798281933031700,10.74703173828125,-0.00042504051816649735,-0.0034176346380263567,-0.0057228668592870235
1773798281952995800,10.766995849609375,-0.0004945489927195013,-0.003287938656285405,-0.005557218100875616
1773798281972959700,10.786959716796876,0.0010032127611339092,-0.00270630419254303,-0.005136172287166119
1773798281992924000,10.806923828125,-0.00011851066665258259,-0.0020746025256812572,-0.006216350477188826
1773798282012888000,10.82688818359375,0.002350772265344858,-0.0035169704351574183,-0.004508997779339552
1773798282032852000,10.84685205078125,-0.001190166687592864,-0.003357979701831937,-0.005104214418679476
1773798282052816000,10.86681591796875,-0.0003222425002604723,-0.0033563817851245403,-0.006810501683503389
1773798282072779800,10.88677978515625,-0.0011747203534469008,-0.00378994457423687,-0.006720487028360367
1773798282092744000,10.906743896484375,-0.00006711165769957006,-0.002071140334010124,-0.0056949034333229065
1773798282112707800,10.926707763671875,-0.00008335694292327389,-0.003041330026462674,-0.00615163566544652
1773798282132671700,10.946671630859376,0.0008732505375519395,-0.003198456484824419,-0.00549356872215867
1773798282152636000,10.966635986328125,0.0006729807937517762,-0.003492735791951418,-0.0054389736615121365
1773798282172599800,10.986599853515624,-0.0002913498319685459,-0.002828543307259679,-0.005504221189767122
1773798282192563700,11.006563720703125,0.0010061422362923622,-0.002882871776819229,-0.006105296779423952
1773798282212527900,11.02652783203125,-0.0010487528052181005,-0.002543318783864379,-0.0057377805933356285
1773798282232492000,11.046491943359374,-0.0009171926649287343,-0.0039017973467707634,-0.00478543434292078
1773798282252456000,11.0664560546875,-0.000014647385796706658,-0.0024506407789885998,-0.0062712118960917
1773798282272419800,11.086419921875,-0.0005696501466445625,-0.0030301446095108986,-0.0054184673354029655
1773798282292384000,11.106384033203126,-0.0007539408979937434,-0.004026167094707489,-0.006770820822566748
1773798282312348000,11.126347900390625,-0.0005850964807905257,-0.003478088416159153,-0.004738828632980585
1773798282332311800,11.146311767578124,0.0006535397260449827,-0.0025417208671569824,-0.0068179587833583355
1773798282352276700,11.16627685546875,-0.0007427555974572897,-0.0033129723742604256,-0.0057284594513475895
1773798282372241000,11.186240966796875,-0.0018210695125162601,-0.003135872073471546,-0.004058657679706812
1773798282392204800,11.206204833984375,-0.0019153454340994358,-0.003933222498744726,-0.005878661759197712
1773798282412168700,11.226168701171876,-0.0008282430935651064,-0.002531867241486907,-0.005310076754540205
1773798282432132900,11.2461328125,0.00021358551748562604,-0.003201385959982872,-0.004764928016811609
1773798282452097000,11.266096923828124,-0.0007142598042264581,-0.003501524217426777,-0.005477056838572025
1773798282472061000,11.28606103515625,-0.0009933591354638338,-0.0034194989129900932,-0.005950300954282284
1773798282492024800,11.30602490234375,-0.0011209244839847088,-0.0035835495218634605,-0.0057497648522257805
1773798282511989000,11.325989013671874,-0.00005832322858623229,-0.003850398352369666,-0.005023254547268152
1773798282531953000,11.345952880859375,0.0013528858544304967,-0.0033342777751386166,-0.005402488633990288
1773798282551916800,11.365916748046875,-0.0004958806093782187,-0.0021523667965084314,-0.007131945341825485
1773798282571880700,11.385880615234376,-0.00005858954318682663,-0.0014434333425015211,-0.004434163216501474
1773798282591844900,11.405844970703125,-0.0006471481174230576,-0.002945722546428442,-0.0057585532777011395
1773798282611808800,11.425808837890624,-0.0002468750171829015,-0.003085538512095809,-0.007214237004518509
1773798282631772700,11.445772705078125,0.00013369068619795144,-0.003528155852109194,-0.007784153334796429
1773798282651737000,11.465737060546875,-0.0006844323943369091,-0.003230147995054722,-0.006683202926069498
1773798282671700500,11.485700439453124,0.000005592638444795739,-0.003486876841634512,-0.0064927865751087666
1773798282691664400,11.505664306640625,-0.0011507519520819187,-0.0025995115283876657,-0.004579039290547371
1773798282711628800,11.52562890625,0.0003677825443446636,-0.0018453042721375823,-0.00612207455560565
1773798282731592700,11.5455927734375,0.0005696501466445625,-0.0024780714884400368,-0.005320196971297264
1773798282751556600,11.565556640625,0.0010687265312299132,-0.0028429245576262474,-0.006367884576320648
1773798282771520500,11.5855205078125,0.0008333030855283141,-0.003948935307562351,-0.004570250865072012
1773798282791484700,11.605484619140626,-0.00008974852971732616,-0.0030626351945102215,-0.006328735966235399
1773798282811448600,11.625448486328125,-0.0013680658303201199,-0.001561944023706019,-0.0065226140432059765
1773798282831412500,11.64541259765625,-0.0003081277245655656,-0.0023153522051870823,-0.00561128044500947
1773798282851376600,11.665376708984375,-0.002028796123340726,-0.004057059530168772,-0.006645918358117342
1773798282871340500,11.685340576171875,-0.0002061286650132388,-0.003442135639488697,-0.006136455573141575
1773798282891304400,11.705304443359376,-0.0006697850185446441,-0.0032205607276409864,-0.005626194179058075
1773798282911268400,11.725268310546875,0.0006159891490824521,-0.0032296155113726854,-0.004537493921816349
1773798282931232500,11.745232421875,-0.0001627191377338022,-0.003038400551304221,-0.006130596622824669
1773798282951196700,11.76519677734375,-0.0011997540714219213,-0.0030836742371320724,-0.004543086513876915
1773798282971160600,11.78516064453125,0.0006958839949220419,-0.0032439965289086103,-0.004598746541887522
1773798282991124700,11.805124755859374,-0.0009038768475875258,-0.002983805723488331,-0.00612393906340003
1773798283011088600,11.825088623046875,-0.0005395564367063344,-0.003677825443446636,-0.0049343048594892025
1773798283031053600,11.845053466796875,-0.0003246393462177366,-0.0026498453225940466,-0.007106112781912088
1773798283051016400,11.865016357421876,0.00012357067316770554,-0.003931891173124313,-0.005855758674442768
1773798283070981400,11.8849814453125,-0.001219727797433734,-0.0028186896815896034,-0.0059990365989506245
1773798283090945500,11.904945556640625,-0.000474575295811519,-0.0031763522420078516,-0.00515721132978797
1773798283110909400,11.924909423828124,-0.00013209278404247016,-0.003177683800458908,-0.005902097560465336
1773798283130873600,11.94487353515625,0.0006245112745091319,-0.0015992282424122095,-0.006065615452826023
1773798283150837800,11.964837646484375,-0.0009832390351220965,-0.0032754219137132168,-0.0057372478768229485
1773798283170801700,11.9848017578125,-0.0001507349224993959,-0.0030091057997196913,-0.005362274590879679
1773798283190765600,12.004765625,-0.0009137305896729231,-0.0038059235084801912,-0.005131645128130913
1773798283210729500,12.0247294921875,-0.0003483414766378701,-0.0021675468888133764,-0.005042429082095623
1773798283230693600,12.044693603515626,-0.0009262474486604333,-0.004488225560635328,-0.005375590641051531
1773798283250657500,12.064657470703125,-0.00033342777169309556,-0.002576342085376382,-0.005784918554127216
1773798283270621400,12.084621337890624,-0.0013377057621255517,-0.0019771307706832886,-0.0034669029992073774
1773798283290585600,12.104585693359375,-0.0000929443194763735,-0.005791310220956802,-0.0070070428773760796
1773798283310549500,12.124549560546875,-0.00025353292585350573,-0.0062403189949691296,-0.005268797744065523
1773798283330513400,12.144513427734376,-0.0013938985066488385,-0.001975799212232232,-0.004818457178771496
1773798283350477600,12.1644775390625,0.0009145294898189604,0.0005685848882421851,-0.006880542729049921
1773798283370441700,12.184441650390625,-0.0004724447790067643,-0.005374791566282511,-0.004830175079405308
1773798283390405600,12.204405517578126,-0.0009619337506592274,-0.002918558195233345,-0.006256031803786755
1773798283410369500,12.22436962890625,-0.0013880395563319325,-0.0033840788528323174,-0.005520733073353767
1773798283430333700,12.244333740234374,-0.001446096459403634,-0.002332396572455764,-0.005393433850258589
1773798283450297600,12.264297607421875,0.0005398227367550135,-0.0010178601369261742,-0.008095210418105125
1773798283470261500,12.284261474609375,-0.001288171042688191,-0.0014745922526344657,-0.004781972151249647
1773798283490225700,12.3042255859375,0.0005390237784013152,-0.0041159153915941715,-0.00743101816624403
1773798283510189600,12.324189453125,0.0003075950953643769,-0.003180080559104681,-0.003870371961966157
1773798283530153500,12.344153564453125,-0.00038695731200277805,-0.0041124531999230385,-0.00708800321444869
1773798283550117400,12.364117431640626,0.0013960290234535933,-0.00173717993311584,-0.005067729391157627
1773798283570081500,12.38408154296875,0.0002585929469205439,-0.0020546286832541227,-0.006706904619932175
1773798283590045400,12.40404541015625,-0.0006508765509352088,-0.0035814191214740276,-0.005973204039037228
