ax,ay,az,wx,wy,wz,seconds_elapsed,subject,exercise,arm
-0.0081112641327083,-0.0041131949144008,0.0366822557091712,0.0006657005287706,8.04029405117e-05,-7.84627627581e-05,0.071215576171875,sn,E0,left
-0.0002963160654529,-0.0024785543337173,0.0247106628865003,0.0003340961411595,9.0005341917e-06,0.0005969245685264,0.0911806640625,sn,E0,left
0.0001886544398963,0.0024909445994766,0.0476046317398548,0.001004593912512,3.83809674531e-05,-0.0013356893323361,0.111145751953125,sn,E0,left
0.0101169596656225,0.0002198395960265,0.0363812269359827,-0.0006491430103778,-0.0013141429517418,-0.000341780600138,0.131109619140625,sn,E0,left
0.0027770634979009,0.0112156884299416,0.0303928001761436,0.0016360376030206,0.0003640712238848,0.0010759819997474,0.15107470703125,sn,E0,left
-0.003418265744578,-0.0005606558152649,0.0333867212951183,-0.0011237896978855,0.0004289224743843,-0.0009354625944979,0.17103955078125,sn,E0,left
-0.0107227252727374,-0.0010051356216659,0.044010406640172,0.0002530235797166,-0.0009684870019555,-0.0003322568372823,0.191004638671875,sn,E0,left
0.0013358517136424,0.0021755208331102,0.0300923559248447,0.0007743863388895,-0.0002516061067581,0.0005158447893336,0.21096875,sn,E0,left
-0.0006099303255788,0.002251272358396,0.0359282224714756,0.0012168353423476,-0.0015376107767224,0.0005007920553907,0.23093359375,sn,E0,left
-0.0012152210086584,-0.0046175208574801,0.0378705887109041,-3.1107570976e-05,-0.000863941386342,-0.000346123764757,0.250898681640625,sn,E0,left
-0.0104402368032373,-0.0110692394387559,0.0371218161702156,0.0014029038138687,-0.0002837441861629,-0.0001980901142815,0.270862548828125,sn,E0,left
-0.0006724193688482,0.0010905956902133,0.0449023870438337,-0.0020415694452822,-0.0007722720038145,0.0002205973432864,0.29082763671875,sn,E0,left
0.0041552747822366,-0.008329141242156,0.0425076008617877,0.0006552916020154,0.0005012822803109,0.0001739669241942,0.31079248046875,sn,E0,left
-0.0048306898257695,-0.0030906766163825,0.0345768078625202,-0.0001493259333074,-0.0001155654899775,0.0016233979258686,0.3307578125,sn,E0,left
0.0019932744427584,0.0026205942945554,0.0481949988484382,0.0005321837961673,0.0001001432538032,-0.0018263375386595,0.350721923828125,sn,E0,left
-0.0028757380994036,0.0003035906230332,0.028594226321578,0.000246915500611,0.0003302935510873,2.21620575757e-05,0.370686767578125,sn,E0,left
0.0108624808032996,-0.0098784210773475,0.0294926364660263,-0.0004956987686455,-0.0001053772866725,0.0011097928509116,0.390651611328125,sn,E0,left
0.0001853665042668,0.0032862277295906,0.0419108040124177,0.0002474626526236,-0.0008848758880048,-0.00017097457021,0.41061572265625,sn,E0,left
0.0027511984042823,-0.0134488223434484,0.0308370368123054,0.0006566019728779,0.0014187811175361,1.85965291166e-05,0.430580810546875,sn,E0,left
-0.0018452808068133,0.0115165151320863,0.0478980617284774,-0.000151150394231,-0.000729194143787,0.0001953905884874,0.450545654296875,sn,E0,left
-0.0076458203117363,-0.0127869095272384,0.0443090973258018,8.5306353867e-05,-2.61019449681e-05,0.0012173515278846,0.470509521484375,sn,E0,left
-0.0120621754492633,0.005692569635401,0.0369751011759042,-0.0002457750961184,-0.0007875994779169,-0.0005978267872706,0.490474609375,sn,E0,left
-0.0106139311360195,0.0119237088351335,0.0486480033129453,-0.0005816114135086,0.0002239237073808,0.0002030414470937,0.510439697265625,sn,E0,left
-0.0064529755316674,0.0036290395430929,0.0517909775137901,0.0011221468448638,0.0010366754140704,-0.001309604384005,0.53040478515625,sn,E0,left
-0.0093729911642149,-0.0040846229821094,0.0368254635721445,0.000821906607598,-0.0008813224267214,-0.0008696196600794,0.550368896484375,sn,E0,left
0.0169369053461588,-0.0021335813875251,0.0734820003181696,-0.0001750569790601,-0.0016344578471034,-0.0015689053107053,0.570333740234375,sn,E0,left
0.0456345920422114,-0.0103680357917735,0.0577624531388282,0.0012750369496643,-0.0015323162078857,-0.0011632749810814,0.590298828125,sn,E0,left
0.0545771741662174,-0.0005371322341379,0.2127577845394611,0.0157976280897855,-0.0199098046869039,-0.0006808553589507,0.610262939453125,sn,E0,left
0.1192638188113458,-0.1690841355729848,-0.0332885216176509,-0.0306119341403245,0.0079183671623468,0.0003754462231881,0.630227783203125,sn,E0,left
-0.1611784222160465,0.0215385950219118,0.0360275911927223,0.0124610150232911,0.0055878385901451,0.000222856469918,0.650192626953125,sn,E0,left
-0.3216955675117671,0.1270619527411181,0.4342173464506864,0.0147912185639142,-0.0020594343077391,0.0078753484413027,0.670156494140625,sn,E0,left
-0.1293815273956395,0.1061372929330449,0.0860042127609252,0.0145657761022448,-0.0004908461123704,0.0078564118593931,0.690121826171875,sn,E0,left
0.1432104567890986,0.0509179849383886,0.2106447379082441,0.0004983493126928,-0.0022418824955821,0.0001945708063431,0.710086669921875,sn,E0,left
0.2035527338206768,-0.0052007212938711,-0.0832441003978252,-0.0037302523851394,0.002364344196394,-0.011434075422585,0.7300517578125,sn,E0,left
0.1320085514309815,-0.1498446980386506,0.067744333449006,-0.0055656833574175,-0.002560930326581,-0.0090035470202565,0.750015869140625,sn,E0,left
0.1436827322096563,-0.1470669495541602,0.1045376483172178,-0.0038630161434412,-0.0039731934666633,0.0015053973766043,0.769980712890625,sn,E0,left
-0.0535296196083538,0.0808673795954324,-0.0968804115623235,0.0012344284914433,-9.85458027571e-05,0.0056664398871362,0.789945556640625,sn,E0,left
0.0585035172970965,0.0422759155643405,0.0635293461024761,0.0024929298087954,0.0007126424461603,0.0042963996529579,0.809909912109375,sn,E0,left
-0.0381812438289634,-0.0082836729739909,0.0229781400054693,0.004094788338989,-0.000335821416229,0.0008023789850994,0.829874755859375,sn,E0,left
-0.1306221020412631,-0.0226470996865071,0.1153010343939065,0.001908462960273,-0.001552126603201,-0.0030181840993463,0.849839599609375,sn,E0,left
-0.3108653267439454,-0.0542645280204713,0.0124900637388229,-0.0008160322904586,-0.0019840726163238,-0.0013752427184954,0.869804931640625,sn,E0,left
-0.2430121808919124,0.0122672056352254,0.036723756763339,-0.0004233429208397,-0.0027127000503242,0.0031902422197163,0.889768798828125,sn,E0,left
0.0526812408844009,0.0771592549256514,0.0287841959357261,0.0016613062471151,-0.0030285846441984,0.0040976903401315,0.909733642578125,sn,E0,left
0.2579113698653876,0.0879583151039201,0.04045183737576,0.0013092011213302,-0.0013052299618721,0.0003362883871886,0.92969873046875,sn,E0,left
0.3282002001654356,-0.0305978623281465,0.0404471612006425,0.0020667621865868,0.0003435222897678,-0.0017594636883586,0.94966259765625,sn,E0,left
0.1320581444600597,-0.0638635556260589,0.0696259094119071,0.0014062519185245,0.000744323246181,7.0016903919e-06,0.969627685546875,sn,E0,left
-0.0667440520989708,-0.0848940686950925,0.030267127969861,0.0008006333373486,-0.0012317437212914,0.0005720326444134,0.989592529296875,sn,E0,left
-0.160977218821831,-0.03450040445833,0.0485194084972143,0.0001812749542295,-0.0023561210837215,0.001720672706142,1.009556884765625,sn,E0,left
-0.1184133759944699,0.0397799888290697,-0.0013140052080154,0.0017072819173336,-0.0009374534711241,0.0005601590382866,1.029521728515625,sn,E0,left
-0.0793112909935414,0.1169525827269069,0.064965516385436,0.0013595083728432,-0.0011561228893697,-0.0004335131670814,1.04948681640625,sn,E0,left
-0.053842320553027,0.0370827856343472,0.0057061026871204,0.0036466736346483,-0.0004159989766776,-0.0003046425408683,1.069451904296875,sn,E0,left
-0.0147198503511957,-0.0506165771392872,0.062265025255084,0.0020781802013516,-0.000932375434786,-0.0003961446636822,1.089415771484375,sn,E0,left
0.0924402736904099,-0.0844940273936837,0.0389180519372224,9.19206067919e-05,-0.0007766142953187,0.0011256944853812,1.109380615234375,sn,E0,left
0.1076507753690704,-0.0227859053689986,0.0444528897106647,-5.65452501177e-05,0.0005789487622678,0.0005800407961942,1.129345947265625,sn,E0,left
0.1016226011207327,0.0056846403448056,0.0517827942073345,-0.0006698714569211,-0.0002575502730906,-0.000693482812494,1.149309814453125,sn,E0,left
0.0558972620551474,0.0703554475291632,0.034573300731182,0.0019112802110612,-0.0005560889840126,-0.0017296269070357,1.169274658203125,sn,E0,left
-0.053996177674178,0.0642729127450846,0.0413052393347024,0.0006403112784028,-2.26686242967e-05,-0.0020200219005346,1.189239501953125,sn,E0,left
-0.1167149928450584,-0.0089840352291124,0.0314297420084476,0.0005608722567558,0.0003565575461834,-0.0002974162634927,1.20920458984375,sn,E0,left
-0.1113820891181938,-0.0350932946008513,0.044150107371807,-3.41897830367e-05,-0.0006309268064796,0.0010646443115547,1.2291689453125,sn,E0,left
0.0083133991086855,-0.0120257615621667,0.0354717108756303,0.0008231168612837,0.0012519041774794,-0.0001263681333512,1.2491337890625,sn,E0,left
0.0495366044494323,-0.0200441734793828,0.0366670581400394,-0.0003242082893848,-0.000124127138406,0.0022976878099143,1.269098876953125,sn,E0,left
0.0376992507319897,0.0193776472784928,0.0260404501855373,0.001019924879074,-0.0002991207875311,0.0008440877427347,1.289062744140625,sn,E0,left
0.0231364541060291,0.0193624337263405,0.0366623819649219,0.0009722081013023,0.0004644026048481,0.0002216976135969,1.309027587890625,sn,E0,left
0.044423188692145,-0.0217825872450834,0.0374129080712795,0.0007108910940587,0.0017594007076695,-0.0012071894016116,1.328992919921875,sn,E0,left
0.0008743716817349,7.90480232477e-05,0.0356201794356107,0.0007589301094412,0.0001615425571799,-0.0013740949798375,1.348957763671875,sn,E0,left
-0.0263500641239807,0.0084775116207252,0.04145896859169,-0.0012143538333475,9.2789530754e-05,-0.0029070945456624,1.368921630859375,sn,E0,left
-0.0514865694734267,0.0158903326024068,0.0570212793827056,0.0004565687850117,0.0003207901027053,1.25943261082e-05,1.388886474609375,sn,E0,left
-0.0502542329331859,0.0396461013502906,0.0294902983784675,0.0021244357340037,0.0008115749806165,0.0002252235717605,1.408851806640625,sn,E0,left
0.0015881825068965,0.0160434670627058,0.0330833544343709,-0.0004468252882361,-2.8328737244e-05,-0.0003725437563844,1.428815673828125,sn,E0,left
0.0401530005596578,-0.0134071774420968,0.0320364757299423,-0.0005528545007109,-0.0007003031205385,0.000607029069215,1.448780517578125,sn,E0,left
0.0367068421611562,-0.0271667051359545,0.0552279662251472,0.0002497690729796,-0.0004605955909937,0.0005981954163871,1.46874560546875,sn,E0,left
0.0084949844869785,-0.0252539257506141,0.0217073894172906,0.0009921970777213,0.0004198388196527,0.0002201916358899,1.488710693359375,sn,E0,left
0.0030668584910221,-0.0321123151618405,0.0463987630814313,0.0010948358103632,0.0010851079132407,-0.0005533460644073,1.5086748046875,sn,E0,left
0.0036603126058354,-0.0083614189518964,0.0570259555578231,-2.02907249331e-05,0.000299202511087,-0.0013505315873771,1.528639892578125,sn,E0,left
-0.027519875088334,0.0536617261220002,0.042661914640665,0.0012990087270736,-0.0004345015622675,-0.0019938687328249,1.548604736328125,sn,E0,left
-0.0336755116412416,-0.0033725979740687,0.0399719449043273,-0.0009402381256222,0.0002677673473954,-0.0021449709311127,1.56856982421875,sn,E0,left
-0.0268533557373099,-0.0050333779284177,0.0410205771744251,-0.0008404157124459,0.0006792210042476,-0.0012735940981656,1.588533935546875,sn,E0,left
-0.0042186040757223,0.0301550527473795,0.0502969395637512,0.000252760015428,0.0001290347427129,9.28286463022e-05,1.608498779296875,sn,E0,left
0.0036987997190095,0.0159670008680783,0.0452098455578088,-0.0002079978585243,-0.0004360913299024,-0.0008173572132363,1.628463623046875,sn,E0,left
-0.002613854026515,-2.11067201104e-05,0.0306926599055528,0.0010794359259307,0.0007088081911206,0.0001217745448229,1.648427490234375,sn,E0,left
0.0094519564182497,-0.0008646879692372,0.0410159009993076,-0.0005651507526636,-0.0005168165080249,0.0001100737863453,1.668392822265625,sn,E0,left
0.0182432935032993,-0.0120961827501421,0.0447574256151914,-0.0004723058082163,0.0006944073829799,-0.0004431193228811,1.688357666015625,sn,E0,left
0.0072593417447991,-0.0104464382151607,0.0332335765600204,1.77617184817e-05,-0.0002028066664934,-0.0004412457346916,1.708322509765625,sn,E0,left
-0.0007282412093132,0.0071481170473329,0.0585235006392002,-8.03405418992e-05,0.0004336484707891,-0.0013792858226224,1.728286865234375,sn,E0,left
-0.0177785620683804,-0.006204482946603,0.0411655386030673,0.0004108599387109,2.46290583163e-05,-0.001094959792681,1.748251708984375,sn,E0,left
-0.0281117583005689,0.0049304472769057,0.0239601367801427,-0.0003052949905395,0.0013535431353375,-0.0004637081292457,1.768216796875,sn,E0,left
-0.0196828978523612,0.006086972355534,0.0369803618729114,0.0005615181289613,0.0006299572996795,-0.0004466732498258,1.788181884765625,sn,E0,left
0.0211923890998587,0.0157186350055329,0.048355742368102,0.0004610051400959,0.0009553527925163,-0.0003642818774096,1.808145751953125,sn,E0,left
0.0241277849646285,0.0063620526950689,0.0519452912926673,0.0003076582215726,0.000128743937239,-0.0007426517549902,1.828110595703125,sn,E0,left
0.0108829938683658,0.0025938781050994,0.0383265157848596,-0.0018162732012569,0.0005529788322746,-0.0003387514152564,1.848075927734375,sn,E0,left
0.0033562881579622,0.0074121959314186,0.0356342079609632,0.0012294081971049,0.0001487208064645,-4.68502112198e-05,1.868039794921875,sn,E0,left
0.0244639398501254,-0.0049524604626029,0.0306955825150012,0.0004758560098707,-0.0004020077176392,-0.0012189713306725,1.888004638671875,sn,E0,left
0.0201044477326795,0.0071807926201174,0.0420715475320816,0.0009221644140779,0.0007114266045391,-0.0013598260702565,1.907969482421875,sn,E0,left
-0.0091243318990804,-0.0043821394865604,0.0387806892931461,0.0015070396475493,0.0005377936176955,-0.0014072209596633,1.927934814453125,sn,E0,left
-0.0248761008475907,0.0085767079536803,0.0299526551932096,0.0011485554277896,0.0003588558174669,-0.000301870459225,1.947898681640625,sn,E0,left
-0.0396981511979363,-0.0057797918319498,0.0437163921296596,-0.0004283394664525,-0.0007834073621779,-0.0002634944976307,1.96786376953125,sn,E0,left
-0.0299332929056137,-0.001632881877615,0.0455114588528871,0.0001472597941756,0.0005324708763509,-0.0008429797599092,1.987828857421875,sn,E0,left
-0.018862156054005,0.0126305156724178,0.0568839167386293,0.0003340933471918,2.11300794035e-05,0.000870828400366,2.007793701171875,sn,E0,left
0.0037321722656488,0.0019277720293175,0.0425157841682434,-0.0008682226762175,-0.0009325670544058,-7.29414168745e-05,2.0277578125,sn,E0,left
0.0254013850970193,0.0080686568251985,0.041615620458126,-0.0001981272362172,0.0005444269627332,0.0004557054198812,2.047722900390625,sn,E0,left
0.0264223439089022,0.0020712083638594,0.029944471886754,0.000300106126815,-0.0002366832923144,0.0003877854614984,2.067687744140625,sn,E0,left
0.0188447299951687,0.0029557742158067,0.0573269843310117,0.0014432813040912,-0.0009400385897606,-0.0013679726980626,2.087652587890625,sn,E0,left
0.0025331900057382,0.0045262829270504,0.047600540086627,0.0003250231966376,0.0001439000479876,0.0003926990611944,2.107616455078125,sn,E0,left
-0.0148171732458285,0.0039728294603628,0.0471545498847961,5.79683110117e-05,0.0014403337845578,-0.0010809932136908,2.127581787109375,sn,E0,left
-0.0306970072871074,-0.0025864437173149,0.0493996984630823,0.0005707880482077,0.000385709805414,-0.0006613894947804,2.147546630859375,sn,E0,left
-0.0242892591366544,-0.009759776833473,0.0459586180984973,0.0004533277824521,0.0002112709917128,-0.0010500365169718,2.16751171875,sn,E0,left
-0.0098798629741184,-0.0023359252844122,0.038924481678009,0.0011649811640381,-0.0009184668306261,0.001101842848584,2.18747607421875,sn,E0,left
-0.0080877371266484,0.0034305566872819,0.0344324309557676,-0.0003196224570274,-0.0007959173526614,-0.000933178293053,2.20744091796875,sn,E0,left
0.0234112341931089,0.0011698896664584,0.0324859730631113,-0.0015634843148291,-0.0005256256554275,-6.38679339317e-05,2.227406005859375,sn,E0,left
0.0295958593784831,0.0131397255698801,0.0369739321321248,-7.6696742326e-05,0.00010476866737,-0.0015150697436183,2.247370849609375,sn,E0,left
0.019705018352624,0.0083894885606889,0.0350286432832479,0.0011587385088205,0.0001414890866726,-0.0007297594565898,2.267335205078125,sn,E0,left
0.0090513214617967,-0.0037917381286475,0.039219080710411,-0.0002395212650299,-0.0003461162559688,-0.0009761563269421,2.287300048828125,sn,E0,left
-0.0048498511839658,0.0183514905600401,0.0327846637487411,9.08314250409e-05,7.78725370764e-05,-0.0003788731992244,2.30726513671875,sn,E0,left
-0.0260719413023442,0.0196224934516125,0.0481967524141073,-0.0004562577232718,-0.0007202853448688,-0.0002230051031801,2.32722998046875,sn,E0,left
-0.0185808731609024,-0.00309068917447,0.0408645098298788,0.0002399934455752,0.0003106051590293,0.0001189992617582,2.34719384765625,sn,E0,left
-0.0159850114488042,0.0014871932215435,0.0236550163537263,0.0006964136846363,0.0003702547401189,0.0006369748152792,2.3671591796875,sn,E0,left
-0.0014007519097067,-0.0023574723938174,0.0356248556107282,-0.0010449835099279,0.0013286989415064,-0.0017130451742559,2.3871240234375,sn,E0,left
0.0101647443301044,-0.0164791744741844,0.0422077411323785,-0.0002036448568105,-0.0002313428558409,-0.0025524080265313,2.4070888671875,sn,E0,left
0.001047718954645,0.0001714735491768,0.0404091672778129,-1.14692375063e-05,-0.0015970240347087,-0.0002640644379425,2.427052978515625,sn,E0,left
0.0119778946992941,0.0018248011348434,0.030080665487051,0.0008728918619453,-0.0013666697777807,-3.0165672797e-05,2.44701806640625,sn,E0,left
-0.0148732508146204,0.0036991033963975,0.0356155032604932,0.0007447674870491,-0.0009900706354528,0.00095587503165,2.46698291015625,sn,E0,left
-0.0060667709593661,0.0052596849394933,0.0366664736181497,3.00616957247e-05,-0.0003397476393729,0.001887944061309,2.486947998046875,sn,E0,left
0.0024236286840401,0.0155821046201628,0.0344230786055326,0.0013935887254774,-0.0004944475367665,-0.0014658104628324,2.506912109375,sn,E0,left
-0.008468845398724,0.0132664686385309,0.0300830035746097,0.0005008825100958,-0.000488057732582,0.000644386454951,2.526876953125,sn,E0,left
-0.0021268376945517,0.011984582451696,0.0374140771150589,0.0010580266825854,-0.0005735750310122,0.0007762488676235,2.546842041015625,sn,E0,left
-0.0044103637881577,0.0095230323392403,0.0522287844091653,0.0006036050617694,-0.0004454557783901,0.0006378018297255,2.56680712890625,sn,E0,left
0.0086604041817598,-0.0050677790965855,0.0345703781217336,0.0001012124121189,-0.0003546560183167,0.0013987307902425,2.58677099609375,sn,E0,left
-0.0072702832639217,-0.0070182116239273,0.0390612598001956,-0.0005388460122048,-0.0008622352033853,-0.0004969618748873,2.606736083984375,sn,E0,left
-0.0076845083543099,-0.006297544083005,0.0323263985872268,-0.0001651593483984,-0.0006153550930321,0.0001137103099608,2.626701171875,sn,E0,left
-0.0079697185038588,0.0084118442396807,0.0474397965669631,0.0001772595569491,-0.0005397601053118,-0.0008670227834954,2.646666015625,sn,E0,left
0.0109802436977624,0.0159441542820306,0.0386123469889163,0.0005419687367975,-0.0003512054681777,-0.0003606582176871,2.666630859375,sn,E0,left
0.0171567038429901,-0.000370811460904,0.0547720391511917,0.0010540946386754,0.0008908926974982,-0.0016520250355824,2.686594970703125,sn,E0,left
0.0035998328565619,0.0044875329502727,0.0224520703047513,0.000176552683115,0.0005460099782794,0.0004921684740111,2.70656005859375,sn,E0,left
-0.0115964393673464,0.0149951327617745,0.0378635744482278,0.0010426393710076,-0.0005680182948708,-0.0004256952670402,2.72652490234375,sn,E0,left
0.0050093891272321,-0.0035762539056857,0.0448965418249368,0.0005609327927231,-0.0003991669509559,-0.0003542214399203,2.746489990234375,sn,E0,left
-0.0001005012324079,0.0041000754233347,0.049685529667139,0.0016978625208139,-0.000927705084905,0.0004101919475942,2.766453857421875,sn,E0,left
-0.013076156531088,0.0061547192416997,0.0363671984106302,0.0002122167497873,0.0006000441499054,-0.0010693484218791,2.7864189453125,sn,E0,left
0.0136124188322573,-0.0073072040410945,0.0323287366747856,0.0001485371030867,-0.0002989466302096,8.4919949586e-05,2.806384033203125,sn,E0,left
0.007478665317595,0.0017419542901348,0.0399602544665336,0.0013447310775518,0.0001897739712148,-0.0009369899635203,2.826348876953125,sn,E0,left
0.0099380594347603,0.0076154228901839,0.0365174205362796,-0.0001764437183737,-0.0006586860399693,-0.0007432323764078,2.84631298828125,sn,E0,left
-0.003532978165429,0.0058121802811889,0.0401058004170656,0.0009364900179207,0.000383086502552,-0.0006897557759657,2.8662783203125,sn,E0,left
-8.72216257266e-05,0.0071180090326146,0.0377145213663578,0.0011792369186878,0.0005372108425945,0.0017069848254323,2.8862431640625,sn,E0,left
0.0037708968408405,0.0185973904708633,0.0374158306807279,0.0015276293270289,-0.0004511645529419,-0.0001789881498552,2.9062080078125,sn,E0,left
0.0027693003165535,-0.0045606746766527,0.0519324318110942,-2.94540077447e-05,0.0004024971276521,-0.0001215362135553,2.926171875,sn,E0,left
-0.0053068742364645,0.0091824387406435,0.03547229539752,0.0004805172793567,-0.0012819243129342,0.0006242980016395,2.94613720703125,sn,E0,left
-0.005321286354307,0.0060528605942003,0.0396627328246831,0.0010388405062258,0.0006499525625258,0.0011420988012105,2.96610205078125,sn,E0,left
-0.001056358918827,-0.0053742746335803,0.0285907191902399,-0.0013970024883747,-0.0003746841102838,0.0003426422481425,2.98606689453125,sn,E0,left
-0.0094172869636677,-0.0001861360438884,0.0417582437992095,0.0013132565654814,0.0001357386354357,0.0001175737124867,3.006031005859375,sn,E0,left
-0.0023805201946757,-0.0036769808982571,0.0377180284976959,0.0002942271530628,0.0002847781870514,0.0006549530662596,3.025995849609375,sn,E0,left
-0.0037373964300379,0.0050499665911484,0.0309849208503961,0.0003083073534071,-0.0001834025606513,0.0005154522368684,3.0459609375,sn,E0,left
-0.0113589590833522,0.0205023039268678,0.0481926607608795,0.0001152935437858,-0.0001891534775495,0.0002630910021252,3.065926025390625,sn,E0,left
0.0004691153490915,0.0093839732117106,0.0323310747623443,-0.0004547163844108,0.0010872340062633,-0.0004607350856531,3.08589013671875,sn,E0,left
0.0056419879423454,0.0224669367970316,0.0489420178234577,-0.0011544409207999,-0.000249823089689,0.0011012351606041,3.10585498046875,sn,E0,left
0.0122821200765669,-0.0144730565328733,0.0315799641340971,8.51736404001e-05,0.0003078980371356,-0.0008800966897979,3.1258203125,sn,E0,left
-0.0048568471803329,0.0068771671769325,0.0499842203527688,-0.0009396718814969,-9.1309193521e-06,-0.001097974833101,3.14578515625,sn,E0,left
-0.0017937698152847,0.0055667136243835,0.022745500293374,0.0005394811742007,-0.0008893264457583,-0.0004435587325133,3.1657490234375,sn,E0,left
0.0038054749638773,-0.0042298678239531,0.0309743994563817,-1.04340724647e-05,0.0004782166797667,-0.0002281016786582,3.18571435546875,sn,E0,left
0.0029379714143462,0.0072044651858275,0.0405506215751171,0.0023945018183439,-0.0001741228625178,0.0018007004400715,3.20567919921875,sn,E0,left
-0.0100155633840709,0.0058143653884093,0.0369581500411033,0.0004277084954082,-0.0002655717544257,-0.0007354576955549,3.225644287109375,sn,E0,left
-0.0054593613844364,0.0004778968058159,0.05222001658082,0.000202611554414,-0.0009298233781009,-0.0006823332514613,3.245608154296875,sn,E0,left
0.0006314297713339,0.0054948174319521,0.0342611660420894,0.0005411058664321,0.000132423825562,0.0016818901058286,3.2655732421875,sn,E0,left
0.0082410097259096,0.0113240076426242,0.0421925435632467,-0.0005983542650938,-0.0001298766583204,-0.001490585040301,3.2855380859375,sn,E0,left
0.0032861820638179,0.0178560123604082,0.0287251592248678,-0.0005000913515686,0.0002026951406151,-0.0001462106738472,3.30550341796875,sn,E0,left
0.000308463160973,0.008129964266601,0.0380026906579732,8.4581784904e-05,-0.0009345705620944,-0.0002220910973846,3.32546728515625,sn,E0,left
-0.0022682737255468,0.0014145526770182,0.0492231728523969,-8.42991285026e-05,-0.0001180639956146,-0.0009328469750471,3.34543212890625,sn,E0,left
-0.0080587850267998,-0.0028919177680581,0.0359042570739984,-0.0006877798587083,0.0007412135601043,-0.0004641620034817,3.36539697265625,sn,E0,left
-0.0026660226051695,0.0002660665581923,0.0381488211303949,0.0005225213244557,0.0006774149369448,0.0004022741341032,3.3853623046875,sn,E0,left
0.0021504560321569,0.0036191249330324,0.0447352137833833,-0.0002088057808578,0.000342319952324,-0.0009917999850586,3.405326416015625,sn,E0,left
0.0200469819243997,0.0099169881056237,0.0463794738590717,0.0008397693745791,-0.0003751176409423,0.0002042717242147,3.425291259765625,sn,E0,left
0.0034231976480223,-0.001816586147758,0.0282739083260297,0.0003016693517565,-0.0002577542327344,-0.0017428959254175,3.44525634765625,sn,E0,left
0.0104044713701121,0.0065781288606085,0.0439870257645845,-0.0006551244296133,0.0008994515519589,-0.0005217274883762,3.46522119140625,sn,E0,left
-0.0016527173767797,0.0035745528556552,0.0378536375761032,0.0005480824038386,-0.0006521344184875,-0.0004564229748211,3.485185302734375,sn,E0,left
-0.0069194057333283,0.0053006922324944,0.0478799415498971,0.0006000022403895,-0.0012213706504553,-0.0002058134414255,3.505150390625,sn,E0,left
-0.014488087421935,-0.0018983599895153,0.0303705883443355,-0.0013883840292692,-0.0002337028272449,-0.001464168773964,3.525115234375,sn,E0,left
-0.0029944325756281,-0.0025244609932997,0.0246878665328025,-0.000897186808288,0.0003424540627747,0.0004500999348238,3.545080078125,sn,E0,left
-0.0138653706800192,0.018958120391902,0.0329202728271484,-0.0008631036616861,0.0008251287508755,-0.00104727584403,3.5650439453125,sn,E0,left
0.0167750475816428,0.0062352074492519,0.0462415266931056,0.0014033084735274,0.000280647072941,-0.0006245073745958,3.58500927734375,sn,E0,left
-0.0020729155502282,-0.0248923213300295,0.0421983887821435,0.0006864303722977,0.0005830784793943,-0.0004917653277516,3.60497412109375,sn,E0,left
-0.0052349232451058,0.0040287409199067,0.0294791924625635,-0.0002453536726534,0.0013687573373317,-0.0011490051401779,3.62493896484375,sn,E0,left
0.0022531674879603,-0.0006641478703691,0.0420487511783838,0.0011143097653985,-0.0005046417936682,0.0006498538423329,3.6449033203125,sn,E0,left
-0.0040870318516157,0.0145990894987597,0.0199035548657178,-0.0009863814339041,-0.0008501273114234,0.0013307166518643,3.664868408203125,sn,E0,left
-0.0014771781467832,0.0258641072379425,0.0450444258630275,-0.0021251016296446,0.0004911494906991,-0.0003701314853969,3.684833251953125,sn,E0,left
-0.0018998422719538,0.0187149786937457,0.0369634107381105,0.00117659708485,-0.0008953080978244,-0.0006061738822609,3.70479833984375,sn,E0,left
0.0128912832171656,-0.0093503340911236,0.0486328057438135,0.0010568853467702,0.0008700005710124,-0.0004515460750553,3.72476220703125,sn,E0,left
-0.0172888605889864,-0.0321292914128163,0.0532704024165868,0.0010369061492383,0.0005587718915194,-0.0003027309721801,3.744727294921875,sn,E0,left
-0.0207236208106391,-0.0083378959415917,0.0534171174108982,-5.6442804634e-06,-0.0006764244753867,-0.0006124911596998,3.7646923828125,sn,E0,left
-0.0038193390924483,0.0026193892889801,0.0492272645056247,0.0011113514192402,-0.0003437576815485,0.0010795723646879,3.7846572265625,sn,E0,left
0.0189800285463221,0.0093106225644209,0.0266308172941207,0.0007223286665976,0.0007934181485325,-0.0004137945943512,3.80462109375,sn,E0,left
-0.0040534766418859,0.0053070757366862,0.0302221197843551,0.000610395334661,-0.000499818008393,-0.0010957040358334,3.82458642578125,sn,E0,left
-0.0108315924746915,-0.0003646216438057,0.0411433267712593,0.0004701255820691,0.0005032361950725,-0.0007886739913374,3.84455126953125,sn,E0,left
0.00857247016998,-0.0179939241354004,0.0516162054687738,0.0014698239974677,-0.0008851552847772,-0.00037079906906,3.86451611328125,sn,E0,left
-0.010577033191733,0.0133261629365151,0.03605038754642,0.0014242115430533,-0.0009827574249356,-6.44223327981e-05,3.88447998046875,sn,E0,left
0.0014116751625202,-0.0024679527391897,0.0116594581335783,-0.0008659651502966,-0.0016476302407681,-0.0008199351141229,3.904445068359375,sn,E0,left
-0.0006187894854694,0.0168474107065994,0.017943068447709,0.0004797563888132,0.0012142034247517,-6.2017381424e-05,3.92441015625,sn,E0,left
-0.0003119885586202,0.0348017871412565,0.0402414094954729,-0.0006379075348377,-1.04897189885e-05,-0.0002326883841305,3.944375,sn,E0,left
0.0091388901473954,0.0247646078637102,0.0552051698714494,0.002373183844611,9.23415645956e-05,0.000430226442404,3.96433935546875,sn,E0,left
0.0216391830192878,0.0071159911762864,0.0317103125154972,-0.0004137214273214,0.0002572222147136,-0.0001555301278131,3.98430419921875,sn,E0,left
-0.003079991967231,-0.0055445914116542,0.0438315429419279,0.0008617122657597,0.0014358750777319,-0.0013059626799076,4.004269287109375,sn,E0,left
0.0030462906270287,-0.0019834600119866,0.0499666846960782,0.0004567466676235,-0.0001746595371514,-0.0005774029996246,4.024234375,sn,E0,left
0.0078041344122961,0.0057240784476947,0.045478141105175,0.0009436625987291,-0.0002161264419555,0.0003991769626736,4.0441982421875,sn,E0,left
-0.002536569272913,0.0060140349834866,0.0366465998739004,0.0005741873756051,-0.0011569089256227,0.000884314184077,4.0641630859375,sn,E0,left
-0.0108171072916127,0.0005890887523608,0.0363484937101602,0.0012901430018246,-0.0017067538574337,-0.0007237035315483,4.08412841796875,sn,E0,left
-0.0111249311317689,0.0040750639942532,0.0213818107247352,-1.93919986486e-05,-0.0004522837698459,0.0010319370776414,4.10409326171875,sn,E0,left
0.0007898900023661,0.0049086504328064,0.0391898546159267,0.0012713689357042,0.0008367951959371,0.0013175130588933,4.12405712890625,sn,E0,left
0.0047018758143298,0.0170416843198181,0.0423316597729921,0.0002082157880067,0.0005043854471296,0.0006947691435925,4.14402197265625,sn,E0,left
0.0056492579333484,6.84669783178e-05,0.0498129554390907,0.0017768954858183,-0.0002586445771157,0.0005648709484376,4.1639873046875,sn,E0,left
-0.0148524454886093,-0.009071353894606,0.0405325013965368,0.0005585877224802,0.0001513904426246,-0.0010401998879387,4.18395166015625,sn,E0,left
-0.0221018503612838,0.0129717565833416,0.0348445188879966,-0.0009235613979399,-0.0012859802227467,0.0003476155106909,4.20391552734375,sn,E0,left
0.0101840883513912,0.0176359273108537,0.0322983415365219,0.0009737964719533,-0.0007601741235703,-0.0003524534986354,4.223880859375,sn,E0,left
0.009957366923429,0.0167984558566939,0.0273585470467805,0.0005566515028476,-0.0016225499566644,0.0010523439850658,4.243845703125,sn,E0,left
0.0010593728598207,0.006069185537094,0.0463578465491533,-8.86502675712e-05,-0.0016261537093669,-3.2365496736e-06,4.263810546875,sn,E0,left
-0.0145239807192236,-0.0155315526098594,0.0494949755311012,0.0001141121610999,-0.001287099905312,1.7148151528e-05,4.2837744140625,sn,E0,left
-0.0112530144908465,-0.0016392725170837,0.0385655852377414,0.0009898096323013,-0.0009843045845627,0.0010916884057223,4.303739501953125,sn,E0,left
-0.0055419251013547,-0.0148199497248046,0.0396095413327217,0.0001715118996798,0.0006230270955711,0.0005883938865736,4.32370458984375,sn,E0,left
-0.0115397590103559,-0.0016360182599615,0.0343693025916814,0.0018102866597473,0.0002855809871107,0.0022159651853144,4.343669677734375,sn,E0,left
-0.0078408131608739,0.0584715284233679,0.0301806187301874,0.0006191786378622,4.02720179408e-05,-0.0009310158202424,4.363633544921875,sn,E0,left
0.0614046638323925,0.0715602019427344,0.0572656095325946,0.0009097619913518,0.0002287647221237,-0.0011472997721284,4.383598388671875,sn,E0,left
0.0381986698877997,0.0040917431322959,0.029582652837038,0.0013253758661448,0.0009989389218389,0.0004222568240948,4.4035634765625,sn,E0,left
-0.0071968161689117,0.0008191474920691,0.042602293407917,-0.0007375627756118,9.45529900491e-05,-0.0025512077845633,4.423528564453125,sn,E0,left
-0.0333628837618045,-0.0370608181144227,0.0303349325090646,-0.0006106738001108,-0.0007531181909143,0.001693540951237,4.44349267578125,sn,E0,left
-0.0094170312353409,-0.0074881757855677,0.0640033933550119,-0.0001056105829775,0.0005853192415088,0.0007932578446343,4.46345751953125,sn,E0,left
-0.0121649599703028,0.0361929903379059,0.0505401006698608,0.0014334674924612,0.0001408103853464,0.0006110710091888,4.4834228515625,sn,E0,left
-0.0132929045543074,0.0030935153149737,0.0441039301425218,-9.5437280833e-06,0.0003175847232341,-0.0005761971697211,4.50338671875,sn,E0,left
-0.0153655095772817,-0.0188534487328084,0.0355745867282152,5.82104548811e-05,0.0002125629689544,0.0004097901401109,4.5233515625,sn,E0,left
-0.0009814122527837,-0.0106758253826003,0.0559247163176536,-0.0011447528377175,0.0011382057564333,-0.0008144029416143,4.543316650390625,sn,E0,left
0.0167572013976983,-0.0019824316758691,0.0517331098467111,-0.0002203839831054,-0.0020067852456122,-0.0014715794241055,4.56328173828125,sn,E0,left
0.0234398027004674,0.0097842719539126,0.0497831448227167,0.0012031532824039,-0.0007357287686318,-0.0002513426588848,4.58324560546875,sn,E0,left
-0.0056125791847705,0.0086142349439847,0.0360135626673698,-0.0004232334904372,0.0001731375232338,-0.0004447632236406,4.60321044921875,sn,E0,left
-0.0116061205111443,0.0129019975490693,0.0295762230962514,0.0002391217276453,-0.0014785574749112,-0.0005282021011225,4.623175537109375,sn,E0,left
-0.0079771163590252,0.0169395174283534,0.0301741889894008,0.0007546190172433,-0.0004702261649072,0.0006634494056925,4.643140380859375,sn,E0,left
0.0016634762328118,0.0229097623608191,0.0394534739881753,0.0011815386824309,8.47969204187e-05,-3.40882252203e-05,4.663104736328125,sn,E0,left
0.0030908421548083,0.010962372397643,0.0509738159120082,0.000146743375808,0.0001338003203272,-0.0012699801009148,4.68306982421875,sn,E0,left
-0.0024643442869186,-0.0104058299268479,0.0467845475286245,0.0001922911033034,-1.50070991367e-05,-0.0003154734440613,4.70303466796875,sn,E0,left
-0.0141729022592306,-0.0116991005907999,0.0385550638437271,0.0009882948361337,-0.0002866669092327,0.0003549510147422,4.72299853515625,sn,E0,left
-0.0082665642922744,0.0006865420798567,0.0523199698239564,-3.45283187925e-05,-0.0009892047382891,-0.0001254662347491,4.742963623046875,sn,E0,left
-0.0044866621610708,0.0057933328751794,0.0322708690077066,-0.0011210977099835,0.0009535162243992,-0.000629739719443,4.7629287109375,sn,E0,left
-0.0069199537225998,0.0077623787714459,0.0391553678244352,0.0013801963068544,-0.0002580077853053,-4.4889166019e-06,4.7828935546875,sn,E0,left
0.0051417833352461,0.007089920586691,0.0351128144353628,0.001223403494805,0.0006420433055609,-0.0013241332489997,4.802857421875,sn,E0,left
0.0123783104600384,0.0018190615180457,0.0454372245728969,0.0010099564678967,0.000925330678001,0.0001552285830257,4.822822509765625,sn,E0,left
0.0146474792347289,0.0110690179597586,0.0488783049374818,0.0008595217950642,0.0004724639002233,-0.0018363407580181,4.84278759765625,sn,E0,left
-0.0138281439421698,0.0061965804846491,0.0342114816814661,-0.0005784295499324,0.0004600842949002,0.0002848280710168,4.862752685546875,sn,E0,left
-0.0266267256408929,-0.0069404359632695,0.0313701207756996,-0.0003261263482272,-0.000467600300908,0.0004095995973329,4.882716552734375,sn,E0,left
1.1124182213e-05,-0.0015265813774938,0.0316723185926675,-0.0004863911308348,-2.52025201916e-05,8.283095667138696e-07,4.902681640625,sn,E0,left
0.0076400116254575,0.0066501865957106,0.0399023867994546,-1.63908116519e-05,0.0002936166711151,0.000223520270083,4.922646484375,sn,E0,left
0.0081553042038343,0.0122765739684808,0.0424450570195913,-0.000832122284919,-0.0008964848238974,0.0005234272684901,4.942611572265625,sn,E0,left
0.0021974187127314,0.0015902243377553,0.0336158538758754,-0.000510599464178,0.0001631795894354,0.0004053671145811,4.96257568359375,sn,E0,left
-0.0028077143644914,-0.0007784966775056,0.0240402162790298,-0.0004230593331158,0.0006090304814279,-0.0002165031764889,4.98254052734375,sn,E0,left
0.0002104096139781,0.0125049039732839,0.0424450570195913,0.0005438812077045,-0.0015619627665728,0.000340171973221,5.002505615234375,sn,E0,left
-0.0077163647972978,0.0049506001531903,0.0434925202459096,0.000113723333925,0.0013649284373968,0.0002546436153352,5.0224697265625,sn,E0,left
-0.013610920994915,0.0143808345050434,0.038406010761857,0.0008497852832078,0.000253681326285,0.0007822392508387,5.0424345703125,sn,E0,left
-0.0092998345964588,0.0156053496400767,0.0382569576799869,-0.0002767187543213,0.0001158700324594,0.0009702701936475,5.062399658203125,sn,E0,left
-0.0023669300607405,0.0136768783536157,0.0452887560129165,0.0016660555265843,0.0007371199317276,-0.0010194623610004,5.082364501953125,sn,E0,left
0.0139153290352784,0.0044793028364001,0.0351139834791421,0.000469203107059,8.3816703408e-06,0.0001574528723722,5.102328369140625,sn,E0,left
0.0018556012714281,0.0022396481359726,0.0370581032842397,-8.51224176585e-05,6.97690993547e-05,-0.0014068507589399,5.12229345703125,sn,E0,left
-0.0075675857100635,-0.0103530597016389,0.0339157136052846,-6.77756033837e-05,-0.0004745875485241,0.000601204461418,5.142258544921875,sn,E0,left
-0.0083347524239681,0.0032942671888624,0.0366097749948501,-0.0008570090867578,0.0011031797621399,-0.0008024568669497,5.162223388671875,sn,E0,left
-0.0121614893715828,0.0054140957581374,0.0479839864462614,0.0003909468650817,0.0007497509941458,-0.0004932924639433,5.18218798828125,sn,E0,left
-0.0004313588882796,-0.0044937529139162,0.0360147317111492,0.001993146026507,0.0013312539085745,-0.0002878122904803,5.2021533203125,sn,E0,left
-0.0001348966923542,0.0084885439005709,0.039306758993864,0.0002422658726572,0.0012775509385392,-0.0006460923468694,5.2221181640625,sn,E0,left
-0.0160035517524927,0.0080157730063801,0.0521755929172039,0.0002752025611698,-0.0010447255335748,-0.0010523239616304,5.24208203125,sn,E0,left
-0.0075801346643827,0.0011625860683008,0.0417003761321306,-7.0393551141e-05,-0.0002348779235035,0.0007468701805919,5.26204736328125,sn,E0,left
-0.0014539799342863,-0.0049291098405898,0.0366126976042985,-0.0002359352074563,-0.0003307403530925,-0.0007020451594144,5.28201220703125,sn,E0,left
0.0013811886927112,0.0064140397522773,0.0439449401885271,0.000665683299303,-0.0007387220393866,-0.0009182657813653,5.30197705078125,sn,E0,left
-0.0055942032778635,0.0052859804330189,0.041848844692111,6.88075087964e-05,0.0008093670476227,-0.0013165095588192,5.321941162109375,sn,E0,left
-0.0059835496553219,-0.0118568541440006,0.0294306771457195,-0.0004106843844056,-0.0003216904588043,-0.0006317470688372,5.34190625,sn,E0,left
0.003935348421242,0.0038534417206275,0.0340688583403825,-0.0007719527930021,0.0006692849565297,0.0007410485995933,5.36187109375,sn,E0,left
0.0047103513817302,-0.0027653482293433,0.0388595997482538,-0.000235001090914,6.74428883939e-05,-0.0001859322655946,5.3818349609375,sn,E0,left
0.0027550891281105,0.0160109587408136,0.0388566771388053,0.0006202049553394,-0.0006974367424845,8.69124778546e-05,5.401800048828125,sn,E0,left
0.0047840559387579,0.0184514837607275,0.0330196415483951,-0.0006808009929955,-0.0002935379743576,-0.0006948648951947,5.421764892578125,sn,E0,left
-5.28809647075e-05,0.0006069865957106,0.0436444959372282,0.0002121469005942,-6.77541829645e-05,0.001362127601169,5.441730224609375,sn,E0,left
-0.0033609095341525,-0.001660892120903,0.031078444352746,0.0010243193246424,0.0005998096894472,-6.65352563373e-05,5.4616943359375,sn,E0,left
0.0120342097301036,0.003432646752613,0.0280862767994403,-0.0003156424500048,0.0006999722681939,-0.0007327757193706,5.4816591796875,sn,E0,left
0.0135469158479943,0.001739615917165,0.0333230084091424,0.0021400116384029,-2.51356977969e-05,0.0010329245124012,5.5016240234375,sn,E0,left
0.0055227820094674,0.0096206537738617,0.0514279894202947,0.0002559819258749,0.0007281091529875,-7.70372862461e-05,5.521588134765625,sn,E0,left
-0.0114192927021533,0.0054631887470051,0.0361655383586883,-1.19083561003e-05,-0.0007915333844721,4.38688002759e-05,5.54155322265625,sn,E0,left
0.002104406667035,0.0046856713149114,0.0336234526604413,0.0010656588710844,0.0008731300476938,-0.0014406871050596,5.56151806640625,sn,E0,left
-0.0029208010838367,0.0002057117476186,0.0551730211675167,-0.0002027195878326,0.0005670543760061,-0.0006875154795125,5.581483154296875,sn,E0,left
-0.0084292257743887,-0.0019746185475829,0.0484387444764375,-0.0002507646568119,-0.000468625454232,2.80225940514e-05,5.601447021484375,sn,E0,left
-0.0141939815798774,0.0052698187452624,0.0467915617913007,0.0004365560598671,0.0002790929283946,3.08134622173e-05,5.621412109375,sn,E0,left
0.0034272345023229,0.0156023425489489,0.0363175140500068,0.0007531689479947,0.0001572645269334,0.000221789770876,5.641377197265625,sn,E0,left
0.0126532914765179,0.0124695369740249,0.0369172335088253,-0.0002604341134428,0.0002680644392967,-0.0013308956986293,5.66134130859375,sn,E0,left
0.0247773897134698,0.0287260360077023,0.0445487513005733,0.001484771259129,0.0008995120879262,-0.0011050614994019,5.68130615234375,sn,E0,left
0.0066858892383985,0.0096147229316411,0.0421539651185274,0.0002980707213282,0.0001976678613573,-0.0003490158414933,5.701271240234375,sn,E0,left
-0.0124071164294145,-0.0057280896149983,0.0411053328484296,0.0003246231935918,-0.000339210499078,0.0007545116823166,5.721236328125,sn,E0,left
-0.0050221390109509,0.0038546233224944,0.0476882183700799,-0.0005089323967695,0.000810278346762,-0.001372764003463,5.7412001953125,sn,E0,left
-0.0101795765730552,0.0080358191389212,0.0219523040890693,0.0010953373275697,-0.0012333570048213,-0.0011076325317844,5.7611650390625,sn,E0,left
-0.0034565884609706,0.0066485038119892,0.0457446830868721,0.0012365626171231,-4.18755225837e-05,-0.0008963687578216,5.78113037109375,sn,E0,left
0.0050749103778041,0.0072788501628674,0.0327262115597724,0.000329244416207,0.0005339477211236,0.0004223657015245,5.80109423828125,sn,E0,left
-0.0155230747591704,0.0117959371449542,0.0310790288746356,0.001135875005275,-0.0004329767543822,-0.0002902743290178,5.82105908203125,sn,E0,left
-0.0057423978432081,0.0018191913800867,0.0466401706218719,-0.0006146696396172,4.903413355350494e-07,-0.0010002579074352,5.841024169921875,sn,E0,left
0.0027644962772727,0.0028673647091694,0.0442436308741569,0.0008779042400419,-6.9431727752e-05,-0.000581516767852,5.860989013671875,sn,E0,left
-0.0053034767029806,0.004550889643222,0.0428963079184293,-0.0001662005670368,-0.000170235754922,-0.0009096627472899,5.880953125,sn,E0,left
-0.0035230412933044,0.0123509703619638,0.0485801987737417,2.02371738851e-05,4.8608053475e-06,-0.0012681914959102,5.90091796875,sn,E0,left
0.0011973930910229,0.0097742597332631,0.0361585240960121,0.0010233367793262,-0.002164332428947,0.0011199119035154,5.920883056640625,sn,E0,left
0.0083474292424507,0.0094140104444813,0.0267319395810365,-0.0009279595687985,6.65702391415e-05,0.00107705546543,5.94084716796875,sn,E0,left
0.00135267498428,-0.0040211010361454,0.0452858334034681,-3.0156224966e-06,0.0001522169914096,0.0008968972833827,5.96081201171875,sn,E0,left
-0.0055401167367585,0.0019959824230754,0.0448375051140785,4.9173831939e-06,0.0002386614214628,0.000252797442954,5.98077734375,sn,E0,left
0.0024456578527577,0.0097240993069601,0.0443874232590198,-0.0004634838551282,0.0004063141532242,-0.0008251143153756,6.0007421875,sn,E0,left
0.0013562369145452,-0.0016726519135889,0.0276291806817054,0.001765948254615,0.0012315782951191,-0.0010947476839646,6.0207060546875,sn,E0,left
-0.0079854457959532,0.0118465679287153,0.0333165786683559,-0.0002378295175731,-0.0003083101473748,0.000249467237154,6.040671142578125,sn,E0,left
-0.0110962712928652,0.0210369473763974,0.0457353307366371,0.0005439114756882,0.0004872558638453,4.03847079724e-05,6.06063623046875,sn,E0,left
0.0100905283164232,0.012967130640574,0.0398977106243371,-0.0002707974053919,-0.0001345900818705,-0.0009962549665942,6.08060009765625,sn,E0,left
-0.0044873380145058,0.0064712429823644,0.0427425786614418,-0.0002853297628462,-0.0001316536217927,0.0001329277001786,6.10056494140625,sn,E0,left
-0.0003925795141607,-0.0017128220958955,0.0401975703537464,-0.0006178999319672,0.0002453208435326,0.0003353322972543,6.120530029296875,sn,E0,left
-0.0034855405608192,9.99692261568e-05,0.0520177720069885,-0.0021364549174904,-0.0001691768411546,0.0003515072166919,6.1404951171875,sn,E0,left
-0.005283840420749,0.004528020224288,0.0361561860084533,-0.000177935231477,-0.0005314429290592,-0.000731440144591,6.160459228515625,sn,E0,left
-0.007521993002668,0.0166374817248783,0.0352583603858947,-0.0005348874256014,-0.0003301750402897,-0.0013428849633783,6.18042431640625,sn,E0,left
0.0104233404673635,-0.0027845643864668,0.0524666848182678,-0.0011631888337433,-0.0002940194681286,0.0011410361621528,6.200388916015625,sn,E0,left
0.0030257410293444,0.0058659865486144,0.0428916317433118,-0.0005988157354295,0.0004916107282042,0.0003269760054536,6.220352783203125,sn,E0,left
0.0092826277333311,0.0170371965160127,0.0360088864922523,-0.0008970517665147,-0.0002936921082437,0.0006937843863852,6.240318115234375,sn,E0,left
0.0021087175159715,0.0120228846184909,0.0639876112639904,0.0004438869655132,-0.0002602485474199,0.0003913699765689,6.260282958984375,sn,E0,left
-0.0160425320560112,-0.0014045698537098,0.0422913277626037,-0.0002045519649982,0.0002921470440924,2.33073806157e-05,6.280246826171875,sn,E0,left
-0.0129216966217383,0.0063338689218449,0.0262771815508604,-0.0003879205323755,-0.0011811500880867,-0.0003935855929739,6.300211669921875,sn,E0,left
-0.0088846048590727,0.0153816843939479,0.0354056599020957,-4.88152727484e-05,-0.0004038580227643,0.0003491326642688,6.3201767578125,sn,E0,left
0.007559438936226,0.0156612822200404,0.0502197826743125,4.109647125e-05,4.70678787678e-05,-0.0003545877698343,6.340141845703125,sn,E0,left
0.0146459083321504,-0.0002400384234948,0.0452805727064609,-0.0007873582653701,0.0006134184077382,-0.0015545152127742,6.36010595703125,sn,E0,left
0.0025184490943327,-0.004470738220743,0.0451315196245908,-0.0003496161662042,-0.0012239152565598,0.0001057922199834,6.380071044921875,sn,E0,left
-0.0005732150443829,-0.0012528758631262,0.0398930344492197,0.0008180420845746,-0.0003079469315707,0.0005936851957812,6.400035888671875,sn,E0,left
-0.0191087694925256,0.0103948233339993,0.0422866515874862,-0.0008918181993067,-0.0004237487446516,-0.0007309704087674,6.419999755859375,sn,E0,left
-0.006464611170534,0.0070110843384638,0.0371978040158748,-5.67873939871e-05,0.0004791875835508,0.0002724687219597,6.439965087890625,sn,E0,left
0.0094034411014057,0.0133629547078802,0.0425841732293367,0.0002194000408053,-0.0007700123824179,0.0004416268202476,6.459929931640625,sn,E0,left
-0.0045433607843704,0.0006930594418445,0.0358481429725885,0.0007230443879961,0.0002277661114931,-0.0009115249849855,6.479893798828125,sn,E0,left
-0.0060326494940556,0.0040303606277797,0.0413847343116998,-0.000418521463871,-0.0019783615134656,0.0004840931796934,6.499858642578125,sn,E0,left
0.0054622291949577,0.0140705892372934,0.0376414561301469,-0.0002322425134479,-0.000869344221428,0.0004866642993874,6.519823974609375,sn,E0,left
0.0065253649144433,0.0172590317063033,0.0526046319842338,0.0016716695390641,-0.0004792043473571,0.0004258239641785,6.539788818359375,sn,E0,left
0.0065967861828394,0.0148835724208794,0.0469172339975833,0.0001739570870995,-0.0004002461209893,-0.0012065388727933,6.559752685546875,sn,E0,left
-0.0117572194196283,0.0013742463536269,0.0317997443646192,0.0007928046397864,-0.0005488474853336,0.0005744834197685,6.5797177734375,sn,E0,left
-0.0028808891985565,-0.0088327810570015,0.0214765032708644,0.0003948458470404,0.0017587922047823,-0.000425132428063,6.599682861328125,sn,E0,left
0.0154424107383936,0.0212938036477193,0.0431757093816995,0.0002428963780403,-0.0004321888554841,0.0008133347146213,6.61964697265625,sn,E0,left
0.0208696234188973,0.0044381970765767,0.0421335068523883,-3.59271652996e-05,0.0005783871747553,-4.05317841796e-05,6.639612060546875,sn,E0,left
0.0180811617441475,0.0151306676333013,0.0609895984917879,-0.0006412221118807,0.0003380817361176,-0.0013243107823655,6.659576904296875,sn,E0,left
-0.0180418526470661,-0.0070371560697036,0.057695817643404,0.0009685498662292,-0.0006369119510054,0.0001168813032563,6.679540771484375,sn,E0,left
-0.0292240669240243,-0.0136026885977538,0.0409358215004205,-0.00069249747321,6.64675608277e-05,-0.0002030748000834,6.699506103515625,sn,E0,left
-0.0161873473541811,-0.0002908575785681,0.0288145910739898,-0.0018509197980165,-0.0004042945802211,0.0011613630922511,6.719470947265625,sn,E0,left
0.0083536945864558,0.0086674915096722,0.0373439344882965,-1.85561366379e-05,-0.000381612451747,0.0008575270767323,6.739434814453125,sn,E0,left
0.0145716923184692,0.0075859718917694,0.0398895273178815,-0.0008595781400799,0.0022969120182096,0.0006601971108466,6.759399658203125,sn,E0,left
-0.0055749871207401,0.0174218587268434,0.0395890830665826,-0.0001470539718866,0.0002675706055015,-0.0005554779781959,6.779364990234375,sn,E0,left
0.0017690554991364,0.0120754185233265,0.0391395857334136,-0.0005609458312392,0.0006404884625226,0.001974216196686,6.799329833984375,sn,E0,left
0.005920841416344,0.017975355290604,0.0457248093426227,0.000218310393393,0.0008680804166942,-0.0005604266189038,6.8192939453125,sn,E0,left
-0.0004592515422031,0.0061647759864776,0.0472229389458894,0.0003256481140851,0.0005184358451515,-6.35114265605e-05,6.839259033203125,sn,E0,left
-0.0128226201614364,-0.0032847413086914,0.0574000495672225,0.0003072596155107,-0.0008425726555287,-0.0003748275339603,6.859223876953125,sn,E0,left
-0.0089136117578484,-0.0074031638124142,0.0397428123235702,-7.03539699316e-05,-0.0011719393078237,0.0008060092804953,6.87918798828125,sn,E0,left
-0.0163286007220856,0.0028899664125114,0.0464747509270906,-8.81878659129e-05,-0.0010052670259028,-0.0001639191468711,6.899153076171875,sn,E0,left
0.0126962903680279,0.0078060786325659,0.029416648620367,-0.0013072183355689,-0.0003792026545852,-0.0001270661014132,6.919117919921875,sn,E0,left
0.020709044296015,0.0012299036962038,0.0361515098333358,0.0004640724509954,0.0019504419760778,0.0006009256467223,6.939081787109375,sn,E0,left
0.0048522806030698,-0.0032112348269525,0.0295674552679061,0.0001907763071358,2.73080077022e-05,-0.0001561147219035,6.959046630859375,sn,E0,left
-0.0133355929185636,0.0023597856506123,0.033456279399991,-0.0011868686415255,-0.0005894834175705,0.0002242387708975,6.979011962890625,sn,E0,left
-0.0097300975061953,-0.0103097559910966,0.0412374347954988,0.0013180188834667,0.0005317667964845,0.000729976047296,6.99897607421875,sn,E0,left
0.0054793447265401,0.0139773317380691,0.044832828938961,-0.0012567238882184,0.0004502504598349,-0.0004720697761513,7.01894091796875,sn,E0,left
0.0041113625752739,0.0222700214188662,0.0366027607321739,0.0004453631117939,0.000208017649129,0.0005150081124156,7.038906005859375,sn,E0,left
0.0115074276433326,0.0103986010350403,0.0306190101474523,-0.0007534907199442,-0.0003117236774414,0.0009829810587689,7.05887109375,sn,E0,left
0.0082385985731147,0.0124714948940265,0.0283744460910558,0.0006671231240034,-0.0002625293564051,0.0001940254296641,7.0788349609375,sn,E0,left
0.0087046269159764,0.0003083672628505,0.0496224013030529,-0.0006136070005595,0.0004340829327702,0.0002664292987901,7.098800048828125,sn,E0,left
-0.0076450165941379,-0.0195137221477809,0.0412432800143957,0.0003829672932624,0.0010602823458611,-0.0012214006856083,7.118764892578125,sn,E0,left
-0.0212079702614806,-0.0010694173319221,0.0342126507252454,0.0012418730184435,0.0001010552514344,0.0004088239511474,7.138728759765625,sn,E0,left
-0.0220291869838722,0.0070224939317558,0.0304728796750307,-0.0005969419144093,8.48351046442e-05,-0.0006305876886472,7.15869384765625,sn,E0,left
0.0027708894854411,0.0116046923141053,0.0378062913030385,-0.0004615606740117,0.0002216682769358,-0.0007199633982963,7.178658935546875,sn,E0,left
0.0192915239145979,0.0047913430544256,0.0475315665036439,5.84395602345e-05,-0.0009324729908257,-0.0004934029420837,7.19862255859375,sn,E0,left
0.0178362105397507,0.0223971640630275,0.0469318470448255,0.0003305417485535,0.0001536400523036,0.0009586761007085,7.218587646484375,sn,E0,left
-0.0034298831171356,0.003367754548059,0.0336146848320961,0.0006476105190813,0.0010046411771327,0.001857700292021,7.238552734375,sn,E0,left
0.0013238324822857,-0.0052826827934128,0.0545645338803529,-0.0001652026548981,7.92336650192e-05,0.0012939795851707,7.2585166015625,sn,E0,left
0.0043181737263686,0.0156688844295393,0.0421446127682924,0.0002513122744858,-0.0004654531367123,0.0002438121009618,7.2784814453125,sn,E0,left
-0.0105891072220169,0.0007531989811119,0.0560597408741712,0.0013842317275702,0.000225125811994,0.0003255556803196,7.2984462890625,sn,E0,left
-0.0068553275211714,0.0001256062763233,0.0304717106312513,0.0010501574724912,0.0010912993457168,0.0004758018767461,7.31841064453125,sn,E0,left
-0.0054118507145904,-0.0083049692070577,0.0463344656735658,-0.000889838207513,-0.0002633880358189,-0.0003661720256786,7.33837548828125,sn,E0,left
0.0199410007992759,0.013892595472018,0.0433405445545911,4.22447919845e-05,0.0001808954402804,8.34924867376e-05,7.35834033203125,sn,E0,left
0.0033879436715506,0.0137523558842658,0.0369049585491418,0.0004005734808743,0.000668573891744,-0.0014511119807139,7.37830419921875,sn,E0,left
0.0005373034807853,-0.0058913721516204,0.0312187296062707,-0.0008638272993266,0.000571078620851,0.0007041887147352,7.398269287109375,sn,E0,left
0.0013470489610917,0.0179397770871466,0.0325642989963293,0.0007235286757349,-0.0001109733711928,-0.0003693656180985,7.418234375,sn,E0,left
0.0066119472193531,0.0055950812023424,0.0436398197621107,0.0001874053850769,-2.74437479674e-05,-0.0009209092822857,7.438198486328125,sn,E0,left
0.0123641723368316,0.0108411822869442,0.0375035089641809,-0.0009411936625838,-0.000635873991996,-0.0001420681073796,7.45816357421875,sn,E0,left
0.0052559842994436,0.0118543402432173,0.0360083019703626,-0.0004024398513138,-0.0011584360618144,-0.0002251217374578,7.47812841796875,sn,E0,left
-0.0023991152972914,0.0095064214144455,0.0360059638828039,8.93268734216e-05,-0.0012617483735084,0.0003320371906738,7.49809375,sn,E0,left
0.0078120254578068,0.0015159563792578,0.0375017553985118,0.0006315140053629,-0.000475995009765,0.0001913486921694,7.5180576171875,sn,E0,left
-0.0046046077186241,0.0090783099334221,0.0312169760406017,0.0011958563700318,-1.7458340153e-05,0.0007725925534032,7.5380224609375,sn,E0,left
-0.0074191354163922,0.0042165191477906,0.0294207402735948,-1.54701992869e-05,0.0005835266783833,0.0013739259447902,7.5579873046875,sn,E0,left
-0.0027012583153322,0.0097745314446103,0.0542617515414953,-0.000586025416851,0.0006948055233806,-0.0001539492513984,7.577951416015625,sn,E0,left
-0.0026737127212807,0.0007298651983524,0.0481260252654552,-3.40491533279e-05,-0.0002011032775044,-0.0003818935656454,7.59791650390625,sn,E0,left
0.002394840980973,0.0124452484912064,0.0407914445936679,0.0007641189731657,-0.0008491794578731,0.0008190348744392,7.61788134765625,sn,E0,left
0.0036879677977412,0.0028820399760268,0.0297194309592246,-0.0006823423318564,0.0011367725674062,0.0003895274712704,7.637845458984375,sn,E0,left
0.0033568544135428,0.0077978142693638,0.0412391883611679,-0.0002886638976633,-0.000789062352851,0.0017889433074742,7.657810546875,sn,E0,left
0.0090719075920991,-0.0003124189585272,0.0469248327821493,-0.0003368472680449,-5.1601557061e-05,1.20417098514e-05,7.677775634765625,sn,E0,left
-0.0130826228044927,-0.0009323478050238,0.0475233831971883,0.0002033514901995,0.001354914274998,0.0012941644527018,7.697739501953125,sn,E0,left
-0.0107702724752016,-0.0019917055380574,0.0416863476067781,-0.0004961537197232,-0.0001497161574661,-0.0009034278918989,7.71770458984375,sn,E0,left
-9.7724753431e-06,0.0020521244947711,0.0436316364556551,0.000136834103614,0.0003605887759476,0.0008677531150169,7.73766943359375,sn,E0,left
0.0009878785261884,0.0133559918191982,0.0418342316448688,-0.0001019453629851,-0.0005236803553998,-0.0012279702350497,7.75763330078125,sn,E0,left
-0.0028261268040165,0.0184149853919516,0.0359966115325689,-0.0001508104614913,7.66201410442e-05,-9.03090694919e-05,7.7775986328125,sn,E0,left
-0.0089493223920464,0.0093572170647035,0.0345002354949712,0.0004812548868358,0.0002167599741369,0.0010236769448965,7.7975634765625,sn,E0,left
-0.0098406086759641,-0.004838008907478,0.038387306061387,0.0004628202877938,-0.0004448876716196,0.0002566840266808,7.81752734375,sn,E0,left
0.0080906962687149,-0.0015180136223149,0.0322527488291263,0.0001575974747538,-0.0001779661979526,0.0012426186585798,7.8374921875,sn,E0,left
0.007817980274558,0.00505184516687,0.0487123007208108,-0.0002831537276506,-0.0006125709041953,0.0007519018836319,7.85745751953125,sn,E0,left
-0.0064495962644927,-0.0033934618093509,0.0527507624566555,-0.0001594820059835,-0.0008564563468098,0.0017260215245187,7.877421630859375,sn,E0,left
-0.0016488266529515,0.0031228004895514,0.0409288072377443,0.000291580799967,-0.0001843678764998,-0.0007603886188007,7.897386474609375,sn,E0,left
-0.0044012854325585,-0.0032072473487685,0.0195317989438772,-0.0001875376328825,0.000157295493409,0.0009300634847022,7.9173515625,sn,E0,left
-0.0012129194537177,-0.003279248287066,0.0461696305006742,0.0007443320937454,0.0001982252579182,0.0001838649768615,7.9373154296875,sn,E0,left
0.0047339149204082,0.0040051471276543,0.0425789125323295,0.0004412475973367,0.0004838556051254,-0.0001817299926187,7.957280517578125,sn,E0,left
-0.0024881818202324,-0.0057091485941549,0.0472153401613235,0.0008656927384436,-0.0002702281344681,0.0005757090402767,7.97724560546875,sn,E0,left
-0.0147267732823267,-0.0036899496922735,0.0410796138852834,0.0003979471512138,-0.0002576129045337,0.002477565780282,7.99720947265625,sn,E0,left
0.0053531975962221,-0.0028316061259101,0.0394330157220363,0.0008158348500728,0.0002834438346326,-0.0008839984657242,8.01717431640625,sn,E0,left
-0.001029324781429,0.0142375832595862,0.0364426017343997,0.0004260865971446,0.000722920987755,-0.0004247573378961,8.03713916015625,sn,E0,left
0.0101499303534626,0.0050361743861692,0.044373979255557,-0.000230873003602,0.0015107351355254,0.0012137060984969,8.057103759765624,sn,E0,left
0.0052930649068206,0.008775056095462,0.0452735584437847,0.0017272266559302,-0.0008635725826025,-0.0001385825453326,8.077068603515626,sn,E0,left
-0.007189984569326,-0.0018860209550446,0.0424316130161285,-9.85995866358e-05,-9.30011738091e-05,0.0002393109170952,8.097033447265625,sn,E0,left
0.0007108882157132,-0.0043827051713189,0.0455745872169733,-0.0005252254195511,0.000481218798086,-0.0006097872392274,8.11699755859375,sn,E0,left
0.0012053389354608,0.0025103945082737,0.0454237805694341,0.0009924308396875,0.0003041285090148,-0.0021175078582018,8.13696240234375,sn,E0,left
0.0039139585733413,0.0014793193006975,0.0463216061919927,-0.0002182642929255,-0.0007097825873643,-0.0004853890859521,8.156927490234375,sn,E0,left
-0.0099302049218676,-0.0020089789019664,0.0403372710853815,0.0014163549058139,0.0004319348372519,-0.0015415628440678,8.176891357421875,sn,E0,left
0.0050261575989425,-0.006557249327717,0.0529074143230915,0.0014839353971183,-0.0003438838757574,0.0011701281182467,8.196857421875,sn,E0,left
0.0065282327249646,-0.0027688405193053,0.0425818351417779,4.36794944107e-05,0.0005125883035361,0.0007486405083909,8.216822265625,sn,E0,left
-0.0011555997759103,-0.0008853294692889,0.0356996744126081,-0.0007143407128751,0.0008452690672129,-0.0002997198607772,8.2367861328125,sn,E0,left
-0.0043214981946162,0.0139846793608856,0.0309118556141853,0.0008603385649621,-0.0004264411982148,0.0006150489207357,8.256751220703125,sn,E0,left
-0.0164057941441424,0.0007645109638149,0.0394406145066022,0.000557922758162,-0.0003499209415167,0.0002099705307045,8.27671630859375,sn,E0,left
0.0050133163836784,0.0009795034234877,0.0300128609478473,0.0008620889857411,-0.0001159217208623,0.0001502446539234,8.296680419921875,sn,E0,left
0.0097676530376076,0.0156168711145117,0.0422808063685894,0.0011915150098502,0.0001025330275297,0.0002777136978693,8.3166455078125,sn,E0,left
0.0104642752659507,0.0082350440635374,0.0410848745822906,-0.0007612602785229,-0.000339311081916,-0.0004626167356036,8.3366103515625,sn,E0,left
-0.0026927644816227,0.0025985348722635,0.0359966115325689,0.0009275549091398,0.0003004064783453,-0.0001363770570605,8.35657421875,sn,E0,left
0.005124412075337,0.0127704196167411,0.0328565599411726,-0.0006588697433471,0.0006637806072831,-0.0009553608251735,8.37653955078125,sn,E0,left
0.0070122351159341,0.0112738300916564,0.0346568873614072,-7.16024078428e-05,0.0012694762554019,0.0003718999796546,8.39650439453125,sn,E0,left
0.0008263860878534,0.0025469793566066,0.0470773929953575,-0.0001657796092331,0.0009355142246931,-0.0009954419219866,8.41646826171875,sn,E0,left
-0.002148775531724,0.0096341925338027,0.0324158304363489,-0.0009463047608733,0.0009285281412303,0.0002976030227728,8.43643310546875,sn,E0,left
0.0030869879635982,-0.0036932393403694,0.041244449058175,-0.0008135274983942,0.0009877197444438,0.0010601003887131,8.4563984375,sn,E0,left
-0.0058554662962444,0.0062755246182641,0.0439402640134096,-0.0005570463836193,0.0008841853123158,5.32259582541e-05,8.4763623046875,sn,E0,left
-0.0004210018910467,-0.0034802079402201,0.0334679698377847,-0.0006861826404929,0.0006729690358042,0.000421656150138,8.4963271484375,sn,E0,left
0.0028613990467973,0.0089963353049708,0.0249386264234781,0.001559579744935,-0.0002286985982209,0.0010575763881206,8.516292236328125,sn,E0,left
0.0100750019537284,-0.0014529647270785,0.0415478159189224,-0.000435241498053,0.0007462725043296,-0.0003702470567077,8.53625634765625,sn,E0,left
0.0032678061569109,0.0088028334433096,0.0345166021078824,-7.13011249899e-05,-0.0001198477111756,0.0003892756649293,8.556221435546876,sn,E0,left
-0.0056440337689593,-0.0033128246172156,0.0357119493722915,-0.0002553011290729,0.0007393974810838,-0.0006651503499597,8.5761865234375,sn,E0,left
-0.0046885048761032,0.0091619291005103,0.0354115051209926,0.0009017754346132,-0.0012118350714445,0.0004784839402418,8.596150390625,sn,E0,left
-0.0049660066432319,0.0058719584900303,0.0277794028073549,0.0012126537039875,-0.0005770076531916,-0.0003164349182043,8.616115234375,sn,E0,left
-0.0156616612459532,0.0024675697175218,0.0541144520252943,-0.00033920397982,-9.51094552874e-05,0.0003431462973821,8.63608056640625,sn,E0,left
-0.0027984350794926,0.0039077329014762,0.0518669653594493,-0.0012071495875716,-0.000824955292046,0.0011513986391946,8.65604443359375,sn,E0,left
-0.012251323079504,-0.0038854380150442,0.03211538618505,1.99852511286e-05,0.0004550467710942,0.0005909541505388,8.67600927734375,sn,E0,left
0.0071030369382351,0.0245802323067095,0.0346580564051866,-0.0004819897003471,0.0002242133487015,-0.0004058280319441,8.69597412109375,sn,E0,left
-0.0083810940500348,0.0099325201765401,0.0569523057997226,-0.0005452902987599,-0.0011351748835295,-0.0013681803829967,8.7159384765625,sn,E0,left
0.0076814578806981,0.0039209568529971,0.0377975234746933,-0.0020565572194755,-0.0001634689979255,0.0002643586485646,8.735903564453125,sn,E0,left
-0.0030220147022977,-0.0004117091917272,0.0354021527707576,-0.0001864554360508,-0.001136899460107,0.0007005656370893,8.755868408203124,sn,E0,left
0.0048192368499934,0.0028489839502741,0.0475216296315193,0.0015887012705206,-0.0010694311931729,0.0004382046754471,8.775832275390625,sn,E0,left
0.0006983392613939,-0.0043532892784671,0.0389876100420951,0.0002685142681002,-0.0002472274936735,0.000749418977648,8.79579736328125,sn,E0,left
0.007123440405447,-0.0031363897672534,0.0529039071917533,0.0004985956475138,0.000487491255626,0.0002279715554323,8.815762451171874,sn,E0,left
0.0031446912338957,-0.0024112053105956,0.0294096343576908,0.0002767415717244,-0.0004266637843102,0.0008528831531293,8.835726318359375,sn,E0,left
-0.000832487035077,-0.0122795833428972,0.0406342082053422,-0.0009405668824911,-0.0003581412602216,0.000853685545735,8.85569140625,sn,E0,left
-0.0054134398834779,0.0217931451717158,0.053950785896182,0.0012898896820843,-0.0005480381660163,0.0006798870745114,8.87565625,sn,E0,left
-0.0040972427183762,0.0160156440490856,0.037790509212017,-0.0009976532310247,0.0004319632425904,-0.0001712805824354,8.895620361328126,sn,E0,left
0.0093436920044943,-0.0007453339080093,0.0321048647910356,-0.0003825169987976,6.2583014369e-05,-0.000573122408241,8.91558544921875,sn,E0,left
0.0034833851363509,0.0009404711751529,0.0609825842291116,0.000828287564218,-0.0001785452477633,7.66208540881e-05,8.93555029296875,sn,E0,left
-1.91796245053e-05,0.0042430926317072,0.0488601847589015,-0.0001541483215987,-1.49914994835e-05,-5.56017912458e-05,8.955514404296874,sn,E0,left
-0.0019861871148459,0.0009058459592881,0.0686094258457422,0.0012393966317176,-0.0012458635028451,0.0009166878880932,8.975479248046875,sn,E0,left
-0.0080275679046288,0.0007069669528995,0.0276069688498973,-4.62913885712e-05,-9.70517285168e-05,-7.2056078352e-05,8.9954443359375,sn,E0,left
-0.0096026352016255,-0.0081010532659478,0.035237317597866,0.0003047967329621,-0.0008066620212048,-0.0001167842710856,9.015408447265624,sn,E0,left
0.0115099301276728,0.0226703458480653,0.041820787641406,-0.0004979334771633,-0.0012506546918302,0.0003976776788476,9.035373291015626,sn,E0,left
0.0124934795386157,0.0056772031029104,0.0442132357358932,-0.0008567399345338,-0.0005361540243029,0.0001224987354362,9.05533837890625,sn,E0,left
0.0334453196145594,-0.0022149047078943,0.0279027369260787,-0.0008276049047708,0.000439858296886,-0.0013503347290679,9.07530224609375,sn,E0,left
0.0332607933605089,0.0022944462068975,0.0280564661830663,-0.0006774677895009,0.0003075220156461,-0.0004117653879802,9.09526708984375,sn,E0,left
0.0039134471166878,0.0037283449030801,0.0508013819545507,0.0018558227457106,0.0003320081159472,-0.0004564519913401,9.115232421875,sn,E0,left
-0.0252585973591543,0.008151094961242,0.0454144282191991,0.0001647137105464,0.0005519904661923,-0.0016916524618864,9.135196533203125,sn,E0,left
-0.0343287696518935,0.0172686626177513,0.0319458748370409,0.0006296513602137,0.0003199947532266,0.0004302299930714,9.155161376953124,sn,E0,left
-0.0132623632855713,-0.0083589530001743,0.0579834024131298,-0.000597015954554,-0.0004756513517349,0.0004830792313441,9.175126220703126,sn,E0,left
-0.0055384179700165,0.0003390064275867,0.0371820219248533,0.0005652522668242,-0.0004864635411649,-0.0014620637521147,9.19508984375,sn,E0,left
0.00965133318156,-0.0077731798683176,0.0466074373960494,0.000286809168756,0.0003286581486463,3.07849550154e-05,9.215054931640625,sn,E0,left
0.009179313489329,0.0014075900737472,0.0484007505536079,0.0007735816761851,0.0006236168555915,0.0007199393003247,9.235019775390626,sn,E0,left
0.0121149285498075,0.0138993734143208,0.0382265625417232,0.0006404933519661,-0.0008872235193848,0.0001404741051374,9.254983642578123,sn,E0,left
-0.0057849400769919,0.0045013648273918,0.0356815542340278,0.0009027244523167,8.62884335219e-05,0.0006197871407493,9.27494873046875,sn,E0,left
-0.0064166803755797,0.0191969683657865,0.0267038825303316,-0.0014393678866326,0.0003939468879252,-0.0008794090244919,9.294913818359374,sn,E0,left
-0.0106222240403294,0.0095608898355741,0.0451093077927827,-0.0004818853922188,-0.000336968107149,1.13695277832e-05,9.3148779296875,sn,E0,left
-0.0130876095068641,0.0156825590451539,0.0451110613584518,0.0002223779447376,-0.000891255447641,0.0002658899757079,9.334843017578123,sn,E0,left
-0.004735905948095,0.0085565647813724,0.0512438650250434,0.0012952587567269,8.85345507413e-05,-0.0015595869626849,9.354807861328124,sn,E0,left
0.0057295931605622,0.0063373931778478,0.0510913048118352,-0.0008004624396562,-0.001234796596691,0.0003342600539326,9.374771728515626,sn,E0,left
-0.0052322928966023,-0.0012017301977786,0.024603110858798,0.0010919640772044,-0.0009583618957549,0.0005594715476036,9.394737060546875,sn,E0,left
-0.0072434317896142,-0.0036048375398313,0.0377694664239883,0.0002929978072643,-0.0010616956278681,0.0005365242250263,9.414701904296876,sn,E0,left
0.0144394807735458,-0.0049831552824995,0.0445031585931777,0.0003449190407991,0.0004242362920194,0.0009322609985247,9.434665771484376,sn,E0,left
-0.0029769699841737,-0.0072603503875521,0.0259463421612977,0.0005437224172055,-0.0004251298960298,0.0014482995029538,9.454630615234375,sn,E0,left
-0.0039684287069365,0.0113562453948135,0.031930677267909,0.0008497419767081,-0.000317063415423,-0.0005835499614477,9.474595947265623,sn,E0,left
0.0043610082210972,0.0119992297482676,0.0419546431541442,0.0001994492486119,-0.0004908277187496,-0.0005099835107102,9.49456005859375,sn,E0,left
0.0028054310758598,0.0235139365157578,0.0371674088776111,0.0018183630891144,0.0001836707815527,0.0010784440673887,9.51452490234375,sn,E0,left
0.0102071586997248,0.0060527744000544,0.0254939222186803,0.001022595912218,-0.0009337388910353,0.0001193608622997,9.534489990234375,sn,E0,left
0.0084687358008697,0.009015847147972,0.044344168639183,0.0003149067051708,-0.0015424757730215,0.0012801731936633,9.554453857421874,sn,E0,left
-0.0020102621101774,-0.0028414710744429,0.0370119260549545,0.0006484105251729,0.0003723411355167,0.0008793170563876,9.5744189453125,sn,E0,left
-0.0047417329006828,0.0054498395000206,0.0494330162107944,-7.71530903875e-05,0.0012611588463187,0.0014439765363931,9.594384033203124,sn,E0,left
0.0009532821368426,0.0172637421307503,0.0506324551284313,-0.0008983598090708,0.0003809886984527,0.0005049548926763,9.614347900390625,sn,E0,left
0.0027393801023252,0.0097615475238068,0.0232522807717323,-0.0002859365195035,-0.0005423419643193,-0.0006332895718514,9.634312744140624,sn,E0,left
0.0119849089619703,0.0028688656860336,0.0504898317873477,4.4181942939e-06,0.0019223011331632,-0.0011488144518807,9.654277587890626,sn,E0,left
0.0104953279913403,-0.0076115390162216,0.0482452677309513,-0.0003892574459314,-0.0001322608441114,-0.0002738080220296,9.674241943359377,sn,E0,left
-0.0066133537251502,0.0024169917348102,0.0461515103220939,-0.0011090151965618,-0.0007165065035223,2.93820048682e-05,9.694206787109374,sn,E0,left
-0.0095701577041298,0.0081335210594668,0.0430085361212492,0.000643481966108,-0.0009725757408887,-0.0002759139752015,9.7141708984375,sn,E0,left
-0.0026974589230492,0.0013892181625953,0.0301397021979093,-0.0011632689274847,-0.0002896226942539,0.0003449015202932,9.734135986328123,sn,E0,left
-0.0039969789479859,0.0202086752921342,0.0262514625877141,-0.0004695220850408,-6.5907370299e-06,0.0012090896489098,9.754100830078125,sn,E0,left
-0.0030742746124975,0.0096410115753009,0.0473497801959514,-4.46531921625e-05,-0.0001510509755462,0.0005626626079902,9.77406494140625,sn,E0,left
0.0151794124206528,0.0020003343712072,0.0434592024981975,0.0008382149972021,0.0005786844994872,-0.0007236879318952,9.79402978515625,sn,E0,left
0.0034079270136542,-0.0024780046319792,0.0418120198130607,-0.0016696322709321,0.0002547954209148,-0.0007070167339406,9.813994873046877,sn,E0,left
0.0034354178087785,0.0028616901660978,0.0326835414618253,-0.0007564965635538,-0.0003608337137848,5.51826669834e-05,9.833958740234374,sn,E0,left
0.0053176696251146,0.0067037394180981,0.0522843139886856,0.0013360595330595,-0.0009739932138472,-0.0005003493279218,9.853923583984376,sn,E0,left
0.0073727389913983,0.0092103273988119,0.041654783424735,0.0014776522293686,-0.0013991543091833,0.000601562380325,9.873888916015623,sn,E0,left
-0.0054910534306429,0.0047828252461855,0.0244429518610239,0.0009750896133482,-0.0012948808725923,0.0001447164686396,9.89385302734375,sn,E0,left
-0.0221302544718608,-7.09198011303e-05,0.0413525856077671,6.55329786241e-05,0.0008875059429556,0.0013058735057711,9.91381787109375,sn,E0,left
0.0125253177152946,0.014986924339144,0.0316278949290513,0.0003709839656949,-0.0006961394101381,0.0007175841601565,9.933782958984375,sn,E0,left
0.0243551822460256,0.0091647598075913,0.0368646265387535,0.0002621193416416,-1.81100331246e-05,-0.0006059522274881,9.953746826171876,sn,E0,left
-0.0060133054727688,0.0062571903813746,0.0471896211981773,0.0002942685969173,-0.0006221521180123,-0.0010673227952793,9.9737119140625,sn,E0,left
0.0052840230838395,0.0040043131564816,0.0470382300287485,-0.0004232455976307,-0.0001385377254337,0.0006763140554539,9.9936767578125,sn,E0,left
-0.0114498157045803,0.0026073874676993,0.0364139601618051,0.000949200708419,-0.0002937673125416,6.68370485072e-05,10.013640869140623,sn,E0,left
-0.0192192623959854,0.0073078970191942,0.0516764112234115,0.0005778330378234,-0.0007463486399501,-0.0001513107563368,10.033605712890624,sn,E0,left
0.0115576417269185,-0.0034333271726252,0.0376081383824348,-0.0001689023338258,4.73940744996e-05,0.0006996909505687,10.05357080078125,sn,E0,left
-0.0077798219549469,0.0155075346967438,0.0319230784833431,-0.0002286513336002,-0.0002081596758216,0.0008690587710589,10.07353515625,sn,E0,left
0.0008641973475925,0.0180158996468351,0.0440413863003253,-0.0004082252271473,-0.0002100255805999,0.0012409237679094,10.0935,sn,E0,left
0.0012724128223024,0.0111673512096109,0.0548129556834697,-0.0002991841174662,7.61430710554e-05,0.0011823211098089,10.11346484375,sn,E0,left
0.0183288711612112,-0.0011622912386563,0.0278781870067119,-0.000516889616847,-0.0002318210899829,-0.0005946967285126,10.1334287109375,sn,E0,left
0.0205285000973381,-0.0002826480142932,0.051671735048294,0.000552408862859,-7.17723742127e-05,-0.0003453754761721,10.15339404296875,sn,E0,left
0.0066289531530812,-0.002700549068801,0.0575040944635868,0.0007471237331628,-0.0003825663588941,-0.0002075133379548,10.17335888671875,sn,E0,left
-0.0184826004181988,-0.0035606658941978,0.0221890354543924,-0.0011403788812458,-0.0004507028497755,0.0002409233420621,10.193322998046876,sn,E0,left
-0.0131632502926513,0.0153302635923202,0.0383510657042264,0.0017439597286283,-0.0002693159040063,0.0007054845918901,10.2132880859375,sn,E0,left
0.0030551680532284,0.0041283864899,0.0494230793386697,0.0013757091946899,-0.0011507589370012,-0.0006848369957879,10.2332529296875,sn,E0,left
0.0001422397485934,0.0046054896388581,0.0359539414346218,0.0001572468318045,-0.0013862641062587,0.0001586512807989,10.253216796875,sn,E0,left
-0.010688640340045,-0.0068878484011511,0.0298170461148023,0.0008540637791156,-0.0001356361899524,0.0008825651602819,10.27318212890625,sn,E0,left
0.0084229421640746,0.0013482802244863,0.0446259081900119,-0.0006833160296082,-0.0013704674784094,-0.0010645788861438,10.29314697265625,sn,E0,left
0.00675122782588,-0.0033644814538056,0.0694599051952362,0.0016719410195946,-0.0015590919647365,0.0003464578767307,10.313111083984374,sn,E0,left
-0.0111508327580057,0.0115973184334696,-0.0034176994889974,-0.0003754356876015,7.70993065088e-05,0.0007471505086869,10.333075927734376,sn,E0,left
-0.0229432148225605,0.0056372381311695,0.010800210955739,0.0019132925663143,0.0001732809469103,-0.0002867119037546,10.353041259765623,sn,E0,left
0.0156100954554975,0.0042160290969681,0.0434223776191473,-0.0001068264245986,-0.0006722777616232,0.0002138666022801,10.373005126953124,sn,E0,left
0.0197682015156373,0.0039172293843061,0.0360907195568084,0.0007483917288482,-0.0001782719045877,-0.0006980946054682,10.392969970703126,sn,E0,left
0.0251929299781098,0.0189886205614428,0.0453670819461345,7.75195658206e-05,-0.0004433183930814,-0.0008815538603812,10.41293505859375,sn,E0,left
-0.0066554758338257,0.015180743577925,0.0363888257205486,0.0015391455963253,0.0001121072564274,-0.0015800304245203,10.43289892578125,sn,E0,left
-0.0201632835141383,0.0294926866983761,0.0313017317146062,0.0012016128748655,-0.0003677799832075,0.0018102551111951,10.452864013671874,sn,E0,left
-0.0241852507729083,0.0265014712764299,0.0519511365115642,0.0011679208837449,0.0001263932790607,0.0017997976392507,10.4728291015625,sn,E0,left
0.0044725423041731,0.0048530997328663,0.0356394686579704,0.0021704896353185,0.0002550147473812,0.001579177333042,10.492793212890623,sn,E0,left
0.0369411258410662,-0.0100494177046115,0.0206786308914423,0.0018084710463881,0.0004504825919866,-8.13222141005e-05,10.512758056640624,sn,E0,left
0.0107988592488691,-0.00116442696976,0.0362397726386785,-0.0005626352503895,0.0001659265253692,-0.0012183329090476,10.53272314453125,sn,E0,left
0.0095644586157053,-0.0016572639752674,0.0408797073990106,0.0002217963337898,-5.97401522099e-05,0.0005210229428485,10.552687255859375,sn,E0,left
0.0087723949225619,0.0061687928620027,0.0411795671284198,-0.0006633517332375,0.0002155236434191,-0.0001062464434653,10.572652099609376,sn,E0,left
0.0039395131397061,0.0131101432823692,0.0465676899075508,-0.0004340899176895,-0.0001583972480148,-0.0003015793336089,10.592616943359374,sn,E0,left
-0.012155315359123,-0.013616715981462,0.0322071561217308,0.0010895757004618,0.000489137833938,-0.0006126595544628,10.612580810546875,sn,E0,left
-0.0189855997705832,-0.0097250617131183,0.0411871659129857,0.0004904121160507,9.05168708413e-05,0.0004427651874721,10.632546142578123,sn,E0,left
-0.0103504578942433,0.0080218642496271,0.0343050051838159,0.0012339423410594,-0.00023889914155,-0.0006929344963282,10.652510986328124,sn,E0,left
0.0210772200212813,0.015224700309016,0.045078912654519,-0.001422515604645,0.0002969556953758,0.0009894600370898,10.672474853515626,sn,E0,left
0.0187328488522209,0.0138609867658466,0.0370002356171607,-0.0001839930191636,-0.0003358067478984,-0.000371881731553,10.69243994140625,sn,E0,left
0.0070527680557221,0.0026501292038272,0.0422381362706422,0.0011426494456827,0.0002659638412296,0.0006512778345495,10.71240478515625,sn,E0,left
0.0071181066432036,0.0007150078392267,0.0425356579124927,-0.0002748938277363,-0.0004916419275105,-0.0011313682189211,10.732369140625,sn,E0,left
0.0032481881409883,-0.0091294590237026,0.0450794971764087,-0.000228461343795,0.0002691510599106,-0.0013151468010619,10.752334228515624,sn,E0,left
-0.0154660656086169,-0.0115301943142781,0.045528409987688,-0.0004494483582675,-0.0006596355233341,-0.0015126904472708,10.772299072265625,sn,E0,left
-0.028179398442991,0.0022017835043618,0.0359486807376146,2.46237032115e-05,-0.0001353174448013,3.8658385165e-05,10.792262939453124,sn,E0,left
-0.014584095142316,0.0140952989868645,0.0483691863715648,0.0003665657714009,0.0004825782962143,-0.0001193301868624,10.812227783203124,sn,E0,left
0.0069942610678263,0.0167625922421575,0.0352034153282642,0.0001323935575783,0.0010063485242426,0.0012315078638494,10.832193115234375,sn,E0,left
0.0126268966599367,0.0051585734981985,0.0410369437873363,0.0005207653157413,-0.0003360556438565,0.0002901322150137,10.852156982421874,sn,E0,left
-0.0050825456949882,-0.0146494828205031,0.0347504108637571,-0.0007004220969974,-0.0009732372127473,-0.0005907388404011,10.872121826171876,sn,E0,left
0.0079939213633537,0.005414300683292,0.0290630128771066,0.0004511373117566,-0.0003811188507825,0.000421146309236,10.8920869140625,sn,E0,left
0.0029054025853052,0.005905466321521,0.0323550401598215,-0.0002345000393688,9.91001725196e-05,-0.0002892079064622,10.912051025390625,sn,E0,left
-0.0124238118358887,0.0058117327566171,0.0479185199946165,0.0003375308588147,0.0005415007472038,-0.0002634332340676,10.93201611328125,sn,E0,left
-0.0083675404487177,0.0041895172618445,0.0402870022028684,0.0009027146734297,-0.0004448746331036,-3.58466641046e-05,10.951981201171876,sn,E0,left
-0.0063933360326103,-0.0058930560769862,0.0332563729137182,0.0002575293183326,0.0004056848119944,0.0006446534534916,10.971945068359377,sn,E0,left
0.0023626192118041,0.013387381329661,0.028918635970354,-0.0007986421696841,0.0003251507878303,0.0008262105984613,10.991909912109374,sn,E0,left
0.0008779701446183,0.0126066735725267,0.0506155039936304,-0.0014813477173447,4.6843662858e-05,0.0001151182223111,11.011875244140626,sn,E0,left
0.0079109557876363,0.0072812213581113,0.0405868619322776,0.0010296022519469,-0.0004800085444003,-0.000221799215069,11.031839111328123,sn,E0,left
-0.0068546699340455,0.0112140330456837,0.0317570742666721,0.0001391842961311,0.0013298810226842,0.000341338221915,11.051803955078125,sn,E0,left
0.0018824344794265,-0.0082330010910343,0.0492635048627853,-0.0001285430043935,0.0001584079582244,0.0008492416236549,11.071768798828124,sn,E0,left
0.0085478289190679,-0.0010434355051722,0.0200859256953001,0.0004807193763554,-0.000419418560341,-0.0003443489549681,11.09173291015625,sn,E0,left
0.0158921272672712,0.0230182414037059,0.0579436549246311,0.0007007136009633,0.0008895262144505,-0.0016544302925467,11.111697998046877,sn,E0,left
-0.0019331052207387,0.004672864919799,0.0408884752273559,0.0005899998359382,0.0003427530173212,0.0002510106423869,11.131662841796874,sn,E0,left
-0.009040672203619,0.0035578203457407,0.0483721089810132,-0.0015323059633374,0.0005223231855779,0.0011089576873928,11.151626953125,sn,E0,left
-0.0124572209151461,-0.0009382869241657,0.0428320105105638,-0.0001732506789267,5.7301018387e-05,0.0023249157238751,11.171592041015623,sn,E0,left
0.0029431225134991,0.0072612328786082,0.0488204372704029,0.0010774102993309,-0.0005197022110223,0.0007500872598029,11.19155712890625,sn,E0,left
-0.006772361945454,0.0038784739847178,0.0420867451012134,0.0009024678729474,0.00079852854833,-0.000100251083495,11.21152099609375,sn,E0,left
0.0052647155951708,0.0146003156247548,0.047475452402234,9.12346877157e-05,0.000575810438022,0.0005753298755735,11.231486083984375,sn,E0,left
-0.002868924766127,0.016298440762551,0.0363999316364526,-0.0007843822240829,-0.000508263008669,0.0007519361097365,11.251451171875,sn,E0,left
-0.0037647958936169,-0.0050731568121351,0.0302647898823022,3.7178397178e-06,-0.0010636602528393,0.0001722189190331,11.2714150390625,sn,E0,left
0.0032876799011602,0.004896267016913,0.0393926837116479,4.54802066087e-05,0.0009581840131431,0.0015359611716121,11.291380126953126,sn,E0,left
-0.0031553222257643,0.0120562685815733,0.0378963076740503,8.81790183484e-05,-0.0007228932809084,-0.0004618322709575,11.311344970703123,sn,E0,left
0.0051454731296747,-0.012933846000547,0.0491173743903636,0.0001182788982987,4.37493436038e-05,0.0007845812360756,11.33130908203125,sn,E0,left
-0.008537800715398,0.0027690217553405,0.0453746807307004,-0.0011997539550065,-0.0006629871204495,-0.0005021534743718,11.3512744140625,sn,E0,left
-0.0008763992420397,0.0187881169951928,0.0263701205313205,0.0005940231494605,0.0004073560703545,0.0003161144559271,11.3712392578125,sn,E0,left
-0.0052309959886595,0.0080356575962505,0.0417833782404661,-0.0004332764074206,-0.0004314733669161,0.0002000341191887,11.391203125,sn,E0,left
0.0174311368701979,0.0096069586086494,0.0287666602790355,-0.0016102227382361,0.0011249424424022,0.0008960065897554,11.41116796875,sn,E0,left
0.0018958054176531,-0.0001933334691246,0.0573468580752611,-0.0003271340392529,-0.0003522562328726,0.0008758039330132,11.43113330078125,sn,E0,left
-0.0080354772164486,0.0058392047146102,0.0537502948880195,0.0008340151980519,-0.0010833430569618,-0.0010546717094257,11.45109716796875,sn,E0,left
0.0020172398402355,0.0121340476671641,0.0342968218773603,-0.0007746214978396,0.0006707534193992,0.0008191087981685,11.47106201171875,sn,E0,left
-0.0055373585240915,0.015328712097695,0.0311532631546258,-0.0002542687579989,0.0001435750164091,-1.06338411569e-05,11.491027099609376,sn,E0,left
-0.0007645911643281,0.0144084531643311,0.0443213722854852,0.0011605755425989,-0.0008062820415943,0.0006017270497977,11.5109912109375,sn,E0,left
-0.0098968141089193,-0.0045758999306592,0.0380336703181266,-0.0011096587404608,0.0006525495555251,0.0010108076967298,11.5309560546875,sn,E0,left
0.0003203545281663,0.0020686326715775,0.0422229387015104,0.00072324834764,3.86326573789e-05,-0.0005690313410013,11.550921142578124,sn,E0,left
0.0083131068477407,0.0122805434657668,0.0426706824690103,-0.000379757490009,-0.0004905848763883,0.0004146346182096,11.57088525390625,sn,E0,left
0.0072785396356135,0.0088749134404759,0.0303998144388198,0.0002832342870533,0.001256430754438,3.28535097651e-05,11.59085009765625,sn,E0,left
0.0012452690870501,0.0224074457117356,0.0514969630032777,0.0022163582034409,-0.0011612663511186,-0.0004962000530213,11.610815185546874,sn,E0,left
-0.0106524730481207,0.0039164282354075,0.0375789122879505,0.0002983971498906,0.0002670437097549,0.0003501324972603,11.630779296875,sn,E0,left
-0.0015674319798126,-0.0042460620485726,0.0256090730309486,-0.0003035264089703,-0.0011471942998468,-0.0014102838467806,11.650744140625,sn,E0,left
0.0148653780354186,-0.0048110455520276,0.0435661700040101,0.0003398433327674,0.0001949237193912,0.000179368245881,11.670708984375,sn,E0,left
0.0028765783496201,0.0058387937226565,0.0302519304007291,5.74602745473e-05,0.0005436199717223,-0.0002309176197741,11.6906728515625,sn,E0,left
5.33558887429e-05,0.0030975815666155,0.0413274511665105,-0.0006692735478281,-0.0005714511498808,0.0004473023291211,11.71063818359375,sn,E0,left
0.0047834531505592,0.0067693285965069,0.0512052865803241,-0.0001004752703011,0.0004996736533939,0.0007319117430597,11.73060302734375,sn,E0,left
-0.0164052826874889,-0.0115833686815749,0.0334001652985811,-0.0008744238875806,0.001139722764492,-4.1208986658e-06,11.750567138671874,sn,E0,left
-0.0037379809519276,0.0008353171713359,0.0334007498204708,-5.47687523066e-05,0.000101217534393,0.001114975544624,11.7705322265625,sn,E0,left
-0.0025792941697873,0.0133609842297912,0.037594694378972,-0.0005261744372546,0.0005847841966897,0.0016332431696355,11.790497314453123,sn,E0,left
0.0061857028976082,0.0023294042120804,0.0465711970388889,-0.0003708079457283,-1.10622495412e-05,-0.0005538475816138,11.810461181640624,sn,E0,left
0.0084756404656916,0.013715113163396,0.0393880075365304,0.0008712708950042,4.14852984249e-05,-6.71537709422e-05,11.83042626953125,sn,E0,left
-0.0023687018927186,0.0057469781202031,0.0296627323359251,0.0014137467369437,0.0005561846774071,-0.0003239959187339,11.85039111328125,sn,E0,left
-0.0187372875653207,-0.0012298543200871,0.0399859734296798,0.0002881935797631,-7.68862664699e-05,-0.000495008949656,11.87035498046875,sn,E0,left
0.0058318296923302,0.0144528985191893,0.03265606893301,-0.0002151546068489,5.48984389752e-05,-0.0008829440921545,11.8903203125,sn,E0,left
-0.0163347930008545,0.0067485341161169,0.0335544790774583,-0.0005560051649808,0.0004030002746731,-0.0005509048351086,11.91028515625,sn,E0,left
-0.0099241770398803,0.0060784465557837,0.0422340446174144,-0.0006573772989213,9.38158482313e-05,3.71398346032e-05,11.930249267578125,sn,E0,left
0.0088754717045463,0.001897941434168,0.0380447762340307,0.0008001239039003,2.93632037937e-05,7.25505233276e-05,11.950214111328124,sn,E0,left
0.0218731379056349,0.0034088834261798,0.0331073198318481,-1.60965137183e-05,0.0001784281339496,-0.0007317198324017,11.97017919921875,sn,E0,left
0.0017464966074563,-0.0057171081383246,0.0562964722394943,0.0009196731261909,0.000190258026123,-0.0006362014682963,11.990143310546877,sn,E0,left
0.0087202446102164,-0.0006193497474174,0.042378421524167,0.0007265065796673,-0.0014003571122884,-0.0005880541866645,12.010108154296876,sn,E0,left
-0.0109556024468503,0.0045314982436961,0.0307049348652362,-0.0003971778787672,-0.0011399006471037,-6.88445579726e-05,12.0300732421875,sn,E0,left
-0.0115746111280284,0.0135145342486212,0.0404319636315107,0.0001342515461146,-0.0004208828322589,0.0001018730108626,12.050037109375,sn,E0,left
-0.014154672482796,0.0037870996277924,0.0507575428128242,-0.0010114125907421,5.9500336647e-05,-0.0003252487804275,12.070001953125,sn,E0,left
0.0176994689501822,0.0072591362488223,0.0506084897309541,0.0012110518291592,0.0001387214288115,-0.0007366444333456,12.08996728515625,sn,E0,left
0.0045254232688806,-0.0018677106926857,0.0338490781098604,-0.0003554723225533,-0.0002352059818804,0.0004154589551035,12.10993115234375,sn,E0,left
0.0168597484567202,-0.009315745693288,0.0453700045555829,0.0002757534384727,-0.0012485824991017,-0.0005577905103564,12.12989599609375,sn,E0,left
-0.0062397163734771,0.0142825377878092,0.0434229621410369,0.0003113141283392,0.0007134361658245,-0.0004892297438345,12.14986083984375,sn,E0,left
-0.0023557510796003,0.0020381818781534,0.0196305831432342,8.24704766273e-05,-0.0001366473734378,0.0010354496771469,12.169825439453126,sn,E0,left
-0.0021104893479496,0.0072163074623153,0.0441723192036151,8.26972536742e-05,4.0426384657e-06,0.0010028665419667,12.189790283203124,sn,E0,left
-0.017604118816927,-0.0060469554389768,0.0395353070527315,-4.64534386992e-05,-0.0004847918171435,-0.0003016052651219,12.209755126953125,sn,E0,left
-0.0020009828251786,-0.0057244717441615,0.0378881243675947,0.0004046987742185,0.0007067690603435,0.0004311370430514,12.229718994140624,sn,E0,left
0.0009636574003845,0.0012824221888411,0.0366916080594062,0.0006167776882648,-0.0003613545559346,0.0014652139507234,12.24968408203125,sn,E0,left
-0.0024584077364765,0.0047911843658657,0.026814941689372,-0.0006333962082862,-0.0010005834046751,0.0013529910938814,12.269649169921877,sn,E0,left
-0.0056398690504953,0.0020765397001086,0.0435755223542451,-0.000173436012119,0.0010744633618742,-0.0004436334711499,12.289613037109374,sn,E0,left
0.0133173996747471,0.0112542645913723,0.0239735807836055,0.0006463681347668,7.13428016752e-05,0.0007089589489623,12.309578125,sn,E0,left
0.0008845094832591,-0.0037517748693731,0.0467190810769796,0.0002156202681362,-0.000632855342701,0.0005068785394541,12.32954296875,sn,E0,left
0.0132805017304606,0.001667627251544,0.0393874230146408,0.000728219281882,0.0018579441821202,0.0012044431641697,12.349508056640625,sn,E0,left
0.0098700722324661,0.0041922749036893,0.03909048589468,0.0001378962770104,0.0013292263029143,0.00106409098953,12.369472412109374,sn,E0,left
-0.0174949045551009,-0.0004980623115407,0.0411877504348754,-0.0018309750594198,0.0003866711631417,-2.01872899197e-05,12.389437255859375,sn,E0,left
-0.0081023684401996,0.0066277909591677,0.0331084888756275,0.0005494514480233,-7.8142620623e-06,0.0013823531335219,12.409402099609377,sn,E0,left
-0.0010538381681777,-0.0063750343325838,0.052111880031228,0.0009640958160161,-0.0002554126549512,-0.0029458086937665,12.429365966796874,sn,E0,left
0.0065296574970707,0.0014246134175511,0.029963176587224,0.0009542657062411,0.0003126238007098,-0.0004784802731592,12.449331298828126,sn,E0,left
0.005303586300835,0.0029747700355772,0.0462713373094797,0.0007657404057681,0.0007450629491358,0.0006207638652995,12.469296142578123,sn,E0,left
-0.0064942756564356,-0.0031276955749664,0.0359457581281661,-7.61775299906e-05,0.0003185062669217,-0.0009427328477613,12.489260009765625,sn,E0,left
-0.0076802340379916,0.0014361428834963,0.0323544556379318,-0.0002211304381489,0.0001438132021576,5.92579308431e-05,12.50922509765625,sn,E0,left
-0.005345872806292,0.0094262722752551,0.0474690226614475,-0.0013598012737929,-0.0007360870949923,-0.0001137268845923,12.529190185546875,sn,E0,left
0.0123659624351188,0.0123970870841003,0.0455225647687912,-0.000974322669208,-0.0014762317296117,-0.0004152613691985,12.549154052734377,sn,E0,left
0.0023891053599305,-0.0028085900056816,0.0260655846267938,0.0008436944335699,-0.0008278884924948,-0.0007985222619026,12.569119140625,sn,E0,left
-0.0116485531470738,0.0031602110321357,0.0314519538402557,-0.0006886622868478,0.0003684978000819,-0.0012423431035131,12.589084228515626,sn,E0,left
-0.0012735635997727,0.0091416757595259,0.0307025967776775,0.0002171183004975,-0.0006700670346617,0.0007775861886329,12.609048095703123,sn,E0,left
0.0025768830169923,0.0021237917875172,0.0301052154064178,0.0013936539180576,0.0001908815465867,0.0004629441536962,12.629013427734376,sn,E0,left
0.0104695724955759,-2.4843607367e-05,0.0368394920974969,-0.000267919152975,-0.0007452466525137,0.0014251740649342,12.648978271484374,sn,E0,left
0.0101088859570212,-0.0050110216786037,0.0360924731224775,0.0010942951776087,0.0002765741664916,0.0007246424793265,12.668942138671875,sn,E0,left
-0.0021731427880004,0.0083782216729363,0.0260702608019113,-0.0008010095916688,-0.0003339236136525,0.0003753104538191,12.688906982421877,sn,E0,left
0.003298694485519,0.0025881247885699,0.0307101955622434,-6.42472878098e-05,-0.0005972313228994,-0.0015757232904434,12.7088720703125,sn,E0,left
0.0004893361532129,0.0082475530603056,0.0380482833653688,0.0005185399204492,0.0028429622761905,0.0001977932552108,12.728836181640624,sn,E0,left
-0.005180215649493,0.0031085930114524,0.0597515811294317,0.000670597422868,-5.90931158512e-05,0.0004379124147817,12.748801025390623,sn,E0,left
-0.0048246984764002,-0.0006975786408685,0.0561620322048664,-0.0009192582219839,0.0001101272646337,0.000156898953719,12.76876611328125,sn,E0,left
-0.0246976390081457,-0.0005283432853728,0.0334136093020439,0.0019045011140406,-0.0014190408401191,0.00111604121048,12.788730224609376,sn,E0,left
0.0061690257574431,-0.0021635244346398,0.0338613530695438,-0.0004219920374453,-0.0010458591859787,0.0001564726408105,12.8086953125,sn,E0,left
0.0070620838733389,0.0132334751178044,0.0244341840326786,0.0007302183657884,-0.0002840845845639,0.0015017387922853,12.828660400390625,sn,E0,left
0.027261680809874,0.0032912914929533,0.0326642522394657,-0.0006124805659055,-0.0004834590945392,0.0002384312247158,12.848624267578124,sn,E0,left
0.0312779672465287,0.0066905791132478,0.053012628263235,-0.0001163920387625,-0.0008511843625456,-0.0008020134409889,12.868589111328124,sn,E0,left
-0.002283562626224,0.0006794613163991,0.0549526564151048,-0.0001706597395241,-0.000700683100149,-0.0003045025514438,12.888553955078123,sn,E0,left
-0.0205925052442587,-0.0004287171233328,0.0411842433035373,-0.0004405654035508,0.0005691894330084,0.0007518250495195,12.908518310546874,sn,E0,left
-0.0095775920919142,0.0133375850878946,0.0468716412901878,0.00055359210819,-0.0001826277002692,0.0006093852571211,12.928483154296876,sn,E0,left
-0.0035182737866416,0.0100590120834414,0.0583954903453588,4.94057312607e-05,-0.0001757622230798,0.0004281979054212,12.948447998046875,sn,E0,left
0.0011259352900087,0.0058732896473025,0.0477706359565258,0.0004079304635524,0.0004089917056262,-6.03705702815e-05,12.9684130859375,sn,E0,left
0.003967570190411,0.0097042803616379,0.0398369203478097,0.0008899164386093,0.0003555961884558,0.0003029005019925,12.988377197265624,sn,E0,left
0.0238347020358778,0.010414459616231,0.0498632243216037,0.0001340289600193,-0.000535441795364,0.0001735076948534,13.00834228515625,sn,E0,left
0.023434834264405,0.0097354095771966,0.0380412691026926,-0.0005311514250934,-8.44178721308e-05,-0.0003335845831315,13.028307373046877,sn,E0,left
-0.0033841990781947,-0.0054109391116042,0.0366951151907444,-2.9704533517e-06,0.0006674642208963,-0.0003330936888232,13.048271240234374,sn,E0,left
0.0032471104287542,0.0018571539076976,0.0342997444868087,0.0001298151910305,-0.000333834439516,-0.0012488854117691,13.068236083984376,sn,E0,left
-0.0010611446917988,0.0076346379056631,0.0354991834044456,0.0003080298192799,-0.0005010168533772,0.0012738694204017,13.088201171875,sn,E0,left
-0.0120094588813371,0.0022942267257778,0.0412304205328226,-0.0005028308369219,-0.0007248306646943,0.0009194238809868,0.027939208984375,sn,E0,right
-0.0019367950151674,-0.0076703257069748,0.0373386737912893,-0.0010722917504608,2.65892595052e-05,-0.0002640844031702,0.0479033203125,sn,E0,right
0.0002468509005382,0.0016889440342085,0.0341980376780033,-0.0017727385275065,0.0009589507244527,-0.0008104680455289,0.0678671875,sn,E0,right
0.0011533347535878,0.001725621641142,0.0349456411749124,-0.000230292789638,0.0005152646917849,-0.0002337418118258,0.0878310546875,sn,E0,right
-0.0082455945694819,0.0070859122734982,0.044970776104927,0.0004220986738801,-1.6854610294e-06,-0.0006414966192096,0.107796142578125,sn,E0,right
0.0083676135139539,-0.0055252011537726,0.0270142636537551,0.0015810118056833,-0.0009446854237467,-0.0004954853793606,0.12776025390625,sn,E0,right
0.008866703876201,0.0005886877497949,0.0458709398150444,-0.0006098067387938,0.0007419830653816,-0.0009014355600811,0.14772412109375,sn,E0,right
0.0037515710858628,-0.0040753299973788,0.0455722491294145,0.0011587403714656,0.001385238720104,3.26265726471e-05,0.16768798828125,sn,E0,right
0.0002755107394419,-0.0085253636422217,0.0374924030482769,-0.0001898617483675,-0.000787285156548,9.1429828898e-06,0.187652099609375,sn,E0,right
0.0040098749621771,-0.0103916564126673,0.0262695827662944,0.0013530007563531,0.0003632807638496,-0.0008609659271314,0.2076162109375,sn,E0,right
0.0055424182916991,-0.0013852244053676,0.0370429057151079,0.0004575345665216,-0.0004548162687569,-0.0007232660427689,0.227580322265625,sn,E0,right
0.0077541577907279,-0.0047034535667742,0.0394347692877054,-0.0003154897131025,-0.0008919979445636,0.0005284595536068,0.247544189453125,sn,E0,right
-0.0048108160815201,-0.0100843451708089,0.0379383932501077,0.0008417991921305,-0.0002914611250162,-0.0005113999941386,0.267509033203125,sn,E0,right
0.0062758471327833,0.0011595441570214,0.0349450566530227,-5.73527067899e-05,-1.8330756574e-06,-7.53841304685e-05,0.28747314453125,sn,E0,right
-0.0104106088499538,-0.0002989235810702,0.0446697473317384,-0.000236461404711,-0.0003699962981045,-0.00108726718463,0.30743701171875,sn,E0,right
7.87643246352e-05,0.0024196968610165,0.0451186601430177,-0.001231534872204,0.0002916862722486,0.001607364276424,0.327401123046875,sn,E0,right
-0.0023585092922672,0.000102927226579,0.0389811803013086,-0.0007554632611572,-0.0006882729940116,0.0008365896064788,0.347364990234375,sn,E0,right
-0.0126107492427341,-0.0009523242972616,0.0394289240688085,0.0004838546738028,-8.69382638484e-05,0.000100254866993,0.3673291015625,sn,E0,right
0.0064900561390444,0.00335766840594,0.0279079976230859,0.0006055026315152,0.0003991052508354,-0.0009953485568985,0.38729296875,sn,E0,right
-0.0001990845023654,0.0015524821474973,0.0307499430507421,-0.0010003834031522,-0.0004484490491449,-0.0003195448080077,0.4072568359375,sn,E0,right
-0.0031051812074147,0.0028329743866226,0.0367336936354637,0.0010001333430409,-0.0011068247258663,0.000394837843487,0.427220947265625,sn,E0,right
0.0030649770611897,0.0061745501742872,0.0493026678293943,0.0007796767167747,0.0005546072497963,-0.000303877342958,0.44718603515625,sn,E0,right
-0.003216879687272,0.0099172461172391,0.0511012416839599,-2.83839181065e-05,-0.000487191369757,0.0007786260102875,0.467150146484375,sn,E0,right
0.0096660192940384,-0.0093701016624516,0.04466682472229,0.0006118626333773,6.03126827627e-05,-3.18282109219e-05,0.487114013671875,sn,E0,right
0.0021784582839347,-0.0062598675372952,0.0392798709869384,-0.0013722772710025,-0.0002994583919644,0.0009149545803666,0.507077880859375,sn,E0,right
-0.0021764307236298,0.0061275075786106,0.0392804555088281,0.0003113104030489,0.0004512930754572,0.0010004314826801,0.5270419921875,sn,E0,right
-0.0080843213268555,0.001415531637019,0.042124739024043,-0.000344596337527,-3.70517373085e-05,0.0003773180069401,0.547006103515625,sn,E0,right
0.0016472922829911,0.0015131730504159,0.0413794736146926,7.78823159635e-05,0.0001131072640419,-0.0002162040909752,0.566969970703125,sn,E0,right
0.0064438971760682,-0.0033570918755605,0.0443722256898879,-0.0005732262507081,-0.0015377779491245,-0.0016264062141999,0.58693408203125,sn,E0,right
0.008062986277882,-0.0057117549681279,0.0370405676275491,-0.0001380643807351,0.0002997848205268,0.0014507574960589,0.60689892578125,sn,E0,right
0.0092544062858447,-0.0110523339697276,0.0347965880930423,0.0001513357274234,0.0004036198370158,0.0003668018034659,0.62686279296875,sn,E0,right
-0.0046075851269997,0.0045967714720405,0.0591863484621047,0.0004228162579238,-0.0007730282377451,6.86577986925e-05,0.6468271484375,sn,E0,right
0.0027175701293163,5.30202453141e-05,0.0246200619935989,-0.0004004733636975,0.0004250409547239,2.94364872388e-05,0.666791259765625,sn,E0,right
0.0048257213897071,0.0021066522814042,0.0427262120485305,0.0006581447087228,-0.0005157033447176,-0.000524477334693,0.686755126953125,sn,E0,right
-0.00840818298636,0.0019663396284158,0.0322498262196779,7.20690004527e-05,-0.0005432683974504,0.001342523144558,0.706718994140625,sn,E0,right
0.0009333535936661,0.0054271293404686,0.0313531696408987,0.0005148756317794,-0.0003234685864299,0.0016284550074487,0.726682861328125,sn,E0,right
0.012944456442818,0.0008506174884561,0.0418272173821926,-0.0004409858956933,0.0004420378245413,5.35151048097e-05,0.746647216796875,sn,E0,right
0.0034364224557764,0.0139374312692321,0.0500555320233106,0.0004016011953353,0.0002710947301238,0.0003927733050659,0.766611083984375,sn,E0,right
-0.0016491189138963,-0.006480799686932,0.0325514395147562,0.0005607209168374,-0.000173880951479,-0.0001668284530751,0.786575927734375,sn,E0,right
0.0036879495314322,-0.0013464450312487,0.0431733712941408,0.0001477738842368,-0.0024462509900331,0.0008336917962878,0.806539794921875,sn,E0,right
-0.0351750477503053,0.0342957395985489,0.0644108051121234,0.0006625289097428,-0.0024083130992949,0.0021757432259619,0.82650390625,sn,E0,right
-0.0489255233463831,0.0253880369916791,0.066196519485116,0.0036208571400493,-0.0012626280076801,0.0014856407651677,0.84646826171875,sn,E0,right
0.0079452964486554,0.024007894045161,0.1595505104869604,0.0094936564564704,-0.0048637161962687,0.002394774928689,0.86643212890625,sn,E0,right
0.0101741880118846,-0.0109821251275949,0.1213672025650739,0.0125337103381752,-0.0173614211380481,0.0049927304498851,0.88639599609375,sn,E0,right
-0.3129096189878881,0.0004741614169673,-2.937192100536823,-0.0688862800598144,0.0351092405617237,0.0025499947369098,0.906360107421875,sn,E0,right
0.5541336560877039,0.030351595949498,1.175484626075625,0.1427237540483474,0.1050627753138542,-0.015629569068551,0.926323974609375,sn,E0,right
0.1621640174536034,-0.0568923375071026,1.066703348839283,0.0162275675684213,-0.0020628962665796,-0.004085446242243,0.946287841796875,sn,E0,right
-0.1983409905217587,-0.1661624759726226,0.4181815729290247,-0.0529825389385223,-0.0011371907312422,0.0023073102347552,0.9662529296875,sn,E0,right
0.0333741175418719,-0.0729495876416331,0.1479243701010942,-0.041763812303543,-0.0072259875014424,0.0057958052493631,0.986217041015625,sn,E0,right
0.0463257161115296,0.0527168236544355,-0.6563929476767778,0.0012637637555599,0.0009922846220433,0.0024732048623263,1.006180908203125,sn,E0,right
0.0743160765221342,0.2020287756564095,-0.050204000583291,0.0223414227366447,-0.000714274123311,-0.0047151017934083,1.02614501953125,sn,E0,right
0.0580258715816773,-0.0786269071922637,0.0282008430898189,0.0177525840699672,-0.0012863250449299,-0.0067950235679745,1.04610888671875,sn,E0,right
-0.1357658216052688,0.009481880057411,0.1718535272210836,0.0053095482289791,-0.000807739328593,-0.0030466518364846,1.0660732421875,sn,E0,right
-0.0583803841077722,0.16063342861915,0.1951864720135927,0.0025250008329749,-0.002076206728816,0.0057559013366699,1.086037109375,sn,E0,right
-0.11613089108048,-0.0432290561372879,0.0292360313564538,-0.0044394312426447,-0.0005917609669268,0.0062387324869632,1.1060009765625,sn,E0,right
0.1252530492887832,-0.0600240505284164,0.1059925233006477,-0.0048639392480254,-0.0022684871219098,0.0022559750359505,1.125965087890625,sn,E0,right
0.0723826790404505,-0.0187105776549084,-0.0310848740935325,-0.0002900315448641,-0.0018170760013163,-0.0028816270641982,1.145929931640625,sn,E0,right
0.0682663662954233,-0.0374721822441555,-0.000264788416028,-0.001069201156497,-0.0022543724626302,-0.0059327129274606,1.16589404296875,sn,E0,right
-0.0477724991200491,-0.1203360876853577,-0.0276525615572929,-0.0021930718794465,9.29196830838e-05,-0.0019697195384651,1.18585791015625,sn,E0,right
-0.1305942641862668,0.0713496370651293,0.0260655846267938,0.0015688366256654,-0.0016945695970207,0.0021681680809706,1.205822021484375,sn,E0,right
0.1080610001377761,0.1028812046133913,0.0235188227534294,0.0025880637113004,0.0002964071463793,-5.35251747351e-05,1.2257861328125,sn,E0,right
0.1158189938534051,-0.0381427567157894,0.0455126278966665,0.0025454014539718,-0.000308146001771,-0.0026751135010272,1.24575,sn,E0,right
0.0177137349375523,-0.0177183037981041,0.0643657969266176,0.0011393758468329,-0.0005419610533863,-0.0023104562424123,1.2657138671875,sn,E0,right
-0.1307677210570313,0.0156171827834099,0.0694476302355527,0.0014225412160158,-0.0008759265765547,0.0007347001228481,1.285677734375,sn,E0,right
-0.0127007473474368,0.0360916168892406,0.0501408722192049,0.0013392558321356,-0.0015726150013506,0.0007624947465956,1.3056416015625,sn,E0,right
-0.0052496641565114,0.0370338205096428,0.048189738151431,-0.0001259976997971,-0.0005283905193209,0.0012512758839875,1.3256064453125,sn,E0,right
0.0159110694297589,0.0275498797842417,0.0208037185758352,0.0009220619685947,-0.000477778725326,0.0002730762935243,1.3455703125,sn,E0,right
0.0462875029929913,-0.0403072412732988,0.0472895744413137,0.0003801980055868,0.0007214362267404,-0.0017265024362131,1.365534423828125,sn,E0,right
0.0369263483970426,-0.08142835621275,0.0136193600296974,0.0007324982434511,-0.0001054727472364,-0.0014513136120513,1.38549853515625,sn,E0,right
-0.0309916063195094,-0.0215180043250322,0.0493827473282814,-0.0002335356548428,-0.0001172022894024,0.0001881486969068,1.40546240234375,sn,E0,right
-0.0389061423037201,-0.0184561896185972,0.0541711506485939,0.0005583809688687,-0.0002567442134022,-0.0007871143752709,1.4254267578125,sn,E0,right
0.0015502616493031,0.0430507358617382,0.0631441461771726,0.0019932221621274,-0.0012919295113533,0.0007044580997899,1.445390625,sn,E0,right
-0.0208565630079247,0.037911468710564,0.0504208582043647,0.000801031012088,-0.0006993643473833,0.0004053648735862,1.4653544921875,sn,E0,right
0.0203821686955168,-0.0054715746953268,0.0149538235038518,0.0022639750968664,-0.0016373156104236,0.0008067668532021,1.485318359375,sn,E0,right
-0.0027335166171193,-0.0178860570138669,0.0411322208553552,-0.0001657856628298,-0.0009630108252167,0.00087149546016,1.50528271484375,sn,E0,right
0.0074299308050423,0.0185433450289536,0.0324503172278404,-0.0017114668153226,0.0002993263769894,0.0006100641330704,1.52524755859375,sn,E0,right
0.0158371456770226,0.0008089531791512,0.0323000951021909,0.0001541655510663,-0.0005510081537067,-0.0003138981119263,1.54521142578125,sn,E0,right
0.0176725078780204,-0.0043447763222153,0.0279594355493783,-0.0005980539135634,0.0004583396948873,0.0020827506668865,1.56517529296875,sn,E0,right
0.0461549626545049,0.0077693462267052,0.0336480025798082,0.0008947383612394,0.0005000489763915,0.0009189065895043,1.585139404296875,sn,E0,right
0.0318628909950144,-0.0309763425350072,0.0432259782642126,0.001951000187546,9.7180949524e-05,0.0003753279452212,1.605103515625,sn,E0,right
-0.0160812200985848,-0.0326605601617484,0.0332020123779773,0.0005223406478762,-0.0001544835977256,-0.0005472854245454,1.625067626953125,sn,E0,right
-0.0295657747674733,-0.0055652922772103,0.042779403540492,-0.0007479172199964,0.0001869690604507,0.0012437211116775,1.645031494140625,sn,E0,right
-0.010538893138431,0.0431374003650387,0.0370960972070694,-0.0008311341516673,-4.41658776253e-05,0.0019874023273587,1.66499560546875,sn,E0,right
0.0226637950929813,0.0344853370366501,0.0281184255033731,-0.0004200641997158,-2.12911982089e-05,-0.000270993768936,1.68495947265625,sn,E0,right
0.0199241409960202,0.0423464737496338,0.0314145444393157,-0.0002404600381851,0.0011433609761297,0.0008152078953571,1.70492333984375,sn,E0,right
0.0368964281828142,0.009302095052204,0.0495265397131443,0.0004959041252732,0.0021612744312733,-5.09075180161e-05,1.724888427734375,sn,E0,right
0.0344849465942941,-0.037456808861799,0.0525227989196777,-0.0009872862137854,0.001568239647895,0.0008220274467021,1.7448525390625,sn,E0,right
0.0072291110033169,-0.033470620735886,0.052826165780425,-0.0012784954160451,0.0001645011361688,-0.000430593121564,1.76481640625,sn,E0,right
-0.0485159378984943,-0.0311012749557732,0.0474409656107425,-7.21202231943e-05,0.0011546871392056,0.000119712378364,1.7847802734375,sn,E0,right
-0.0450423617701046,-0.0408925668805837,0.0383154098689556,-0.0004388196393847,0.0003746461588889,0.0007198135135695,1.80474462890625,sn,E0,right
-0.0251446703895926,-0.0332422233740682,0.0348743295043706,0.0009265472181141,0.0001109957229346,1.22958736028e-05,1.824708740234375,sn,E0,right
-0.0130695989261381,-0.0159100031339679,0.0498357517927885,0.0007086126133799,-0.0008288682438433,0.0006270976737141,1.844672607421875,sn,E0,right
0.021628844288364,-0.0086326348254224,0.0404091672778129,-0.0003513791598379,0.000745085068047,0.0006917727878317,1.864636474609375,sn,E0,right
0.0414026900934986,0.0261978829366853,0.0308317761152982,-0.0005700243636965,0.0001959411893039,0.0008536929963156,1.8846005859375,sn,E0,right
0.0475062311329878,0.0436000174746848,0.0499859739184379,0.0008202516473829,-0.0001452181022614,-0.0002650876413099,1.904564453125,sn,E0,right
0.033590737700928,0.0190036400340613,0.0317301862597465,0.0008724173530936,0.0008926142472773,0.0017437619389966,1.924529541015625,sn,E0,right
0.0104919487241655,0.0020620539462077,0.0517827942073345,-0.0007638027891516,-0.0001242100261151,-0.0006904195179231,1.944493408203125,sn,E0,right
0.0055278600433841,-0.0099732677454594,0.0314355872273445,0.000564791727811,-0.0002432775218039,-8.21954454295e-05,1.96445751953125,sn,E0,right
-0.0024930406584404,0.0025318930977955,0.0380213953584432,0.0009727347642183,0.0005295551382005,0.0002834832703229,1.98442138671875,sn,E0,right
0.0047687305054627,-0.0133207150098402,0.0362274976789951,0.0003387597389519,0.0002222573384642,0.0016505209496244,2.004385498046875,sn,E0,right
0.0125376474739052,-0.0071441863659536,0.0490934089928865,0.0001556947827339,-0.0007849619723856,0.0004702284350059,2.024349609375,sn,E0,right
0.0082876801455393,-0.0123870166395907,0.0443026675850153,-0.0001699742861092,-0.000393479829654,-7.63364951126e-05,2.044313720703125,sn,E0,right
0.008891637388058,-0.0158491512086475,0.0467003763765096,-9.99863259494e-05,0.0012110581155866,-0.0003756490768864,2.064277587890625,sn,E0,right
-0.0005849785474129,0.0106934854785213,0.0495446598917245,0.0013263667933642,0.0011484766146168,-0.0003004635800607,2.084241455078125,sn,E0,right
-0.0120947260119952,0.0111757799695944,0.0410147319555282,0.0018854178488254,0.000424645608291,-0.0012573641724884,2.10420556640625,sn,E0,right
-0.006107632692717,0.0015462179451365,0.0516384173005819,-0.0011204206384718,0.0004432825371623,0.0002985522442031,2.124170654296875,sn,E0,right
-0.0056791416149586,0.0143014354261686,0.034131402182579,-0.0001949025318026,-0.0020033491309732,0.0005114027881063,2.144134521484375,sn,E0,right
0.0061178800920955,0.0077685379425296,0.0413145916849374,-0.0004610582254827,-0.000303465174511,0.0034025509376078,2.164098388671875,sn,E0,right
0.0105494145324453,-0.0073024707837612,0.032633857101202,-0.0013558459468185,-0.001398007152602,0.000336601427989,2.1840625,sn,E0,right
-0.0023322058072313,-0.0027623568358249,0.0413128381192684,0.0010837879963219,0.0002118605189025,-0.0004933943273499,2.204026611328125,sn,E0,right
0.0040345162130892,-0.0074128814888303,0.0354787251383066,0.0004116422496736,0.0012848455226048,0.0017728714738041,2.223990478515625,sn,E0,right
-2.10062554106e-05,-0.031227305638371,0.0366793330997228,0.0005414439365267,0.0003783171996474,0.0008021289249882,2.24395458984375,sn,E0,right
0.0073968505193479,-0.0105406695369863,0.0452104300796985,-0.0006506582722067,0.0003375760279595,0.0001900366041809,2.263918701171875,sn,E0,right
0.0194466779436916,0.0018885331433615,0.0531423921227455,7.27106817066e-05,-0.000398278934881,-0.0001689167984295,2.283883544921875,sn,E0,right
0.0249954711772501,0.0059122425513574,0.0434159478783607,0.0001749405637383,1.7303973436e-06,-0.0002884084533434,2.303847412109375,sn,E0,right
0.0008688187237828,0.0082627808830118,0.0380295786648988,0.0007019801996648,-0.0009322401601821,-0.0012980127939954,2.323811279296875,sn,E0,right
0.0069234060550108,0.0008171638850704,0.0592769493550062,0.0004496718756854,-0.0003079872112721,-0.0006636612815782,2.3437763671875,sn,E0,right
-0.0083379672943614,-0.002196423198888,0.0257610487222671,0.0004658992402255,-0.0010819006711244,0.0009892716770991,2.363740234375,sn,E0,right
0.0034780879067257,0.0054498172379564,0.0447650243997573,0.0002168044447898,7.68473837524e-05,0.0004039863124489,2.383704345703125,sn,E0,right
0.0005519895932637,-0.0098845185996382,0.0378805255830287,0.0005675083957612,-0.0002078618854284,0.0009923968464136,2.403668212890625,sn,E0,right
0.0026726350090466,-0.0126286913248011,0.0462590623497962,0.0005322122015058,0.0005625812336802,-0.0002743646036833,2.423632080078125,sn,E0,right
0.0016754041326232,-0.0156240052498411,0.0499994179219007,0.000453365035355,0.0009266568813472,0.0007902424549683,2.443596435546875,sn,E0,right
0.0056591217402368,-0.0013868192824767,0.0410217462182044,-0.0003165020607411,1.45202502608e-05,5.89452974963e-05,2.463560546875,sn,E0,right
0.0079803494957275,0.0102648985026404,0.0350379956334829,0.0014684726484119,0.001270477543585,-0.0001018391049001,2.4835244140625,sn,E0,right
0.003906926044356,-0.0016151047631516,0.0419213254064321,0.000592665746808,-0.0012880496215075,0.0013448372483253,2.50348828125,sn,E0,right
-0.002364317978546,-0.0092441794360638,0.0450631305634975,-0.0006914748810231,-1.85028184205e-05,-0.0005674302228726,2.523452392578125,sn,E0,right
-0.0110300193899311,-0.0080405826498288,0.0455120433747768,0.0006346199661493,-7.04426784068e-05,0.0004935867036692,2.54341650390625,sn,E0,right
0.002875537170004,-0.0012293568485765,0.0348883580297231,-0.0007510581053793,0.0013389049563556,-0.0002674604183994,2.56338134765625,sn,E0,right
0.0103818394131958,0.0059264697228209,0.0268073429048061,0.0001249443739652,0.0003868180792778,-0.0004813898121938,2.58334521484375,sn,E0,right
0.0252963355536572,0.0128930139499483,0.0348854354202747,0.0006337137892842,-0.0003918779548257,0.0008842588867992,2.603309326171875,sn,E0,right
0.0133878528287634,0.0006493193377624,0.0423626394331455,0.0004532057791948,-0.0008100187405943,0.0018076170235872,2.623273193359375,sn,E0,right
0.014301277879253,0.0132324818872497,0.0411649540811777,0.0015748036094009,-0.0001742923632264,-0.0001611296029295,2.643237548828125,sn,E0,right
0.0149243599473498,-0.0075699534803745,0.0519382770299911,0.0006056986749172,0.0002163716126233,0.0001953259634319,2.66320166015625,sn,E0,right
0.0017438479926437,-0.0060663394178147,0.0461024104833602,0.0009933654218912,0.00049654324539,-0.0004117971111554,2.68316552734375,sn,E0,right
-0.015185038443841,-0.0027898088150424,0.0414642292886972,-0.0002129762433469,-0.0002616441342979,0.000291607750114,2.70312939453125,sn,E0,right
-0.0047203978517092,-0.0107588377657346,0.0417635044962167,0.0012562731280922,-0.0001868281979113,-0.0005473453202284,2.72309326171875,sn,E0,right
-0.0049228616212494,-0.0001590698690968,0.0362274976789951,0.000888560898602,0.000186029355973,0.0006383581785485,2.743057373046875,sn,E0,right
0.0091764822114258,0.0010963735520956,0.0300946940124034,-0.0001121405512094,-0.0014610479120165,-0.0003123708593193,2.763021484375,sn,E0,right
0.0198014096654951,-0.0042283149022725,0.0464022702127695,0.0003302991390228,2.76726204901e-05,1.72172440215e-05,2.782986328125,sn,E0,right
-0.0009612827802076,0.002375684189354,0.0419125575780868,-0.0004234816879034,-0.0007633189670741,0.0013336711563169,2.8029501953125,sn,E0,right
0.0067582055559381,-0.0007910590461455,0.0386187767297029,-0.0003679641522467,-0.0008245401550084,5.88536495342e-05,2.82291455078125,sn,E0,right
0.0015108064217492,9.519030305e-06,0.0435574021756649,-0.0012729237787425,-0.0007404033094644,0.0006870358483865,2.84287841796875,sn,E0,right
0.0008091609584167,-0.006893928798777,0.0338303734093904,-0.0001295935362577,0.0005571064539253,-0.0005245539941824,2.862842529296875,sn,E0,right
0.0040075551409274,0.0018673236752627,0.0197661922216415,0.000539677683264,-0.0002229551319032,0.0005251223337836,2.882806396484375,sn,E0,right
0.0137038417090661,-0.0033122572199907,0.0411655386030673,0.0007399106398224,-0.0004325227346271,-0.0006050723604857,2.9027705078125,sn,E0,right
0.0072157948640175,-0.0133541811713133,0.0480500374197959,-0.0002296036109328,7.85270240157e-05,-0.0004996821517124,2.922734375,sn,E0,right
0.0218578490049578,0.0005292115058749,0.0429594362825155,-0.0001704450696706,-0.0011856781784445,1.68869446497e-05,2.9426982421875,sn,E0,right
0.0054884778810665,-0.0008750521017471,0.0528366871744394,-0.0012968205846846,1.29996333271e-05,0.001212042523548,2.962662353515625,sn,E0,right
0.0009080912882462,-0.0040110029067611,0.0395177713960409,0.0003235172480344,-6.37052580714e-05,-0.0002688438107725,2.98262646484375,sn,E0,right
0.0087681388725526,-0.0006504586987895,0.0426584075093269,0.0004778392612934,-8.58195126056e-05,-0.0003536946314852,3.00259130859375,sn,E0,right
0.0152308868795633,0.0120277914057602,0.044901802521944,0.000309367198497,0.0007019566837698,0.00046520770411,3.022555419921875,sn,E0,right
-0.0013688224014826,0.0078989593891659,0.0460989033520221,-0.0006193653680384,-0.0004455926828086,-0.000856441387441,3.042519287109375,sn,E0,right
-0.0126023284742608,0.009967525274551,0.040412674409151,0.0008923155255615,-0.0001752667594701,-6.51518930681e-05,3.0624833984375,sn,E0,right
-0.0029204540239647,-0.0085767079536803,0.033829204365611,0.0004877271130681,0.0004788094665855,-0.0005562455626204,3.082447509765625,sn,E0,right
-0.0012358254052698,-0.0061109594442532,0.0399637615978717,-0.0006630416028201,1.69982668012e-05,0.0009526439243927,3.102411376953125,sn,E0,right
0.0081825940695591,0.0061612808424048,0.0404132589310407,3.78661789e-05,-0.0005861846730113,0.0014554994413629,3.12237548828125,sn,E0,right
0.0091433105941861,-0.0004354185754666,0.0443020830631256,0.0009865737520158,-0.0005886300932615,0.0004522752715274,3.14233935546875,sn,E0,right
0.0116783089645206,0.0074340224582701,0.0366705652713775,-0.0002731899730861,-0.0001952529419213,-0.0012249385472387,3.16230322265625,sn,E0,right
0.0203196979185566,0.0071641012093983,0.027842531171441,-8.18334519863e-05,0.0003546790685504,0.0007611758774146,3.182267333984375,sn,E0,right
0.0172393223588354,0.0105764486698433,0.0474473953515291,0.0001700483262538,-0.0003688773140311,0.0004532744642347,3.2022314453125,sn,E0,right
0.0039725751590915,0.0058264342812937,0.0360737684220075,0.0003319862298667,-0.0003670349251478,0.0001114490441977,3.2221953125,sn,E0,right
-0.0014418511050753,0.0017556388951372,0.0281429754227399,0.0013773655518889,0.0014441737439483,-0.0002082081336993,3.242160400390625,sn,E0,right
-0.0005380341331474,-0.0061702998324995,0.0453518843770027,0.0009397375397384,-0.0012831636704504,-0.000166494079167,3.262124267578125,sn,E0,right
0.0040043950694613,-0.0038863147978787,0.0429559291511774,1.00811012089e-05,0.0002090220805257,0.0008891563629731,3.282087890625,sn,E0,right
-0.0022195026803761,0.0048569111124146,0.0366699807494878,-0.000193259678781,-0.0005712939891964,-0.0004689514171332,3.30205224609375,sn,E0,right
0.0023601349937729,-0.0026152924983529,0.0447480732649564,0.0011337758041918,0.000739918788895,0.0003116938169114,3.32201611328125,sn,E0,right
0.0247913634398952,0.0046293380177929,0.0341208807885646,0.0006536711007356,-0.0011566292960196,0.0012651025317609,3.341980224609375,sn,E0,right
0.0066069239843636,-0.003682627185632,0.0384586177319288,0.0001265350729227,-0.000166886486113,-0.0012751542963087,3.361944091796875,sn,E0,right
0.0113184078772552,0.0025321602425654,0.0430991370141506,0.0003754976205527,-1.61698553711e-05,-0.0007967171259224,3.381907958984375,sn,E0,right
0.0069638476632535,-0.0117673412381322,0.0432487746179103,0.0008943802677094,0.0007087008561939,0.0001199522230308,3.401871826171875,sn,E0,right
-0.0078571067085489,0.0073041056184214,0.0408545729577541,-0.0007474212907254,-0.0004381136968731,0.0011109671322628,3.421836181640625,sn,E0,right
-0.0010098163633607,0.0038549241457716,0.0359171165555715,-0.000246460083872,-0.0006433909293264,-0.0002550290664657,3.441800048828125,sn,E0,right
0.0082334109413437,-0.005041592630092,0.0410059641271829,0.0003404510207474,0.0008973863441497,-0.0003009786014445,3.461763916015625,sn,E0,right
0.003866009512078,0.0075830823900061,0.0366664736181497,-0.0002911551855504,-0.0010153902694582,-0.000329244416207,3.481728759765625,sn,E0,right
0.0066910038049332,0.0029495956367696,0.0439957935929298,-0.000263764988631,-0.0007448189426213,-0.0002353200688958,3.501693359375,sn,E0,right
-0.0077963712309487,-0.0029309777012676,0.0444441218823194,0.0001070485450327,-6.03310763835e-05,0.000648284854833,3.5216572265625,sn,E0,right
-0.0021404643611051,0.0114832476167241,0.0460907200455665,-0.0003731246106326,8.20069108158e-05,0.0006661114748567,3.54162109375,sn,E0,right
0.0139975456923246,0.0011436764426762,0.0444482135355472,0.0009358054958283,0.0005114448722451,0.0002001427492359,3.561585205078125,sn,E0,right
0.0084010591258294,-0.0042785609518992,0.0513327123522758,-0.0002750996500253,-0.0014539265539497,-0.0010879810433834,3.581549072265625,sn,E0,right
0.0155998115235008,-0.0014974172172136,0.0459457586169242,0.0003340607509016,7.37479422241e-05,-0.000138014787808,3.601512939453125,sn,E0,right
0.0098038751284591,0.007674566915608,0.0420545963972806,0.0002796887420117,-0.0002518387045711,-3.744586138e-06,3.621476806640625,sn,E0,right
