time,seconds_elapsed,z,y,x
1773798637829347600,0.05834765625,-0.3384229765594005,-0.06768588126003741,-0.12743103264868258
1773798637849310700,0.078310791015625,-0.21929858448505402,-0.10647416933774947,0.1839699353419244
1773798637869272600,0.0982724609375,-0.08068141030296683,-0.09345511328876017,0.4797396189585328
1773798637889235500,0.1182353515625,0.050761196074634786,0.13681260897815226,0.5902306227222085
1773798637909197600,0.138197509765625,0.17962123861312865,0.28125498218238354,0.36406697477325795
1773798637929160700,0.15816064453125,0.16194412762522697,0.15252981806993485,0.09309051776006817
1773798637949122600,0.17812255859375,-0.21111060185432431,-0.14683014512360096,0.0662910659007728
1773798637969085700,0.198085693359375,-0.5637292770266532,-0.3970435078322887,0.2161290145382285
1773798637989047600,0.218047607421875,-0.6135527538597584,-0.3490606904298067,0.23280060174539685
1773798638009010400,0.238010498046875,-0.3057330053567886,-0.09124737411141395,0.16597645188122986
1773798638028972300,0.25797216796875,0.1341935125209391,0.0065974985688924785,0.09267068491280078
1773798638048935400,0.277935302734375,0.1521872882425785,0.07594985173642635,0.014109481634199618
1773798638068897500,0.2978974609375,0.26562194424271585,0.06513619677722454,-0.009253273774683475
1773798638088860400,0.3178603515625,0.30405075135827064,-0.17163140890300274,-0.06021627603173255
1773798638108822300,0.337822265625,-0.07924728584662079,-0.6420750839889049,-0.1105991403132677
1773798638128784400,0.357784423828125,-0.43082668109908695,-0.5856365729302168,0.1995940593227744
1773798638148747500,0.37774755859375,-0.24272169177904723,-0.2692991714507341,0.4236927375659346
1773798638168709600,0.397709716796875,-0.24445874470472334,-0.26339900749623774,0.11008768365979194
1773798638188672300,0.41767236328125,0.01964212745055556,-0.005787351229786872,0.026984014645963905
1773798638208634400,0.43763427734375,0.9733039112605154,0.7034481288403273,-0.1372470548726618
1773798638228597500,0.457597412109375,1.8731833976089953,1.1127180810391901,-0.7517815132461488
1773798638248559400,0.477559326171875,1.2591349691867828,0.8488450262904167,-1.0125086711846292
1773798638268522500,0.4975224609375,-0.3848971429646015,0.3039075434952974,-0.2724151115141809
1773798638288484400,0.517484375,-1.4596167711295187,-0.21302374199926852,0.251004659216851
1773798638308447500,0.537447509765625,-1.6230781714498996,-0.48154666838049887,0.341496538785845
1773798638328409300,0.557409423828125,-1.0326594788096846,-0.5413870968371629,0.25468714712187646
1773798638348372500,0.57737255859375,-0.4787384790919721,-0.3680354400128126,0.47990065473914145
1773798638368334600,0.59733447265625,-0.16255656043514607,-0.20750176370739937,0.6438808182366192
1773798638388297200,0.617297119140625,-0.10679799446463584,-0.6454232253730297,0.11953355739712715
1773798638408259300,0.63725927734375,0.18481530012488365,-0.6170487792819738,-0.5566005941905081
1773798638428222500,0.657222412109375,0.5164321038007736,-0.11326280656456947,-1.2382654918983578
1773798638448184600,0.6771845703125,-0.060251639606058595,1.139246607002616,-2.05208932755962
1773798638468147500,0.6971474609375,-1.9820728113949297,1.938558079317212,-2.5656951218932864
1773798638488109300,0.717109375,-3.735064187698066,1.5798919406741856,-1.7875424652025103
1773798638508072400,0.737072509765625,-3.9913399191856382,0.6900900500953198,-0.6385647377803921
1773798638528034600,0.75703466796875,-2.4712603499174115,-0.798918089082837,-0.10683072769045829
1773798638547996400,0.776996337890625,0.5292807717189193,-1.2795038034766912,1.4294219777435064
1773798638567959300,0.796959228515625,5.173950451618433,-0.6124620360136032,4.035016563826799
1773798638587921400,0.81692138671875,7.875366295599937,0.2301701071113348,3.9617537592172622
1773798638607884300,0.83688427734375,3.8995454325854775,0.5633487532764673,1.0331697664193809
1773798638627846400,0.856846435546875,-1.1835833229877053,1.558624696239829,-0.8374313596114515
1773798638647809500,0.8768095703125,-4.643818323767185,1.4704296954363583,-2.9459067373901604
1773798638667771400,0.896771484375,-4.762027354562282,0.8956167143374681,-3.601035364219546
1773798638687734300,0.916734375,-2.628936298704147,0.3972708868473768,-4.271427026632428
1773798638707696400,0.9366962890625,1.4001133195422588,0.01116495261490345,-4.84476350543797
1773798638727659500,0.956659423828125,5.16457472050786,0.26775135748684403,-3.691089436893165
1773798638747621600,0.97662158203125,4.491773366604745,0.49485038658976555,-1.0687822009399532
1773798638767584300,0.996584228515625,2.6514856919035314,1.1876005958050488,1.6315642602443694
1773798638787546400,1.01654638671875,1.3611425145044922,0.6173357795298099,3.489644489006698
1773798638807509500,1.036509521484375,0.6395227691575884,-0.8887889141440392,3.897057122901082
1773798638827471600,1.0564716796875,-0.4546162836179137,-2.393431260305643,3.1819118342652914
1773798638847434500,1.0764345703125,-1.8463991433188318,-3.0370851379185915,1.274854808627069
1773798638867396400,1.096396240234375,-3.582873684585094,-2.3925801964342592,-0.23851401095613836
1773798638887359500,1.116359375,-3.564953412491083,-1.60041742683053,-0.1612253848966211
1773798638907321300,1.1363212890625,-1.9568276032403111,-0.32658699281513687,1.3102633911386132
1773798638927284500,1.156284423828125,2.2666576686523854,3.232698310911655,3.159735950553417
1773798638947246300,1.176246337890625,7.4944193515658375,5.554606888273358,2.791035909152031
1773798638967208400,1.19620849609375,3.5662592343926427,0.08779284974336624,0.4808940496906638
1773798638987171300,1.21617138671875,-0.6078758772671222,-2.212348132446408,-1.1931529692351817
1773798639007133700,1.2361337890625,-1.9237436642840504,-2.2067957590162752,-2.1130868170969186
1773798639027096800,1.256096923828125,-1.8283119902253149,-0.9879700038641691,-2.7590345047354696
1773798639047059000,1.276058837890625,-1.2454931050643323,1.0423889917939901,-3.5245436606913803
1773798639067021800,1.296021728515625,-0.4616682479560375,1.055509170129895,-3.191920018060505
1773798639086983700,1.315983642578125,0.5292284570097923,0.4003443029433489,-0.5760261562809348
1773798639106946800,1.33594677734375,1.4198378645792602,0.210230896410346,2.6095938848525284
1773798639126908700,1.35590869140625,1.4058417801916598,-0.2389934650361538,4.702874616108835
1773798639146871800,1.375871826171875,0.6070856036722659,-1.1039134278148413,4.000383641862869
1773798639166834000,1.395833984375,-0.4648541845157742,-0.5286217232882976,1.9340511232867836
1773798639186796800,1.415796875,-0.7519204833254217,0.18942191713750361,-0.8498900052987038
1773798639206758700,1.435758544921875,-0.5854677922345698,0.44893794572055334,-2.6604572261273858
1773798639226721800,1.4557216796875,-0.29012013342231513,0.6833557734042406,-2.853326653370261
1773798639246684000,1.475683837890625,0.41344782240539785,-0.006804419317841529,-1.9467777722604571
1773798639266646800,1.495646728515625,0.575793662699312,-0.13690145630538464,-0.15867343539148568
1773798639286608600,1.515608642578125,0.48254269368052477,-0.07693418659865855,0.6947237012453377
1773798639306571800,1.53557177734375,0.4298356242351234,-0.20825988859832287,0.5656652135252952
1773798639326534000,1.555533935546875,0.329828166693449,-0.186498723167181,-0.022878186762332914
1773798639346495700,1.575495849609375,0.09630860302373766,0.07004676517248153,-0.5348256924949586
1773798639366459000,1.595458984375,-0.25326032918915153,0.18723405170440674,-0.4994597800813615
1773798639386420700,1.615420654296875,-0.37740810238346456,0.10963058754205703,-0.06177388073727488
1773798639406383900,1.6353837890625,-0.17269363130703566,-0.18715338768363,0.38990269616693257
1773798639426345700,1.655345703125,0.08401435411795974,-0.16843524321019648,0.7077849890008568
1773798639446308900,1.675308837890625,0.25520108799338337,0.0731722037166357,0.49820992615073917
1773798639466270700,1.695270751953125,0.04781505962014198,0.1266588792324066,0.24644436556398866
1773798639486233600,1.715233642578125,-0.4383575149953365,0.13091478311121463,0.07715776622146367
1773798639506195700,1.73519580078125,-0.9635891574539244,0.26940613895654675,0.21574103813394904
1773798639526158800,1.755158935546875,-1.1242600502729416,0.3610737843066454,0.5161994640886783
1773798639546121000,1.775120849609375,-0.8952477348946034,0.07304419342279433,0.49048546937853094
1773798639566083800,1.795083740234375,-0.5633388164043426,-0.3185176681280136,0.2776930519171059
1773798639586045700,1.815045654296875,-0.08172317444086075,-0.3376110756546259,0.03342325391322374
1773798639606008800,1.8350087890625,0.21663550275564192,0.019788988575339315,-0.026187603571265934
1773798639625971000,1.854970947265625,-0.2237527874149382,0.057122401669621466,0.21885946241542695
1773798639645933800,1.874933837890625,-0.6499206829227506,0.09320376887619494,0.23585721283704042
1773798639665895700,1.894895751953125,-0.5752711001299321,-0.075294018176198,-0.04114449581503868
1773798639685857800,1.91485791015625,-0.21604425886422393,-0.22971710264682768,-0.5030645265750586
1773798639705820700,1.934820556640625,-0.10754720539674162,0.18506255288422108,-0.852291805743426
1773798639725782800,1.95478271484375,-0.32303134616017337,0.4531429961949587,-0.8754615227982402
1773798639745746000,1.974745849609375,-0.2315386189855635,0.4538087666273117,-0.27595351477339863
1773798639765707800,1.994707763671875,0.5596889155946672,0.09919804085493088,0.5110872356414795
1773798639785670700,2.014670654296875,1.3766226999700069,-0.6825906342506408,0.4836757893636822
1773798639805632800,2.0346328125,1.679700806903839,-1.1733563818752766,-0.02392345803156495
1773798639825596000,2.054595947265625,1.4582628723025322,-0.8541992467999457,-0.6112108669087291
1773798639845557800,2.074557861328125,1.092099363641441,-0.10387012431919575,-0.9287196502551436
1773798639865520600,2.094520751953125,0.7195660276874899,0.5861649807184934,-1.024291317306459
1773798639885482800,2.114482666015625,0.439939085098356,1.0295201578706503,-0.4927331021748483
1773798639905446000,2.13444580078125,-0.023606647167354822,0.7757347818940877,0.4347095138818025
1773798639925408000,2.154407958984375,-0.11126242652758955,-0.014609540110826491,0.7744267680354416
1773798639945370600,2.17437060546875,-0.11061726049184799,-0.2031821469426155,0.31875761436372996
1773798639965332700,2.194332763671875,-0.4432746592618525,0.21317104151546953,-0.38522155261337754
1773798639985296000,2.2142958984375,-0.7755249385356903,0.33771628959476946,-1.0061651473768054
1773798640005257700,2.2342578125,-0.5224373355649411,-0.22496493968367576,-0.7949050540491938
1773798640025219800,2.2542197265625,0.40325799843296406,-0.49925475902855393,-0.24266484702527522
1773798640045183000,2.274182861328125,0.6999846905134618,-0.24948855556547642,0.2491328739956021
1773798640065145000,2.29414501953125,0.06837956261262297,0.3360533248186111,0.4081495698668062
1773798640085107700,2.314107666015625,-0.6571509264372288,0.3676730364412069,0.4092031705729663
1773798640105069800,2.33406982421875,-0.6423558006264269,0.0060118076354265205,0.3893151055373251
1773798640125033000,2.354032958984375,0.18932561715617774,-0.0665367112249136,0.14594853998348117
1773798640144995000,2.3739951171875,0.6440038600943983,0.10260112729668616,-0.2614380826868117
1773798640164958000,2.3939580078125,0.09924830973744392,0.0012438625812530516,-0.49615956949219103
1773798640184919800,2.413919921875,-0.6885504194378852,-0.17448153763711452,-0.3159280900262296
1773798640204883000,2.433883056640625,-0.9133459939040243,-0.1712532232403755,-0.2129020153157413
1773798640224845000,2.453844970703125,-0.5640228531457483,-0.11575228529274463,-0.11720423766672611
1773798640244808000,2.473807861328125,-0.15889993762373925,-0.15300444984436035,0.06582417904138564
1773798640264770000,2.49377001953125,0.1469755449436605,-0.0923994667559862,0.08709113121479749
1773798640284733000,2.51373291015625,0.35457799254655836,0.10504793592691421,0.032860505463927984
1773798640304694800,2.53369482421875,0.1077859825886786,0.2065887405157089,-0.10422098358348011
1773798640324658000,2.553657958984375,-0.35624051893129943,0.12512801640331744,-0.06289835472255945
1773798640344620000,2.5736201171875,-0.5539689305126667,-0.021816695010662076,0.05854381277486682
1773798640364583000,2.5935830078125,-0.24524799538627265,-0.002184358301758766,0.15389160794243215
1773798640384544800,2.613544677734375,0.05148600321784615,0.07090893495976924,0.11402779958769678
1773798640404508000,2.6335078125,0.050184711360931396,0.1315823071092367,0.060147594709694385
1773798640424470000,2.653469970703125,-0.047078562039136886,0.1971691702634096,0.24006474752947687
1773798640444432100,2.67343212890625,0.08731134983673691,0.0851408739298582,0.4540913829609751
1773798640464394800,2.693394775390625,0.2303774662517011,-0.18356500780284404,0.42451048368960614
1773798640484356900,2.71335693359375,0.0902769216440618,-0.10639642792642116,0.20311843405663965
1773798640504320000,2.733320068359375,-0.27120179020166396,-0.048207273808121676,-0.1137105503320694
1773798640524281900,2.75328173828125,-0.5674351458072662,-0.18859306509792803,-0.5225200454123318
1773798640544245000,2.773244873046875,-0.6530209870256484,-0.13192191432714462,-0.48545054395124315
1773798640564206800,2.793206787109375,-0.5023838508345186,0.01713584371805191,-0.06064180796742439
1773798640584170000,2.813169921875,-0.08180617654919624,-0.028008535388112068,0.1593561569586396
1773798640604131800,2.8331318359375,0.2760708575427532,0.05451368047595024,0.17356763766258954
1773798640624095000,2.853094970703125,0.4235585897922516,0.18403379435837267,-0.10954086343199014
1773798640644057000,2.87305712890625,0.13743760900869964,0.1531979265898466,-0.12196180745735764
1773798640664019700,2.893019775390625,-0.09616188802942634,-0.1308113227367401,0.06519771770611404
1773798640683981800,2.91298193359375,0.06098331488147377,-0.26686113064885136,0.038028409621119495
1773798640703945000,2.932945068359375,0.26102774832025166,0.07797872721552848,0.11264628210142254
1773798640723907000,2.952906982421875,0.1482441035747528,0.17046178060173986,-0.050479602654278276
1773798640743870000,2.972869873046875,0.07653130488619207,-0.06408639546334743,-0.306942673407495
1773798640763831800,2.992831787109375,0.11763035412430763,-0.1717418835401535,-0.4001099096655845
1773798640783794000,3.0127939453125,0.10503156931400298,-0.16456687734425066,-0.3886307765349746
1773798640803757000,3.032757080078125,0.25938378050550814,-0.04568155472278595,-0.37910058551505205
1773798640823719000,3.052718994140625,0.5400559943638742,0.1704781472146511,-0.502301140987128
1773798640843681800,3.072681884765625,0.6825508867621422,0.2576888131558895,-0.5077671513080597
1773798640863644000,3.092643798828125,0.4362709179796278,0.07073065578341484,-0.37560397557094694
1773798640883606800,3.112606689453125,0.1950210523188114,0.007265022566914558,-0.23013766614645717
1773798640903569000,3.13256884765625,0.07760463320612906,-0.012552023059129714,-0.056114101409912104
1773798640923532000,3.152531982421875,0.07619827353954314,-0.08620937994420527,-0.05468026921451091
1773798640943494000,3.172493896484375,0.23376214025393127,-0.2381084988951683,0.05806801195666193
1773798640963456800,3.192456787109375,0.4183119213104248,-0.16760113047361372,0.22797566580697892
1773798640983419000,3.2124189453125,0.4665712175667286,0.014016834914684294,0.28391616421565413
1773798641003381200,3.23238134765625,0.22289909319505094,0.0461760602414608,0.1898877810835838
1773798641023343000,3.252343017578125,0.01653758556395769,-0.025531916141510007,0.02441270285323262
1773798641043306200,3.27230615234375,-0.05470993370041251,-0.007729717469215393,-0.15686317109912634
1773798641063268000,3.29226806640625,0.005572977826744318,0.00009586158990859984,-0.3090111502446234
1773798641083231200,3.312231201171875,0.06545227698907256,-0.06141571494936943,-0.3083427494637668
1773798641103193300,3.332193359375,0.20350684885233639,-0.08746844009459018,-0.24078736271560192
1773798641123156000,3.352156005859375,0.17015198400020598,-0.11311959870159626,-0.15680881056338547
1773798641143118000,3.3721181640625,-0.06877236132249236,-0.13189970249533653,0.2632724585071206
1773798641163080200,3.392080078125,-0.09881576353907584,-0.15317863736748694,0.48269160063192246
1773798641183043300,3.412043212890625,0.1558792746283114,-0.15309563525915146,0.3787764681272208
1773798641203005200,3.432005126953125,0.28885654322728516,-0.12332476637363433,0.260423791077733
1773798641222968000,3.451968017578125,0.36549934566393494,-0.008570259946584701,0.04079787433445453
1773798641242930200,3.47193017578125,0.27053777333497997,0.2108107421249151,0.06459229915887117
1773798641262893300,3.491893310546875,0.24637130032777785,0.12713701813817024,-0.011381810235977173
1773798641282855200,3.511855224609375,0.45511473465934393,-0.012065116325020789,-0.45919294388368725
1773798641302818000,3.531818115234375,0.2899276795901358,0.11325053160488605,-0.5975733867004513
1773798641322780200,3.5517802734375,-0.19551424266323447,0.08101122677922248,-0.5199678767114877
1773798641342743000,3.571742919921875,-0.5744460474826395,-0.08465688980519771,-0.38762817536368965
1773798641362705200,3.591705078125,-0.367619698818773,-0.06142214469015598,-0.361044558212161
1773798641382668300,3.611668212890625,0.1340801152743399,0.05221007970869541,-0.2939068123541772
1773798641402630100,3.631630126953125,0.3731527830265462,-0.04051964191496372,-0.27180209418237206
1773798641422593000,3.651593017578125,0.26593393280133604,-0.26159984911978246,-0.10234788318797945
1773798641442555100,3.67155517578125,0.04422594908699393,-0.3161415866464376,0.14391878772154448
1773798641462518300,3.691518310546875,-0.0052127662122249604,-0.05893266596198082,0.13468144216835498
1773798641482480000,3.711480224609375,-0.029843495730310678,0.31023557747304437,0.03842208511382341
1773798641502443000,3.731443115234375,-0.045786841728165745,0.25969489228129383,0.008623889829963444
1773798641522405000,3.751405029296875,0.025457024274393916,-0.10297171417474746,-0.03705181967392564
1773798641542367200,3.7713671875,0.024892449194192885,-0.1854366468936205,0.11986103578582405
1773798641562330400,3.791330322265625,-0.1579296312868595,-0.030368250256776808,0.3343566039033234
1773798641582292000,3.8112919921875,-0.2835901471316814,0.097314126804471,0.4958813370727002
1773798641602255000,3.831255126953125,-0.18501739856824279,0.14423662149906158,0.49725364833921193
1773798641622217200,3.85121728515625,0.01078778986558318,0.20763678826391696,0.3370345909409225
1773798641642180000,3.87118017578125,-0.05948218960352242,0.35740532492697236,0.3137954619117081
1773798641662142200,3.89114208984375,-0.4491125716350972,0.31450960153043267,0.25014438912570475
1773798641682105000,3.91110498046875,-0.8680931859873234,0.023477321699261665,0.12370587464570998
1773798641702067200,3.931067138671875,-0.9445162081934511,-0.38801848985552784,0.004039630779623985
1773798641722030000,3.951030029296875,-0.6822117179356515,-0.44171793133914466,0.14298413721993564
1773798641741992200,3.9709921875,-0.4060673567652702,-0.2551888130337,0.4116261599361896
1773798641761955300,3.990955322265625,-0.14508987732753156,0.008072247296571732,0.260686825928092
1773798641781917200,4.010917236328125,0.02209741164818406,0.3664098846375942,-0.004258680357784032
1773798641801880000,4.030880126953125,0.13662629262581466,0.4155407030314207,-0.3387991163954139
1773798641821842200,4.05084228515625,0.06017652854323387,0.049667409488558766,-0.6004493805281818
1773798641841805300,4.070805419921875,0.005965630406141281,-0.17996084583103655,-0.5094299699537456
1773798641861767200,4.09076708984375,0.10986899940781295,-0.1315226858764887,-0.26692791227474805
1773798641881730000,4.11072998046875,0.2188132851861417,-0.02627425894141197,-0.21811931157261133
1773798641901692200,4.130692138671875,0.14364172434583306,0.03927753289937973,-0.053808600946515794
1773798641921654300,4.150654296875,-0.0018504501722753047,-0.00613514175415039,0.1768773467324674
1773798641941617200,4.1706171875,0.012286577055975793,-0.0228875391125679,0.1866514295108616
1773798641961579000,4.1905791015625,0.1317794371165335,-0.0226087221711874,-0.06955284417569636
1773798641981542100,4.210542236328125,0.13153591068424283,-0.09087211105823516,-0.34128801060169933
1773798642001504500,4.23050439453125,0.03721300158500671,0.03115560124218464,-0.3589564998917281
1773798642021467400,4.25046728515625,0.12163900524377823,0.03293663944005966,-0.36350554149821396
1773798642041429500,4.270429443359375,0.27616905722022056,-0.1406277833521366,-0.5435480742633343
1773798642061392400,4.290392333984375,0.372467869502306,-0.1464180571913719,-0.5009697462528944
1773798642081354500,4.3103544921875,0.3004934972681105,0.24530279431343077,-0.035493630446493625
1773798642101317400,4.3303173828125,0.16606018464192748,0.5449141019195318,0.3360021791532635
1773798642121279500,4.350279541015625,0.07698737809062003,0.18617489804029463,0.5555155754327774
1773798642141242600,4.37024267578125,-0.030413623768463727,-0.24311843601167202,0.9143636465139686
1773798642161204200,4.390204345703125,0.045634939102083445,-0.11097498788833618,0.8997140666536987
1773798642181167400,4.41016748046875,0.035378698829934,0.08260872510373592,0.28625147529542444
1773798642201129500,4.43012939453125,-0.2303531355280429,-0.13196224633753298,-0.4340409669704735
1773798642221092400,4.45009228515625,-0.437002593255043,-0.37282559689879413,-0.7744919422261416
1773798642241054500,4.470054443359375,-0.4026925465699285,-0.044783729100227355,-0.599560176603496
1773798642261017300,4.490017333984375,-0.2606685596190393,0.2685404620379209,-0.1393513336755335
1773798642280979500,4.5099794921875,-0.06513546612486243,0.07474982829689979,0.1495638078711927
1773798642300941600,4.529941650390625,0.28311785344481466,-0.22823358609080313,0.037865912535786625
1773798642320904400,4.549904541015625,0.42071196818947787,-0.11007073252499103,-0.22029387913271783
1773798642340866300,4.5698662109375,0.02621222655586898,0.11558511203229427,-0.38492680745050306
1773798642360829400,4.589829345703125,-0.31458705068081616,0.07542670464515686,-0.2739896673545241
1773798642380791600,4.60979150390625,-0.15007731035128236,-0.08475567400455475,-0.08741919412538408
1773798642400754400,4.62975439453125,0.20012275937199592,-0.19417875627577302,-0.17917919393405318
1773798642420716500,4.649716552734375,0.3430360233128071,0.07106091065108776,-0.29474267865642906
1773798642440679400,4.669679443359375,0.1610088195364922,0.3734609721928835,-0.18980083345249293
1773798642460641300,4.689641357421875,-0.10183774170875548,0.15737316644787788,0.11233984650075435
1773798642480604400,4.7096044921875,-0.14812252302169798,-0.30767478707432744,0.20263444993197915
1773798642500566500,4.72956640625,0.09908464360833168,-0.3102174572944641,0.04338613726198673
1773798642520529400,4.749529296875,0.3422317211925983,0.08798691101074219,-0.21512086040899156
1773798642540491300,4.7694912109375,0.2031914992928505,0.24610008217096327,-0.2765561568416655
1773798642560454400,4.789454345703125,-0.05123458574004471,-0.3618301556318998,-0.12030541855245828
1773798642580416500,4.80941650390625,0.17290625114440916,-0.317795199072361,0.14313538225889205
1773798642600379400,4.82937939453125,0.4579880250733345,0.480826537412405,0.11454670889526605
1773798642620341200,4.84934130859375,0.20335399637818335,0.6352835241526364,0.006572656388580799
1773798642640304400,4.869304443359375,-0.04281257515773177,0.1266284840941429,-0.014247282669693231
1773798642660266500,4.8892666015625,0.07462941678762436,-0.24836159736216068,-0.14338584988862274
1773798642680228400,4.909228271484375,0.056457946411520236,-0.34096038608253,-0.28669980358481406
1773798642700191500,4.92919140625,-0.04040105703659355,-0.2707382643431425,-0.44547129252329465
1773798642720153300,4.9491533203125,0.010592632619664073,-0.21790683786571025,-0.44345586104765533
1773798642740116500,4.969116455078125,0.16388576321229337,0.15093758044242858,-0.13130655890777707
1773798642760078300,4.989078369140625,0.19309213008284568,0.49581134057641024,0.2568234284982085
1773798642780041500,5.00904150390625,-0.030189459623768924,0.28695699321627616,0.39355420441180466
1773798642800003600,5.029003662109375,0.011046440801769494,-0.07106032612919808,0.4125806841820478
1773798642819966200,5.04896630859375,0.18395386098995803,-0.040710780572891236,0.369274918679893
1773798642839928300,5.06892822265625,0.09000000439882277,0.035810733571648594,0.23914047229140994
1773798642859891500,5.088891357421875,-0.12621347355246543,-0.03861293151080608,-0.051367491404712196
1773798642879853600,5.108853515625,-0.26185513905510305,-0.12835749984383582,-0.11497983961552381
1773798642899816400,5.12881640625,-0.3224561766207218,-0.1802338175535202,0.07338453129306435
1773798642919778300,5.1487783203125,-0.1790625087518245,0.0650286447495222,0.29319223434403535
1773798642939741400,5.168741455078125,0.01699205133318901,0.24697335787415503,0.24110826523303985
1773798642959703600,5.18870361328125,0.12083499538451432,0.05854045177400112,-0.048062458509951826
1773798642979666400,5.20866650390625,0.12714037913903592,-0.05299333904087543,-0.1807975889161229
1773798642999628800,5.22862890625,-0.04602781087718904,-0.13754384586215018,-0.32518647836744785
1773798643019591700,5.248591796875,-0.15615852996110915,-0.2211632093131542,-0.46195554046481846
1773798643039553500,5.268553466796875,-0.15062062344774602,-0.11596738934814929,-0.19323665312007068
1773798643059515600,5.288515625,-0.019016689028590918,-0.03709025198817253,0.0154642572440207
1773798643079478800,5.308478759765625,0.15352014428153632,0.12953414240777492,-0.03100771720409393
1773798643099440600,5.328440673828125,0.019041385078430173,0.12501111202538012,-0.19683336243778465
1773798643119403500,5.348403564453125,-0.19422128024324772,0.020913608691096305,-0.18635171591192481
1773798643139365600,5.36836572265625,-0.2485899992905557,0.04897942722439766,0.08016673877909779
1773798643159328800,5.388328857421875,-0.03858428993821144,0.08573650173544883,0.07502864523828029
1773798643179291000,5.408290771484375,-0.006717544751986861,-0.014151859471201896,0.007196925766766071
1773798643199253500,5.42825341796875,-0.20830255869626998,-0.10059680173695087,0.14760595180168748
1773798643219215600,5.448215576171875,-0.24772870628610252,-0.04371931473910808,0.24680267748236653
1773798643239178800,5.4681787109375,0.08091507292836904,0.05437982496321201,-0.03395721465945244
1773798643259140600,5.488140625,0.17703765186071393,0.11147709219157695,-0.15295798035413025
1773798643279103700,5.508103759765625,-0.015438246019929646,0.10996201145350933,-0.000043400750309228896
1773798643299065600,5.528065673828125,-0.12305121012926101,-0.09142740685343742,0.2312314527325332
1773798643319028700,5.54802880859375,-0.02809577528014779,-0.516367806392908,0.09604439912959933
1773798643338990600,5.567990478515625,0.1460426480077207,-0.455755224519968,0.012113923902809619
1773798643358953700,5.58795361328125,0.08599836754202843,0.030466449934244154,0.12504852142632006
1773798643378915800,5.607915771484375,-0.5126302272997796,0.05191664972007274,-0.41889366672113537
1773798643398878500,5.62787841796875,-0.8406804245352745,0.09592179566323757,-0.6046010933801531
1773798643418840600,5.647840576171875,-0.5150175608277321,0.2872638672083616,-0.28095746054053305
1773798643438803700,5.6678037109375,0.012231851194053888,0.2529705524623394,0.12105229139700531
1773798643458765800,5.687765869140625,0.49871875245571134,-0.14498597856163978,0.41815863044485446
1773798643478728700,5.707728759765625,0.818291044203192,-0.42646074097454545,0.5480063688464463
1773798643498690600,5.727690673828125,0.9866611132226883,-0.422789358985424,0.5412056027904153
1773798643518652700,5.747652587890625,0.7442191151678562,-0.03251519915759563,-0.18474442684575915
1773798643538615800,5.76761572265625,0.0039022681355476378,0.3789753517001867,-0.7531374578997493
1773798643558577700,5.78757763671875,-0.5548574037849903,0.5609376004815101,-0.6447006101869046
1773798643578540500,5.80754052734375,-0.3362320423863828,0.23184943850040435,-0.30386399661451574
1773798643598502700,5.827502685546875,0.10826631345152854,-0.20593699860870837,-0.27016207189038394
1773798643618465500,5.847465576171875,0.41845089138969777,-0.10954700091183185,-0.12471198294833302
1773798643638427600,5.867427734375,0.33576676296219227,0.261665900093317,0.16103315026015042
1773798643658390800,5.887390869140625,-0.07692541877031325,0.08778057478368281,0.40347061827033753
1773798643678352600,5.9073525390625,-0.15308759808316827,-0.22558804001808166,0.49910833629518747
1773798643698315500,5.9273154296875,0.026726532753556964,-0.20649638605713844,0.43287119253873824
1773798643718277600,5.947277587890625,0.39442368072271344,0.08807634285986422,-0.13644582149237394
1773798643738240800,5.96724072265625,0.12316694546341896,0.2536550275951624,-0.5154473305471241
1773798643758202600,5.98720263671875,0.09898162162527441,0.5016542213857174,-0.33974414216056464
1773798643778165500,6.00716552734375,0.10378405347093939,0.4338613726198673,-0.3946928530529141
1773798643798127600,6.027127685546875,-0.33608503513112664,-0.17085867096483706,-0.9896261005081236
1773798643818090800,6.0470908203125,-0.8162288509763777,-0.4064852899163961,-1.1282169712051748
1773798643838052900,6.067052978515625,-1.0775672726809977,-0.2445253802001476,-1.0490465499870478
1773798643858015700,6.087015625,-1.2326669412389397,0.1279927581846714,-0.7895609165422618
1773798643877977600,6.1069775390625,-1.2273397548668086,0.310978504794836,-0.22711919510811565
1773798643897940700,6.126940673828125,-0.9726138831697404,0.3874842368483543,0.3772098033323884
1773798643917902600,6.146902587890625,-0.7352722769938409,-0.014449965634942054,0.5951844457373022
1773798643937864700,6.16686474609375,-0.8013577373199164,-0.3022854952514171,0.5940794071048497
1773798643957827600,6.18682763671875,-1.126558682604134,0.20076690249443052,0.6472058710061014
1773798643977789700,6.206789794921875,-1.5187103267416358,1.3948410782277583,0.847083861836791
1773798643997752600,6.226752685546875,-1.679473135627806,2.010603324830532,1.2564417845800517
1773798644017714700,6.246714599609375,-1.1351903173491358,1.2594763299703597,1.1085811273649335
1773798644037677800,6.266677734375,-0.21276260684505105,0.04556991104185581,0.7981504657112062
1773798644057640000,6.286639892578125,0.4299168727777898,-0.6513017620176077,1.0406687438726425
1773798644077602800,6.306602783203125,0.995601813916862,-1.3280056763172148,1.0247098349794745
1773798644097564700,6.326564697265625,1.2126280695557594,-1.9961931066840886,0.5642056623667479
1773798644117527800,6.34652783203125,0.932797567218542,-2.297009698426723,0.21919015567451713
1773798644137490000,6.366489990234375,0.4451704098805785,-1.3671101907372474,0.3404100587233901
1773798644157452800,6.386452880859375,0.2394660509839654,0.16078852784931658,0.48527913290709257
1773798644177415000,6.406414794921875,-0.015593582712113856,0.43562370611727236,0.5092702493473887
1773798644197377800,6.426377685546875,-0.0876265532657504,-0.5669499926388263,0.38975700408592817
1773798644217339600,6.446339599609375,0.24357713956460356,-1.3202367958813905,-0.2646437468603253
1773798644237302800,6.466302734375,0.6210276197850704,-1.0052104770004748,-0.9072828944727778
1773798644257265000,6.486264892578125,0.1882951050646603,-0.5103507380604744,-1.0814878071255982
1773798644277227800,6.506227783203125,-0.5591070240534841,-0.15697043086588383,-0.6327474298037589
1773798644297189600,6.526189697265625,-0.8852199696160853,0.48438802928626534,0.09051058426946401
1773798644317152800,6.54615283203125,-0.43046530044078823,1.0279179833710193,1.4568020059697329
1773798644337115000,6.566114990234375,-0.7743124940060079,-0.22407237475812433,1.847547436571121
1773798644357077800,6.586077880859375,0.6332546486735343,-1.2079840431421995,2.2921182731233536
1773798644377040000,6.606039794921875,4.779849426978826,0.5293623125225305,2.3061817236587405
1773798644397002800,6.626002685546875,5.8084057082533835,2.2998235868036745,-1.2814363789744674
1773798644416964900,6.64596484375,-0.10464110869169235,0.9705261171102523,-2.8321672532245517
1773798644436927700,6.665927734375,-2.1604946110904217,-0.18001462184488773,-1.8965989061184227
1773798644456889900,6.685889892578125,-1.9898938604094087,-1.0383341634452343,-1.3700642182372509
1773798644476851700,6.705851806640625,-1.4745349387980997,-0.7904390145510435,-0.822205587298423
1773798644496814800,6.72581494140625,-1.2567312690459191,0.10297755939364432,-1.4471604635298252
1773798644516776700,6.745776611328125,-0.7360147659242152,0.9306751682370901,-1.7661603622168303
1773798644536739800,6.76573974609375,-0.28256606478095053,1.5559680442512034,-1.7411546619065106
1773798644556702000,6.785701904296875,0.3805051916159689,1.1993769583165645,-0.9994190341174601
1773798644576664600,6.80566455078125,1.495091258484125,0.22225275811553,0.9355318144880235
1773798644596626700,6.825626708984375,1.9360135094009339,-0.2981879968047142,1.9737674859948455
1773798644616589800,6.84558984375,1.7087280178152024,-0.4646832118630409,1.1334813214741646
1773798644636552000,6.865552001953125,0.697337975396961,0.08093582345545292,-0.2658858558759093
1773798644656514800,6.885514892578125,-0.4501483444236219,0.09241466432511806,-1.7054494345359503
1773798644676476700,6.9054765625,-0.9232324510157108,0.15239771612286568,-2.5134081775560975
1773798644696439800,6.925439697265625,-0.6712849579907954,0.40007542287409303,-2.6112942590296266
1773798644716402000,6.94540185546875,-0.20458383043408393,0.5014204126298427,-2.2308890206567944
1773798644736364800,6.96536474609375,0.11107187239155172,0.6266448751449585,-1.4657641878433525
1773798644756326700,6.98532666015625,0.5120670404590666,0.4827034372001886,-0.35334333618506786
1773798644776289800,7.005289794921875,0.618666297481209,0.13944120391607284,0.37207156366109845
1773798644796251600,7.025251708984375,0.6057106620572507,-0.240408592531085,0.8700494346216321
1773798644816214800,7.04521484375,0.5581798262059688,-0.38456688809692857,1.2730397220291196
1773798644836177000,7.065177001953125,0.1885617931768298,-0.2109890213012695,1.4361372574731708
1773798644856139800,7.085139892578125,-0.2052924170948565,-0.21727847683429716,1.5279465032510458
1773798644876101600,7.1051015625,0.00788403124809265,-0.4051864822775125,1.090671522795409
1773798644896064800,7.125064697265625,0.4025203318081796,-0.35208208407759667,0.5177664211444556
1773798644916027000,7.14502685546875,0.30940014956220985,0.08955342967510223,-0.07281739892959595
1773798644935989800,7.16498974609375,-0.14894436079859733,0.4025765920400619,-0.7095245261445641
1773798644955951600,7.18495166015625,-0.4945214468963444,0.07239595864713191,-0.9664394323185086
1773798644975914800,7.204914794921875,-0.4091396038174629,-0.6355968278855085,-0.6238102362409234
1773798644995876900,7.224876953125,0.10011121017709373,-0.7415338216066361,0.009417670556157828
1773798645015839000,7.2448388671875,0.5885656121194363,-0.3943956236720085,0.6205483118355274
1773798645035801000,7.264801025390625,0.7278057405054569,-0.02720189518034458,0.7163862286075949
1773798645055763000,7.284762939453125,0.5226841499328613,0.19076339487433433,0.4766391687251627
1773798645075726000,7.30472607421875,0.2678887201309204,0.2156739642471075,0.22984569746255873
1773798645095688200,7.324688232421875,0.1672783282600343,0.09716448920071125,0.013420038065314293
1773798645115651000,7.344651123046875,0.17355375526770947,-0.015258359408378601,-0.1915340869858861
1773798645135613200,7.36461328125,0.19827683924436568,-0.007641454663872719,-0.4290886052601039
1773798645155576000,7.384576171875,0.1545594242013991,0.09237959301173686,-0.5713587489917874
1773798645175538200,7.4045380859375,-0.028754823710769414,0.08158873440623284,-0.5272355296269059
1773798645195501000,7.4245009765625,-0.10781184768229722,-0.007591185781359672,-0.18580694151073693
1773798645215463200,7.444463134765625,0.07917918904647231,-0.10047463666200637,0.09122107062637805
1773798645235426300,7.46442626953125,0.16153247808441518,-0.10251812518835067,0.3813495334856212
1773798645255388000,7.484387939453125,0.15655352062806485,-0.06408931807279586,0.3389604444369674
1773798645275351000,7.50435107421875,0.043222325002402064,0.026429741764068603,0.18847016937062144
1773798645295313200,7.524313232421875,-0.1060112280011177,-0.028838556471467016,0.08375029635429382
1773798645315276000,7.544276123046875,-0.1940400784574449,-0.15540858837664126,0.21387232165262102
1773798645335238000,7.56423779296875,-0.12101605103984474,-0.1843161184310913,0.35587621566355226
1773798645355201000,7.584200927734375,-0.042245735055208206,-0.043781274059414864,0.3986211324125528
1773798645375163100,7.6041630859375,-0.04746083935499191,0.1346843647778034,0.3527785419091582
1773798645395126000,7.6241259765625,0.02228548156619072,0.14817045381665228,0.22264774878248572
1773798645415088000,7.644088134765625,0.1729382537178695,0.013237667235732078,0.23721973336189983
1773798645435051300,7.66405126953125,0.39416313009038567,-0.0373182155251503,0.3624126316949725
1773798645455013000,7.68401318359375,0.41123350735679265,-0.029601942059397694,0.05616437029242515
1773798645474976000,7.70397607421875,-0.06113645961657166,-0.069072367182374,-0.3896969444617629
1773798645494938000,7.723938232421875,-0.4769521801970899,-0.17727905940115452,-0.5428185909450054
1773798645514901200,7.7439013671875,-0.43566082325726746,-0.1817284400254488,-0.27235402897670863
1773798645534863000,7.763863037109375,-0.06268310453668237,0.011363690057396889,0.06940379109382629
1773798645554826000,7.783825927734375,0.24030513215661048,0.1881587653338909,-0.0788746531419456
1773798645574788000,7.8037880859375,0.48210547130703924,0.18188333832621573,-0.5348556492418051
1773798645594751200,7.823751220703125,0.44799145865067835,0.0369692559570074,-0.6291350845254957
1773798645614713000,7.843713134765625,0.2116600524306297,0.0017559037566184997,-0.38337373278960585
1773798645634675000,7.863675048828125,-0.08119374373927712,-0.028359833043813704,-0.08095949659198522
1773798645654638000,7.88363818359375,-0.33164719881415367,-0.01317044721841812,0.17042378667891026
1773798645674600200,7.90360009765625,-0.3252957839608192,-0.03251461463570594,0.31940497235655785
1773798645694563000,7.92356298828125,-0.015340338603407144,-0.03923544732332229,0.22277225194498895
1773798645714525000,7.94352490234375,0.14865692215934395,0.04325812696814537,-0.002254208667576313
1773798645734488000,7.963488037109375,-0.13558116748705507,0.14462065238058566,0.017746084570884703
1773798645754450200,7.9834501953125,-0.46636312777400013,0.06634674161076545,0.13645531997308133
1773798645774413000,8.0034130859375,-0.3797266084589064,-0.14907237109243868,0.0019141630582511424
1773798645794375200,8.023375244140626,0.118538847271353,-0.055944590061903,-0.10983721603006123
1773798645814338000,8.043338134765625,0.4831529345333576,0.09323942471146583,-0.18370470853447912
1773798645834300200,8.063300048828125,0.38003961993083357,0.04784720832407474,-0.29485066907554863
1773798645854263000,8.083262939453125,-0.0626442338310182,-0.06685527565479278,-0.35205241959169503
1773798645874225200,8.10322509765625,-0.3370785762131214,-0.18348785091340541,-0.2354007012411952
1773798645894188300,8.123188232421874,-0.29832594397068024,-0.18312603186368942,-0.12408084543794393
1773798645914150000,8.14314990234375,-0.032603461962938306,-0.034654549273848534,0.06803878635093569
1773798645934113000,8.163113037109374,0.0861852684162557,0.02501636783480644,0.2131315862879157
1773798645954075100,8.1830751953125,0.19803587009534238,-0.027402970710396764,-0.00679024466201663
1773798645974038000,8.2030380859375,0.36971594044566153,-0.16277297966480253,-0.18937296342924237
1773798645994000100,8.223000244140625,0.3409175698541105,-0.13796411710083484,-0.11105828225761652
1773798646013963800,8.2429638671875,-0.004960252755880356,0.0068108490586280815,0.08244958901926874
1773798646033926000,8.26292578125,-0.41250177372694014,0.0395662867128849,0.3671984046667814
1773798646053888800,8.282888671875,-0.504486960593611,-0.17192659245729444,0.498044214195013
1773798646073851000,8.302850830078125,-0.22490663362517951,-0.33465222584903237,0.5672324628420173
1773798646093814000,8.32281396484375,0.4528840529978275,-0.1481307063281536,0.31839711048826574
1773798646113775600,8.342775634765625,0.9432543715640902,0.1616080275386572,-0.19332097040265797
1773798646133738800,8.36273876953125,0.9436394253589212,0.3116016051292419,-0.816872555707395
1773798646153700900,8.382700927734374,0.6150162505410611,0.381772288942337,-1.103122131306678
1773798646173663700,8.402663818359375,0.16184490503445267,0.23818507126271724,-1.1606832166545091
1773798646193625600,8.42262548828125,-0.17893384087085723,-0.09483224686086177,-0.8580790108427405
1773798646213588700,8.442588623046875,-0.44554947232604025,-0.17829612748920917,-0.30113252582401034
1773798646233550800,8.46255078125,-0.5507505529880523,0.08065349938273429,0.26860870496854183
1773798646253513700,8.482513671875,-0.29979660104513167,0.14260755899250507,0.49234059572592376
1773798646273475800,8.502475830078126,0.017935615793615578,-0.26205402262806893,0.44563218217343087
1773798646293439000,8.52243896484375,0.0733517980672419,-0.658727528104186,0.5057892753638327
1773798646313400800,8.54240087890625,0.2928537961699068,-0.6126251176208257,0.5226788892358541
1773798646333363700,8.56236376953125,0.33533231706768274,-0.1871779376029968,0.5514575322136283
1773798646353325800,8.582325927734376,0.1979448308110237,0.3474783896744251,0.5459975132420659
1773798646373289000,8.6022890625,0.11241656499877571,0.5715723917424679,0.04630319375246763
1773798646393250800,8.622250732421875,0.06847659324631095,0.3181301301151514,-0.42043081316053865
1773798646413213700,8.642213623046874,-0.02213131391778588,-0.027020108872652052,-0.49563554561808704
1773798646433175800,8.66217578125,-0.15109540135264396,-0.1819505583435297,-0.34116336130872366
1773798646453139000,8.682138916015624,-0.11626827199086547,-0.27211072174012657,-0.21624664956852793
1773798646473100800,8.702100830078125,0.07810746816173196,-0.17097206821143626,-0.19596578582301735
1773798646493063700,8.722063720703124,0.3402127825856209,-0.12797989870309828,-0.16662658635303376
1773798646513025800,8.74202587890625,0.5881329197905958,0.02716214769184589,-0.3249756120957434
1773798646532988700,8.76198876953125,0.4282487934350967,0.22011574608683585,-0.3340858241379261
1773798646552950800,8.78195068359375,0.11722454980239272,0.293076352879405,-0.15004486938640474
1773798646572914000,8.801913818359376,0.07398658883944154,0.11328443387448787,-0.10859788349345326
1773798646592875800,8.821875732421875,0.18489128797054288,-0.022485972574353218,-0.12454729390591382
1773798646612838000,8.841837890625,0.19516937474831939,0.0418535208672285,-0.1564247796818614
1773798646632800800,8.86180078125,0.04619220765866339,0.0509293922483921,-0.38140111754238604
1773798646652764000,8.881763916015625,-0.1609925259888172,-0.0021060323685407637,-0.46284065273627634
1773798646672725800,8.901725830078124,-0.16486425285562872,0.011626724907755851,-0.2461670099273324
1773798646692688000,8.92168798828125,-0.1338356389939785,0.002991583031415939,0.19551205070614813
1773798646712650800,8.941650634765624,-0.14670096578598021,-0.07677928829789162,0.7424700795434415
1773798646732612900,8.96161279296875,0.00009103928431868553,0.013176876959204673,1.0698397471688688
1773798646752576000,8.981575927734376,0.33686690622381865,0.351477103921771,0.9442666173465549
1773798646772537600,9.00153759765625,0.20410905252918599,0.3868149592846632,0.35146249087452885
1773798646792500700,9.021500732421876,-0.5051310306508093,0.17893734800219535,-0.03008095774799585
1773798646812462800,9.041462890625,-1.14427196088396,-0.08863982196152209,-0.1891065675780177
1773798646832425700,9.06142578125,-1.1008792477507143,-0.5856336503207683,-0.13950608584582805
1773798646852387800,9.081387939453125,-0.46863691792488094,-0.5032669172793627,-0.15733794900402426
1773798646872350700,9.101350830078125,0.008056903596967459,-0.06741232501566409,-0.27392960773035885
1773798646892312800,9.121312744140624,0.03846636264696717,0.14104279389381408,-0.44270270459279415
1773798646912275700,9.141275634765625,-0.15288754546642302,0.2719324425637722,-0.34207857645750045
1773798646932237800,9.16123779296875,-0.11106602717265486,0.3501625141918659,-0.1749079463556409
1773798646952201000,9.181200927734375,0.12179901811107992,0.14123100994229315,-0.15069047381356357
1773798646972162800,9.201162841796876,0.3889337780695408,-0.0152495915800333,-0.04935615158230066
1773798646992125700,9.221125732421875,0.5708475115340202,0.019114450314641,0.06607523119300604
1773798647012087800,9.241087890625,0.3144259418349713,-0.00525543631017208,0.19729644990488884
1773798647032051000,9.261051025390625,-0.18182262111492453,-0.25098902325630185,0.2896320576444268
1773798647052012800,9.2810126953125,-0.5508558399934321,-0.3862479730516672,0.47078313617333767
1773798647071975700,9.3009755859375,-0.39408465802669523,-0.07984861274063587,0.7029808035895228
1773798647091937800,9.320937744140625,-0.0006838906109333038,0.10474106193482875,0.4447307032890618
1773798647111901000,9.34090087890625,0.10741283842734992,-0.04231295507252216,0.04792012742981314
1773798647131862800,9.36086279296875,0.04623217434287071,0.1017804585635662,-0.25308219614326954
1773798647151826000,9.380825927734374,-0.10602408748269081,0.15715513978302478,-0.3665538231529295
1773798647171787800,9.400787841796875,-0.26901114828959105,-0.15524024607241152,-0.3699228611946106
1773798647191750700,9.420750732421874,-0.2390191839993,-0.1039332526832819,-0.06396116164848208
1773798647211712800,9.440712646484375,-0.08370828384347259,0.09782792154550551,0.202698162817955
1773798647231676000,9.460676025390624,0.1467089298967272,0.04424889157116413,0.2551208623640239
1773798647251637800,9.4806376953125,0.2870714133761823,-0.05597790780961513,0.21462533197700975
1773798647271600600,9.5006005859375,0.24833646292090414,0.10963234110772609,0.09747370128035544
1773798647291562800,9.520562744140625,0.04093640602231025,0.1569715999096632,-0.1469061329692602
1773798647311526000,9.54052587890625,-0.08989698241576552,-0.07067220359444618,-0.34481954572871326
1773798647331488000,9.560488037109375,0.005835866546630859,-0.07373392925262451,-0.345949280411005
1773798647351450600,9.58045068359375,0.14833777320757507,0.043932080706954,-0.4090285446584224
1773798647371412700,9.600412841796874,0.18824527457356452,0.2612619954675436,-0.49866351513713597
1773798647391376000,9.6203759765625,-0.0022808774787932634,0.16523790847361086,-0.4518567557767033
1773798647411337700,9.640337646484374,-0.21892098334431648,-0.15138298612236975,-0.2589469965234399
1773798647431300900,9.66030078125,-0.11752046400904655,-0.16182254707217217,0.022105010432749986
1773798647451262700,9.6802626953125,0.03612783669680357,0.12350421459376812,0.2132693873234093
1773798647471225900,9.700225830078125,-0.0695557667851448,0.047747255080938335,0.26097294939309357
1773798647491187700,9.720187744140626,-0.22110008094906805,-0.15600538522601126,0.42803719651103017
1773798647511150800,9.74015087890625,-0.2797404859662056,-0.08178221115171909,0.5348337296709418
1773798647531113000,9.760113037109376,-0.30269349153041836,0.09262333863973617,0.3494616724461317
1773798647551075600,9.78007568359375,-0.308992299413681,-0.008902268379926682,-0.04350713329315185
1773798647571037700,9.80003759765625,-0.1842823622919619,-0.19283143332004546,-0.32371377546638247
1773798647591000800,9.820000732421875,-0.07818930122628807,-0.250640063688159,-0.2433797172963619
1773798647610963000,9.839962890625,-0.048107320564985276,-0.031178982117772102,0.17738251977562902
1773798647630925800,9.85992578125,0.03217559193968773,0.16345336314439773,0.2498638186186552
1773798647650887700,9.8798876953125,0.26356793432235714,0.11129296779632568,-0.15279095322415231
1773798647670850800,9.899850830078124,0.5447124418675899,0.07647241430580616,-0.511409745594114
1773798647690813000,9.91981298828125,0.5247662169039249,0.15605565410852432,-0.491983014459908
1773798647710775800,9.93977587890625,0.15922624696865678,0.08178747184872627,-0.32606019246205686
1773798647730737700,9.959737548828125,-0.0018855214856564999,-0.07222177112400531,-0.4256685676835477
1773798647750700800,9.97970068359375,0.10480258286371827,-0.0574520720154047,-0.47857568974569437
1773798647770663000,9.999662841796875,0.04512172888293862,-0.01593231314718723,-0.2727314839869737
1773798647790625800,10.019625732421876,-0.03136807494908571,-0.004756254616379738,0.03916428178325295
1773798647810588000,10.039587890625,0.08755670289993285,0.05832651676237583,0.13106135197505353
1773798647830550800,10.05955078125,0.21399214864000676,0.05396539894342422,-0.003750146313756704
1773798647850512600,10.0795126953125,0.22365195738896726,-0.0779997700035572,-0.04534107072204351
1773798647870475800,10.099475830078125,0.04880976974591612,-0.09982698640823363,0.1476392695493996
1773798647890438000,10.11943798828125,-0.1916224959217012,-0.06581891834437847,0.3861956583425402
1773798647910400800,10.13940087890625,-0.32798341560959815,-0.007907996645569801,0.5502548784255981
1773798647930362600,10.159362548828126,-0.17075667189508675,-0.07703764697313309,0.4167540243439376
1773798647950325800,10.17932568359375,0.18327815368548034,-0.1840893239378929,0.046007279545813795
1773798647970287900,10.199287841796876,0.20578312322124837,0.018017887249588964,-0.0499957646600902
1773798647990250800,10.219250732421875,-0.07580415965542196,0.19380466226637363,0.08348097789362073
1773798648010211800,10.2392119140625,-0.23371055619716644,0.06315116043984889,0.16611936748325823
1773798648030175000,10.259175048828125,-0.10461202872768044,-0.05432312633991241,0.049294192261993885
1773798648050137000,10.27913720703125,0.1419805131353438,-0.050558805370330806,-0.005631430015712976
1773798648070100000,10.299099853515624,0.15963161289915442,-0.028353987824916837,-0.1060037753470242
1773798648090062000,10.31906201171875,-0.007459522225707769,-0.08521686177551746,-0.2096906520538032
1773798648110025000,10.33902490234375,-0.1268355509735644,0.006374211207032203,-0.17504267865121365
1773798648129987000,10.358987060546875,-0.05401230682507157,0.1102677164018154,0.02835164973735809
1773798648149950000,10.378949951171874,0.10594693059325218,0.14711656084954738,0.1640250255525112
1773798648169912000,10.398912109375,0.19898396460041404,0.0398538714826107,-0.04318140847012401
1773798648189875200,10.418875244140626,0.05801248237714171,-0.07295359252989292,-0.2058293004505336
1773798648209837000,10.438837158203125,-0.13257818627879023,-0.12318915729522704,-0.17929872866049407
1773798648229800000,10.458800048828126,-0.1394740832723677,-0.0578396100282669,-0.04546440484076738
1773798648249762000,10.478761962890625,-0.09842077287212013,-0.027962942680716512,0.02594488085657358
1773798648269725200,10.49872509765625,0.021440116783231496,-0.10702888061106204,0.043045507130771876
1773798648289687000,10.51868701171875,0.14291326394081114,-0.09603986908495425,-0.022412030555307865
1773798648309650000,10.53864990234375,0.13623568587303161,-0.09556699087619781,-0.03881181508377194
1773798648329612000,10.558612060546874,0.061261255040019745,-0.09557751227021216,-0.05603679839000106
1773798648349575200,10.5785751953125,0.09998130018711089,-0.01080021095573902,0.042522067778557535
1773798648369537000,10.598537109375,0.14432532269582152,0.008028992676734924,0.1437054372318089
1773798648389500200,10.618500244140625,0.18941198026537895,-0.046779286831617355,0.042792993674427265
1773798648409462000,10.6384619140625,0.22471023427024484,-0.11163374405801296,-0.10816840603500603
1773798648429425000,10.6584248046875,0.32151758059635754,-0.15067805272340773,-0.11081672858670354
1773798648449387000,10.678386962890626,0.3894236804783344,-0.1143289744913578,-0.08358195405006408
1773798648469350100,10.69835009765625,0.4847391808114946,-0.05976911678612232,-0.11599486187696456
1773798648489312000,10.71831201171875,0.5077566299140454,0.043266894796490665,-0.1985125476963818
1773798648509275000,10.73827490234375,0.48583954326882955,0.1991512839913368,-0.21546587445437906
1773798648529238000,10.758238037109376,-0.0004990355633199214,0.2275023492068052,-0.16817936875298617
1773798648549200100,10.7782001953125,-0.791598121458292,-0.07507073081433772,0.062307695353031156
1773798648569163000,10.7981630859375,-1.3700645104981959,-0.5300064556449652,0.1475346401311457
1773798648589125000,10.818125,-1.2819642022408544,-0.6345464420497418,-0.057669660288840525
1773798648609088000,10.838087890625,-0.4813688275955617,-0.19386019184589384,0.06376870781630277
1773798648629050000,10.858050048828124,0.5537269384503364,0.30589316435456276,0.21793109552413223
1773798648649013000,10.878012939453125,1.277480773216486,0.45901627214252944,0.08472995504140854
1773798648668975000,10.89797509765625,1.1981272505164147,0.36781390621662136,-0.0005634791016578674
1773798648688938200,10.917938232421875,0.45562180739864705,0.13605506860911845,-0.08104659035354853
1773798648708900000,10.937900146484376,-0.24487492429018018,-0.06962941654324531,-0.25968407862633464
1773798648728863000,10.957863037109375,-0.29692995956763624,-0.10705459957420825,-0.3904869257956743
1773798648748825000,10.9778251953125,0.05939458438530564,-0.1193476794362068,-0.2403641688674688
1773798648768788200,10.997788330078125,0.39633404438868164,-0.17319032878279686,-0.03561345743387937
1773798648788749800,11.017749755859375,0.5062566006146371,-0.16827274612486362,-0.0987783541381359
1773798648808713000,11.037712890625,0.23465528970137237,-0.009736965638399124,-0.12359613066092133
1773798648828675000,11.057675048828125,-0.2649764859460294,0.13606792809069157,-0.14636778830885885
1773798648848638000,11.077637939453124,-0.5961446690715849,0.04907821142375469,-0.24535393997877836
1773798648868600000,11.09760009765625,-0.3346433118902147,-0.17299685203731058,-0.4396751734651625
1773798648888563200,11.117563232421874,0.22286855192631483,-0.019138415712118148,-0.4305168844975531
1773798648908525000,11.137525146484375,0.5514321055114269,0.1451414613842964,-0.11386252602338791
1773798648928488000,11.157488037109376,0.5664860283888876,0.24048516489863395,0.14649842895120382
1773798648948450000,11.177449951171875,0.3879810804545879,0.1251689329355955,0.2839915675394237
1773798648968413200,11.1974130859375,0.12295987858399748,-0.09064356299936771,0.455358041895926
1773798648988375000,11.217375,-0.04059139197692275,-0.13573241252601145,0.4920568103484809
1773798649008338200,11.237338134765626,-0.004610708665847778,-0.06984568964242935,0.2780896500192582
1773798649028300300,11.25730029296875,0.1906369920156896,-0.13598141885101794,-0.11445406217575073
1773798649048263200,11.27726318359375,0.33450887185558675,-0.05726385596692562,-0.5199135161757469
1773798649068225000,11.29722509765625,0.11776596320271492,0.08183423359990119,-0.6979708664730191
1773798649088188200,11.317188232421875,-0.17916311958208678,0.015184125128388404,-0.8722240021817386
1773798649108150300,11.337150390625,-0.34558556166514753,-0.20316168867647647,-0.7361993287108838
1773798649128113200,11.357113037109375,-0.1327859838105738,-0.24165946937501429,-0.3837685773260891
1773798649148075000,11.377074951171876,0.1441430979967117,-0.002787584891915321,0.17053177709802983
1773798649168038100,11.3970380859375,0.4474900849997997,0.19801906509101388,0.7354885500930249
1773798649188000300,11.417000244140626,0.7918516578279435,0.1832347529351711,0.998330069836974
1773798649207963100,11.436963134765625,0.9407739529252052,0.11437456719875334,0.741658909291029
1773798649227925000,11.456925048828126,0.7408616214334964,0.20241759231090545,-0.12825856951400638
1773798649247888100,11.47688818359375,0.13317973236851394,0.3089016985207796,-0.8489104927420615
1773798649267850200,11.496850341796875,-0.3486849159199744,0.29858313360214234,-1.1077420461922884
1773798649287813000,11.516813232421875,-0.6004933658003807,0.0706453155875206,-0.5632746651269496
1773798649307775200,11.536775146484375,-0.7385797941066324,-0.11805939319133758,0.18164032335057853
1773798649327738400,11.55673828125,-0.6449472784243524,-0.10471183584034442,0.6344285147584975
1773798649347700200,11.5767001953125,-0.3630385815735906,-0.20203882212638855,0.5740216845907271
1773798649367663000,11.5966630859375,-0.17723755834698676,-0.5511936205804348,0.19680486699566244
1773798649387625200,11.616625244140625,-0.31498131069540974,-0.5196604181975126,0.30542525458186864
1773798649407588400,11.63658837890625,-0.5558523331064731,-0.07694295442700386,0.7487021058008074
1773798649427550000,11.656550048828125,-0.5655505011044443,0.3105091337174177,0.9625617141023277
1773798649447513000,11.67651318359375,0.1267418813407421,0.22185762131810188,0.4628653487861156
1773798649467475200,11.69647509765625,0.8793603568676859,0.0565589225679636,-0.35869390343278645
1773798649487438000,11.71643798828125,0.9464566747367381,0.10214403117895125,-0.7123711477473378
1773798649507400200,11.736400146484375,0.32443302965164184,0.17114216408133506,-0.5695556450925767
1773798649527363000,11.756363037109375,-0.25831425157785415,0.08409457974731922,-0.22067527966573833
1773798649547325200,11.7763251953125,-0.37240824826955793,-0.0643581981420517,0.12001315760761498
1773798649567288000,11.7962880859375,-0.20851766275167463,-0.13377718680500983,0.29280279663503167
1773798649587250200,11.816250244140624,-0.08538578860163688,-0.1477823312819004,0.19420345232561229
1773798649607213300,11.83621337890625,-0.10462708016633987,0.12470949873030185,0.06307502646371722
