time,seconds_elapsed,z,y,x
1773798637819366700,0.04836669921875,0.1158905029296875,0.9616546630859375,0.180450439453125
1773798637839329500,0.06832958984375,0.1278839111328125,0.9592437744140625,0.2078857421875
1773798637859291600,0.088291748046875,0.1417083740234375,0.955413818359375,0.239837646484375
1773798637879253500,0.10825341796875,0.1579742431640625,0.9753265380859375,0.2571563720703125
1773798637899216600,0.128216552734375,0.1719207763671875,0.994354248046875,0.24261474609375
1773798637919178500,0.148178466796875,0.180023193359375,0.988800048828125,0.2111663818359375
1773798637939141600,0.1681416015625,0.1531219482421875,0.961273193359375,0.201202392578125
1773798637959103500,0.188103515625,0.1172332763671875,0.9302520751953125,0.211212158203125
1773798637979066600,0.208066650390625,0.105316162109375,0.9263153076171875,0.2175140380859375
1773798637999028500,0.228028564453125,0.1303253173828125,0.9508819580078125,0.2086029052734375
1773798638018991400,0.247991455078125,0.1778564453125,0.9665985107421875,0.2023773193359375
1773798638038953200,0.267953125,0.1866607666015625,0.97418212890625,0.1936492919921875
1773798638058916400,0.287916259765625,0.1949005126953125,0.9752044677734375,0.1880950927734375
1773798638078878500,0.30787841796875,0.2032318115234375,0.957061767578125,0.1851806640625
1773798638098841300,0.32784130859375,0.17681884765625,0.910858154296875,0.1739349365234375
1773798638118803500,0.347803466796875,0.1223297119140625,0.9037322998046875,0.1981201171875
1773798638138766600,0.3677666015625,0.1378173828125,0.9342041015625,0.2291259765625
1773798638158728400,0.387728515625,0.1396636962890625,0.9439239501953125,0.2064971923828125
1773798638178691300,0.40769140625,0.1504974365234375,0.953887939453125,0.19012451171875
1773798638198653400,0.4276533203125,0.225738525390625,1.02386474609375,0.1855926513671875
1773798638218616600,0.447616455078125,0.3314971923828125,1.0775604248046875,0.13116455078125
1773798638238578400,0.467578369140625,0.31829833984375,1.0696868896484375,0.082611083984375
1773798638258541300,0.487541259765625,0.164764404296875,1.0124359130859375,0.1380462646484375
1773798638278503400,0.50750341796875,0.042236328125,0.9577789306640625,0.1975860595703125
1773798638298466600,0.527466552734375,0.0054473876953125,0.9228668212890625,0.21453857421875
1773798638318428400,0.547428466796875,0.05804443359375,0.9137115478515625,0.20477294921875
1773798638338391300,0.567391357421875,0.121612548828125,0.9196319580078125,0.2144927978515625
1773798638358353400,0.587353515625,0.1634521484375,0.9499664306640625,0.241546630859375
1773798638378315500,0.6073154296875,0.1737213134765625,0.9097900390625,0.20556640625
1773798638398278400,0.6272783203125,0.19952392578125,0.8984832763671875,0.1393890380859375
1773798638418240300,0.647240234375,0.2353363037109375,0.9328765869140625,0.0768585205078125
1773798638438203400,0.667203369140625,0.2196502685546875,1.0430450439453125,0.0056915283203125
1773798638458165500,0.68716552734375,0.051025390625,1.152496337890625,-0.0620574951171875
1773798638478128400,0.70712841796875,-0.14166259765625,1.128662109375,-0.01263427734375
1773798638498090500,0.727090576171875,-0.2153167724609375,1.0674896240234375,0.102935791015625
1773798638518053600,0.7470537109375,-0.109100341796875,0.9124603271484375,0.169921875
1773798638538015500,0.767015380859375,0.1245574951171875,0.834686279296875,0.2743072509765625
1773798638557978400,0.786978271484375,0.50738525390625,0.8933258056640625,0.53985595703125
1773798638577940500,0.8069404296875,0.9365081787109375,0.979736328125,0.6412200927734375
1773798638597903600,0.826903564453125,0.659942626953125,1.012451171875,0.3652496337890625
1773798638617865200,0.846865234375,0.2028045654296875,1.0986328125,0.170440673828125
1773798638637828400,0.866828369140625,-0.192779541015625,1.118804931640625,-0.05096435546875
1773798638657790500,0.88679052734375,-0.2714080810546875,1.053436279296875,-0.158721923828125
1773798638677753300,0.90675341796875,-0.108612060546875,1.010772705078125,-0.215728759765625
1773798638697715500,0.926715576171875,0.2491302490234375,0.9609527587890625,-0.2972412109375
1773798638717678300,0.94667822265625,0.673492431640625,0.981170654296875,-0.233184814453125
1773798638737640400,0.966640380859375,0.7182769775390625,0.992462158203125,-0.0041656494140625
1773798638757602600,0.9866025390625,0.5561981201171875,1.068939208984375,0.2614593505859375
1773798638777565400,1.0065654296875,0.40631103515625,1.050384521484375,0.4653778076171875
1773798638797527300,1.02652734375,0.3566741943359375,0.9062652587890625,0.530242919921875
1773798638817490400,1.046490478515625,0.25860595703125,0.742034912109375,0.4766693115234375
1773798638837452300,1.066452392578125,0.133636474609375,0.6449127197265625,0.308868408203125
1773798638857415400,1.08641552734375,-0.044281005859375,0.689178466796875,0.1121673583984375
1773798638877377500,1.10637744140625,-0.1123199462890625,0.7691650390625,0.07989501953125
1773798638897340400,1.12634033203125,0.009735107421875,0.8862152099609375,0.2040557861328125
1773798638917302300,1.14630224609375,0.3041534423828125,1.1607818603515625,0.410491943359375
1773798638937265400,1.166265380859375,0.9444580078125,1.5762481689453125,0.4790802001953125
1773798638957227500,1.1862275390625,0.699127197265625,1.1026763916015625,0.27880859375
1773798638977190400,1.2061904296875,0.226470947265625,0.7600555419921875,0.09771728515625
1773798638997152800,1.22615283203125,0.041168212890625,0.7235260009765625,-0.0079498291015625
1773798639017116000,1.246115966796875,0.0237274169921875,0.8105926513671875,-0.075775146484375
1773798639037078000,1.266078125,0.0679473876953125,1.02545166015625,-0.157806396484375
1773798639057040600,1.28604052734375,0.1449432373046875,1.0855865478515625,-0.179351806640625
1773798639077002800,1.306002685546875,0.2277069091796875,1.023681640625,0.018310546875
1773798639096966000,1.3259658203125,0.317840576171875,0.9891815185546875,0.332916259765625
1773798639116927700,1.345927734375,0.3465118408203125,0.9726715087890625,0.5858306884765625
1773798639136889600,1.3658896484375,0.274261474609375,0.866241455078125,0.58868408203125
1773798639156852700,1.385852783203125,0.1797637939453125,0.889373779296875,0.4049835205078125
1773798639176814800,1.40581494140625,0.1261444091796875,0.97705078125,0.1406097412109375
1773798639196777700,1.42577783203125,0.138214111328125,1.0026092529296875,-0.0749664306640625
1773798639216739800,1.44573974609375,0.1541595458984375,1.0379638671875,-0.1267242431640625
1773798639236702700,1.46570263671875,0.2138824462890625,0.98468017578125,-0.0640716552734375
1773798639256664800,1.485664794921875,0.248291015625,0.9510040283203125,0.108734130859375
1773798639276627700,1.505627685546875,0.234222412109375,0.9617156982421875,0.2280731201171875
1773798639296589800,1.52558984375,0.2278289794921875,0.950347900390625,0.2298126220703125
1773798639316553000,1.545552978515625,0.214019775390625,0.9488677978515625,0.183380126953125
1773798639336514800,1.565514892578125,0.198028564453125,0.97076416015625,0.118621826171875
1773798639356477700,1.585477783203125,0.16119384765625,0.9886322021484375,0.1089630126953125
1773798639376439800,1.605439697265625,0.138763427734375,0.98681640625,0.1447296142578125
1773798639396403000,1.62540283203125,0.1501312255859375,0.958740234375,0.192352294921875
1773798639416364800,1.64536474609375,0.1751556396484375,0.9494476318359375,0.2314453125
1773798639436327700,1.66532763671875,0.19573974609375,0.9722900390625,0.221099853515625
1773798639456289800,1.685289794921875,0.18377685546875,0.9831085205078125,0.19427490234375
1773798639476252700,1.705252685546875,0.142120361328125,0.98443603515625,0.175537109375
1773798639496214800,1.72521484375,0.085113525390625,0.993408203125,0.1782684326171875
1773798639516176600,1.7451767578125,0.0586090087890625,1.007080078125,0.209716796875
1773798639536139800,1.765139892578125,0.0756988525390625,0.98931884765625,0.2191009521484375
1773798639556102000,1.785101806640625,0.10382080078125,0.9494171142578125,0.199005126953125
1773798639576064800,1.805064697265625,0.1464691162109375,0.9300537109375,0.17236328125
1773798639596027000,1.82502685546875,0.1910858154296875,0.9677886962890625,0.158599853515625
1773798639615989800,1.84498974609375,0.1628265380859375,0.978912353515625,0.179290771484375
1773798639635951900,1.864951904296875,0.11279296875,0.978790283203125,0.1861114501953125
1773798639655914800,1.884914794921875,0.1072235107421875,0.9728851318359375,0.1692657470703125
1773798639675876900,1.904876953125,0.13897705078125,0.9486846923828125,0.1262054443359375
1773798639695840000,1.924840087890625,0.158294677734375,0.97589111328125,0.085662841796875
1773798639715801600,1.944801513671875,0.14202880859375,1.0152587890625,0.07513427734375
1773798639735764700,1.9647646484375,0.1284942626953125,1.0224761962890625,0.1219635009765625
1773798639755726800,1.984726806640625,0.191497802734375,0.9963531494140625,0.209381103515625
1773798639775689700,2.004689697265625,0.274261474609375,0.926666259765625,0.2303466796875
1773798639795651600,2.024651611328125,0.3211669921875,0.856597900390625,0.18634033203125
1773798639815614700,2.04461474609375,0.30804443359375,0.8705596923828125,0.1265106201171875
1773798639835576800,2.064576904296875,0.2767486572265625,0.941314697265625,0.0875701904296875
1773798639855539700,2.084539794921875,0.237701416015625,1.013427734375,0.074310302734375
1773798639875501800,2.104501708984375,0.2128753662109375,1.07073974609375,0.1105804443359375
1773798639895463700,2.124463623046875,0.166778564453125,1.0627593994140625,0.2033538818359375
1773798639915426800,2.1444267578125,0.1457672119140625,0.9882354736328125,0.259765625
1773798639935389000,2.164388916015625,0.147613525390625,0.9482269287109375,0.229888916015625
1773798639955351800,2.184351806640625,0.126373291015625,0.97894287109375,0.1600494384765625
1773798639975314000,2.20431396484375,0.0871429443359375,1.0100555419921875,0.089691162109375
1773798639995276800,2.22427685546875,0.090667724609375,0.9620513916015625,0.0848846435546875
1773798640015239000,2.244239013671875,0.1724700927734375,0.922332763671875,0.140106201171875
1773798640035202000,2.2642021484375,0.2251739501953125,0.9359588623046875,0.1958465576171875
1773798640055164000,2.284163818359375,0.181243896484375,0.9923095703125,0.2216644287109375
1773798640075126800,2.304126708984375,0.102783203125,1.012420654296875,0.218353271484375
1773798640095089000,2.3240888671875,0.0766448974609375,0.9810943603515625,0.2217559814453125
1773798640115052000,2.344052001953125,0.1497039794921875,0.96258544921875,0.200347900390625
1773798640135014000,2.364013916015625,0.2173309326171875,0.979400634765625,0.166961669921875
1773798640154976800,2.383976806640625,0.186004638671875,0.97479248046875,0.1313018798828125
1773798640174939000,2.40393896484375,0.102142333984375,0.956298828125,0.1444549560546875
1773798640194902000,2.423902099609375,0.0648345947265625,0.9521942138671875,0.1566925048828125
1773798640214864100,2.443864013671875,0.08587646484375,0.95880126953125,0.1627349853515625
1773798640234825700,2.46382568359375,0.1259918212890625,0.95770263671875,0.1822967529296875
1773798640254788900,2.483788818359375,0.15576171875,0.95989990234375,0.1889801025390625
1773798640274751000,2.5037509765625,0.1820526123046875,0.979705810546875,0.18621826171875
1773798640294713900,2.5237138671875,0.1678009033203125,0.9922637939453125,0.1713104248046875
1773798640314675700,2.54367578125,0.1222381591796875,0.9878082275390625,0.170684814453125
1773798640334638800,2.563638916015625,0.09051513671875,0.974700927734375,0.1827392578125
1773798640354601000,2.58360107421875,0.1102142333984375,0.97052001953125,0.1957550048828125
1773798640374563800,2.603563720703125,0.145660400390625,0.9785308837890625,0.1931915283203125
1773798640394526000,2.62352587890625,0.1529693603515625,0.9845733642578125,0.1875152587890625
1773798640414489000,2.643489013671875,0.144439697265625,0.992034912109375,0.1978302001953125
1773798640434451000,2.663450927734375,0.1492919921875,0.9871673583984375,0.2252044677734375
1773798640454413800,2.683413818359375,0.1707000732421875,0.9572906494140625,0.2256927490234375
1773798640474376000,2.7033759765625,0.1664276123046875,0.9566650390625,0.2057647705078125
1773798640494339000,2.723339111328125,0.135772705078125,0.9678497314453125,0.177581787109375
1773798640514301000,2.743301025390625,0.104766845703125,0.9552764892578125,0.134063720703125
1773798640534263800,2.763263916015625,0.090362548828125,0.95281982421875,0.1236724853515625
1773798640554226000,2.783225830078125,0.0981597900390625,0.970611572265625,0.163116455078125
1773798640574188000,2.80318798828125,0.13409423828125,0.969696044921875,0.1929473876953125
1773798640594151000,2.82315087890625,0.17413330078125,0.9727630615234375,0.2013397216796875
1773798640614112800,2.84311279296875,0.196502685546875,0.9882965087890625,0.17919921875
1773798640634076000,2.863075927734375,0.177642822265625,0.9891357421875,0.1641082763671875
1773798640654038000,2.8830380859375,0.146514892578125,0.9688873291015625,0.1857757568359375
1773798640674001000,2.9030009765625,0.154205322265625,0.940521240234375,0.186492919921875
1773798640693962800,2.922962646484375,0.1803741455078125,0.97015380859375,0.1913604736328125
1773798640713926000,2.94292578125,0.1747283935546875,0.9908294677734375,0.1859588623046875
1773798640733888000,2.962887939453125,0.1659698486328125,0.9697418212890625,0.1599884033203125
1773798640753851000,2.982850830078125,0.168304443359375,0.95465087890625,0.145599365234375
1773798640773813000,3.00281298828125,0.1695098876953125,0.9525299072265625,0.146575927734375
1773798640793776000,3.022776123046875,0.178741455078125,0.959320068359375,0.1487579345703125
1773798640813738000,3.042738037109375,0.20220947265625,0.9819183349609375,0.1407470703125
1773798640833700900,3.062700927734375,0.2242889404296875,0.997467041015625,0.1348419189453125
1773798640853663000,3.0826630859375,0.20849609375,0.9827880859375,0.147491455078125
1773798640873626000,3.102626220703125,0.180084228515625,0.97076416015625,0.1600189208984375
1773798640893587700,3.122587646484375,0.164398193359375,0.96856689453125,0.178619384765625
1773798640913550800,3.14255078125,0.16094970703125,0.965179443359375,0.18310546875
1773798640933513000,3.162512939453125,0.1711883544921875,0.947418212890625,0.187835693359375
1773798640953475000,3.18247509765625,0.189697265625,0.948638916015625,0.20782470703125
1773798640973438000,3.20243798828125,0.2030792236328125,0.97003173828125,0.2178497314453125
1773798640993399800,3.22239990234375,0.1828460693359375,0.9741973876953125,0.2106170654296875
1773798641013362200,3.242362060546875,0.1569976806640625,0.9693145751953125,0.19720458984375
1773798641033324300,3.26232421875,0.1469879150390625,0.9681854248046875,0.178497314453125
1773798641053287200,3.282287109375,0.14971923828125,0.971282958984375,0.162506103515625
1773798641073249000,3.3022490234375,0.1522979736328125,0.966156005859375,0.1594390869140625
1773798641093212200,3.322212158203125,0.1650543212890625,0.96295166015625,0.1652069091796875
1773798641113174300,3.34217431640625,0.1670379638671875,0.959228515625,0.170928955078125
1773798641133137200,3.36213720703125,0.1423797607421875,0.9584197998046875,0.2053985595703125
1773798641153099000,3.38209912109375,0.1295318603515625,0.9558563232421875,0.239654541015625
1773798641173062100,3.402062255859375,0.14984130859375,0.955322265625,0.233306884765625
1773798641193024300,3.422024169921875,0.1641082763671875,0.95703125,0.22271728515625
1773798641212987100,3.441987060546875,0.1737213134765625,0.9672088623046875,0.20404052734375
1773798641232949200,3.46194921875,0.1638946533203125,0.9888763427734375,0.1958160400390625
1773798641252912400,3.481912353515625,0.152984619140625,0.9914703369140625,0.2043609619140625
1773798641272874200,3.501874267578125,0.170684814453125,0.969085693359375,0.160888671875
1773798641292837000,3.521837158203125,0.1670074462890625,0.98126220703125,0.1397857666015625
1773798641312799200,3.54179931640625,0.12115478515625,0.9823455810546875,0.1452789306640625
1773798641332761000,3.561760986328125,0.0724639892578125,0.9661865234375,0.1610107421875
1773798641352724000,3.581723876953125,0.0763702392578125,0.961883544921875,0.165008544921875
1773798641372686000,3.60168603515625,0.122528076171875,0.974395751953125,0.1712188720703125
1773798641392649200,3.621649169921875,0.1537322998046875,0.9729461669921875,0.1738433837890625
1773798641412611300,3.641611328125,0.1501922607421875,0.950439453125,0.1876678466796875
1773798641432574200,3.66157421875,0.1248931884765625,0.9380950927734375,0.2137451171875
1773798641452536000,3.6815361328125,0.1134033203125,0.9565582275390625,0.22369384765625
1773798641472499200,3.701499267578125,0.108978271484375,0.9968719482421875,0.2129058837890625
1773798641492461300,3.72146142578125,0.103179931640625,1.006072998046875,0.21197509765625
1773798641512424200,3.741424072265625,0.1044769287109375,0.968017578125,0.2039642333984375
1773798641532386000,3.761385986328125,0.1059722900390625,0.953094482421875,0.2177276611328125
1773798641552349200,3.78134912109375,0.089447021484375,0.962860107421875,0.24005126953125
1773798641572311000,3.80131103515625,0.07135009765625,0.981781005859375,0.258575439453125
1773798641592274200,3.821274169921875,0.072967529296875,0.9846038818359375,0.2649993896484375
1773798641612236300,3.841236328125,0.093658447265625,0.99322509765625,0.2494659423828125
1773798641632199200,3.86119921875,0.0968780517578125,1.0044708251953125,0.2424468994140625
1773798641652161000,3.8811611328125,0.0647430419921875,1.0069732666015625,0.23974609375
1773798641672124200,3.901124267578125,0.022064208984375,0.9869384765625,0.2258453369140625
1773798641692086300,3.921086181640625,0.0048370361328125,0.9397430419921875,0.2130126953125
1773798641712048000,3.941048095703125,0.0273284912109375,0.9259490966796875,0.2141876220703125
1773798641732011000,3.961010986328125,0.0543975830078125,0.941314697265625,0.2470703125
1773798641751973000,3.98097314453125,0.0808563232421875,0.9623870849609375,0.24066162109375
1773798641771936300,4.000936279296875,0.100341796875,1.0024871826171875,0.21868896484375
1773798641791898400,4.0208984375,0.113189697265625,1.0164947509765625,0.18377685546875
1773798641811861200,4.040861328125,0.1092529296875,0.988189697265625,0.154998779296875
1773798641831823000,4.060822998046875,0.102935791015625,0.954833984375,0.151458740234375
1773798641851786200,4.0807861328125,0.1079559326171875,0.957733154296875,0.179168701171875
1773798641871748000,4.100748046875,0.1214141845703125,0.966705322265625,0.1857757568359375
1773798641891711200,4.120711181640625,0.119354248046875,0.97650146484375,0.196990966796875
1773798641911673000,4.140673095703125,0.1063995361328125,0.97412109375,0.2215728759765625
1773798641931636000,4.160635986328125,0.1049652099609375,0.9694366455078125,0.2292327880859375
1773798641951598000,4.18059814453125,0.115142822265625,0.9713134765625,0.207000732421875
1773798641971561200,4.200561279296875,0.121826171875,0.963775634765625,0.177520751953125
1773798641991523300,4.2205234375,0.1110382080078125,0.97186279296875,0.168792724609375
1773798642011486500,4.240486572265625,0.1137847900390625,0.978912353515625,0.173980712890625
1773798642031448300,4.2604482421875,0.1276092529296875,0.9630126953125,0.1563262939453125
1773798642051411500,4.280411376953125,0.1402435302734375,0.953125,0.150604248046875
1773798642071373600,4.30037353515625,0.1373748779296875,0.9874725341796875,0.1903228759765625
1773798642091335400,4.32033544921875,0.1231536865234375,1.0252838134765625,0.234039306640625
1773798642111298300,4.34029833984375,0.113372802734375,1.00732421875,0.2570343017578125
1773798642131260400,4.360260498046875,0.103607177734375,0.9536590576171875,0.288330078125
1773798642151223300,4.380223388671875,0.1065826416015625,0.953216552734375,0.303131103515625
1773798642171185400,4.400185302734375,0.1149139404296875,0.9805755615234375,0.25103759765625
1773798642191148500,4.4201484375,0.0951385498046875,0.967742919921875,0.1779327392578125
1773798642211110400,4.4401103515625,0.072265625,0.9368743896484375,0.130462646484375
1773798642231073300,4.4600732421875,0.0691375732421875,0.9530487060546875,0.1345062255859375
1773798642251035400,4.480035400390625,0.0835418701171875,0.9976654052734375,0.179473876953125
1773798642270998500,4.49999853515625,0.0975799560546875,0.9914703369140625,0.216705322265625
1773798642290960400,4.51996044921875,0.1320037841796875,0.951324462890625,0.2111663818359375
1773798642310923300,4.53992333984375,0.15570068359375,0.9563446044921875,0.18988037109375
1773798642330885400,4.559885498046875,0.128387451171875,0.981170654296875,0.1680450439453125
1773798642350848500,4.5798486328125,0.0850982666015625,0.9818115234375,0.1712646484375
1773798642370810600,4.599810546875,0.08984375,0.9676055908203125,0.194488525390625
1773798642390773500,4.6197734375,0.1247711181640625,0.9526519775390625,0.1919403076171875
1773798642410735400,4.6397353515625,0.14508056640625,0.9683074951171875,0.1766510009765625
1773798642430698500,4.659698486328125,0.134429931640625,1.006683349609375,0.1810760498046875
1773798642450660400,4.679660400390625,0.106536865234375,0.9988861083984375,0.2096405029296875
1773798642470622200,4.699622314453125,0.095001220703125,0.949798583984375,0.2255096435546875
1773798642490585300,4.71958544921875,0.1121826171875,0.9356842041015625,0.2164154052734375
1773798642510547500,4.73954736328125,0.14239501953125,0.969482421875,0.18939208984375
1773798642530510300,4.75951025390625,0.1352386474609375,1.0024871826171875,0.177032470703125
1773798642550472400,4.779472412109375,0.1060638427734375,0.950592041015625,0.1884307861328125
1773798642570435600,4.799435546875,0.1142730712890625,0.92767333984375,0.2156219482421875
1773798642590397400,4.8193974609375,0.15252685546875,1.002105712890625,0.2200469970703125
1773798642610360300,4.8393603515625,0.137298583984375,1.0439910888671875,0.2097625732421875
1773798642630322400,4.859322509765625,0.104522705078125,0.9980621337890625,0.2083587646484375
1773798642650285600,4.87928564453125,0.112701416015625,0.9546356201171875,0.1985321044921875
1773798642670247400,4.899247314453125,0.1167144775390625,0.9369354248046875,0.1849822998046875
1773798642690210300,4.919210205078125,0.1072235107421875,0.9423675537109375,0.1669921875
1773798642710172400,4.93917236328125,0.1053009033203125,0.947967529296875,0.16290283203125
1773798642730135600,4.959135498046875,0.11773681640625,0.9745941162109375,0.18524169921875
1773798642750097400,4.979097412109375,0.12750244140625,1.0184783935546875,0.227874755859375
1773798642770060300,4.999060302734375,0.106964111328125,1.012176513671875,0.2494964599609375
1773798642790022400,5.0190224609375,0.101531982421875,0.970916748046875,0.2511138916015625
1773798642809985300,5.0389853515625,0.1212310791015625,0.9639129638671875,0.24810791015625
1773798642829947400,5.058947509765625,0.1220550537109375,0.9749603271484375,0.2380523681640625
1773798642849909200,5.0789091796875,0.099578857421875,0.971221923828125,0.210906982421875
1773798642869872400,5.098872314453125,0.0859222412109375,0.9617462158203125,0.1969451904296875
1773798642889834500,5.11883447265625,0.0781402587890625,0.9522552490234375,0.208770751953125
1773798642909797400,5.13879736328125,0.0861968994140625,0.9704742431640625,0.2359466552734375
1773798642929759500,5.158759521484375,0.1060791015625,0.9979400634765625,0.23773193359375
1773798642949722600,5.17872265625,0.1200714111328125,0.980743408203125,0.2122650146484375
1773798642969684500,5.1986845703125,0.126068115234375,0.96759033203125,0.1932220458984375
1773798642989647400,5.2186474609375,0.11199951171875,0.960357666015625,0.1831512451171875
1773798643009609700,5.238609619140625,0.0998992919921875,0.9499664306640625,0.1639862060546875
1773798643029572600,5.258572509765625,0.0963134765625,0.95635986328125,0.1811981201171875
1773798643049534500,5.278534423828125,0.1084747314453125,0.964111328125,0.2085113525390625
1773798643069497600,5.29849755859375,0.128997802734375,0.9808197021484375,0.210784912109375
1773798643089459700,5.318459716796875,0.125396728515625,0.984466552734375,0.1931915283203125
1773798643109422600,5.338422607421875,0.104248046875,0.97515869140625,0.1870880126953125
1773798643129384700,5.358384765625,0.0936279296875,0.9737701416015625,0.2123870849609375
1773798643149347800,5.378347900390625,0.1094818115234375,0.9797210693359375,0.2184295654296875
1773798643169309700,5.398309814453125,0.1249237060546875,0.9718017578125,0.209686279296875
1773798643189272600,5.4182724609375,0.1069183349609375,0.9607086181640625,0.21868896484375
1773798643209234700,5.438234619140625,0.098052978515625,0.963287353515625,0.233734130859375
1773798643229197800,5.45819775390625,0.1235809326171875,0.9742889404296875,0.2118072509765625
1773798643249159700,5.47815966796875,0.149566650390625,0.9796600341796875,0.193511962890625
1773798643269121500,5.49812158203125,0.1348419189453125,0.982025146484375,0.20086669921875
1773798643289084700,5.518084716796875,0.121734619140625,0.96771240234375,0.2258453369140625
1773798643309046800,5.538046875,0.127197265625,0.9259796142578125,0.2213897705078125
1773798643329009700,5.558009765625,0.1459503173828125,0.912109375,0.20196533203125
1773798643348971500,5.577971435546875,0.153656005859375,0.9642486572265625,0.2205657958984375
1773798643368934700,5.5979345703125,0.1014862060546875,0.9770050048828125,0.178680419921875
1773798643388896800,5.617896728515625,0.053558349609375,0.976470947265625,0.1404266357421875
1773798643408859600,5.637859619140625,0.067413330078125,0.9940185546875,0.165557861328125
1773798643428821500,5.657821533203125,0.116485595703125,1.001373291015625,0.2075347900390625
1773798643448784600,5.67778466796875,0.1665496826171875,0.9665069580078125,0.2421722412109375
1773798643468746800,5.697746826171875,0.20037841796875,0.931976318359375,0.2591552734375
1773798643488709600,5.717709716796875,0.2230682373046875,0.9224090576171875,0.267578125
1773798643508671700,5.737671630859375,0.215911865234375,0.95721435546875,0.2138824462890625
1773798643528635000,5.757634765625,0.150970458984375,0.9961395263671875,0.1402740478515625
1773798643548596700,5.7775966796875,0.086761474609375,1.0252532958984375,0.1352996826171875
1773798643568559600,5.7975595703125,0.089691162109375,1.003448486328125,0.1705780029296875
1773798643588521700,5.817521728515625,0.134246826171875,0.9573516845703125,0.18255615234375
1773798643608484900,5.83748486328125,0.1697235107421875,0.9483642578125,0.191558837890625
1773798643628446500,5.857446533203125,0.177764892578125,0.987823486328125,0.21649169921875
1773798643648409600,5.87740966796875,0.1370391845703125,0.986175537109375,0.246826171875
1773798643668371700,5.897371826171875,0.1257476806640625,0.9506072998046875,0.25531005859375
1773798643688333800,5.917333740234375,0.1397705078125,0.940704345703125,0.25970458984375
1773798643708296700,5.937296630859375,0.1819610595703125,0.9701385498046875,0.2100830078125
1773798643728258600,5.957258544921875,0.1748199462890625,0.9862518310546875,0.1597900390625
1773798643748221700,5.9772216796875,0.1653289794921875,1.0144195556640625,0.169097900390625
1773798643768183800,5.997183837890625,0.177459716796875,1.01513671875,0.1764984130859375
1773798643788146700,6.017146728515625,0.14447021484375,0.9623260498046875,0.1269378662109375
1773798643808108500,6.037108642578125,0.0948638916015625,0.92132568359375,0.0982208251953125
1773798643828071700,6.05707177734375,0.068450927734375,0.9282073974609375,0.1043548583984375
1773798643848033800,6.07703369140625,0.0541534423828125,0.9656982421875,0.1268768310546875
1773798643867996700,6.09699658203125,0.050628662109375,0.986419677734375,0.17596435546875
1773798643887958800,6.116958740234375,0.0736846923828125,0.9993896484375,0.241729736328125
1773798643907921700,6.136921630859375,0.1033782958984375,0.972686767578125,0.27484130859375
1773798643927883500,6.156883544921875,0.1079864501953125,0.9283905029296875,0.2765045166015625
1773798643947846700,6.1768466796875,0.0831298828125,0.9546051025390625,0.2789306640625
1773798643967808800,6.196808837890625,0.0507354736328125,1.0700225830078125,0.2922515869140625
1773798643987771600,6.216771728515625,0.028564453125,1.15728759765625,0.3336029052734375
1773798644007733800,6.236733642578125,0.06439208984375,1.114044189453125,0.34039306640625
1773798644027697000,6.25669677734375,0.157928466796875,0.9840850830078125,0.30029296875
1773798644047658800,6.27665869140625,0.228515625,0.905059814453125,0.3191986083984375
1773798644067621600,6.29662158203125,0.293182373046875,0.8359832763671875,0.33172607421875
1773798644087583700,6.316583740234375,0.3374176025390625,0.763824462890625,0.2940673828125
1773798644107547000,6.336546875,0.3340301513671875,0.7147064208984375,0.25030517578125
1773798644127509000,6.356509033203125,0.2923126220703125,0.7671966552734375,0.2503509521484375
1773798644147470600,6.376470703125,0.266448974609375,0.931488037109375,0.274322509765625
1773798644167433700,6.396433837890625,0.245513916015625,0.9953765869140625,0.2762451171875
1773798644187395800,6.416395751953125,0.226837158203125,0.9189453125,0.274810791015625
1773798644207358700,6.436358642578125,0.252105712890625,0.8145904541015625,0.2194671630859375
1773798644227320800,6.45632080078125,0.297149658203125,0.833587646484375,0.144805908203125
1773798644247283700,6.47628369140625,0.2672882080078125,0.8851318359375,0.1031341552734375
1773798644267245800,6.496245849609375,0.1837921142578125,0.9281005859375,0.1239776611328125
1773798644287208700,6.516208740234375,0.11187744140625,0.9876556396484375,0.18133544921875
1773798644307170800,6.5361708984375,0.13958740234375,1.0699005126953125,0.3045654296875
1773798644327134000,6.556134033203125,0.0992431640625,0.9812164306640625,0.3625030517578125
1773798644347095800,6.576095703125,0.1654510498046875,0.8598175048828125,0.3908233642578125
1773798644367058700,6.59605859375,0.4981842041015625,0.9454193115234375,0.428924560546875
1773798644387020800,6.616020751953125,0.839019775390625,1.206817626953125,0.1584014892578125
1773798644406984000,6.63598388671875,0.252349853515625,1.1107177734375,-0.0970916748046875
1773798644426945800,6.65594580078125,-0.0381317138671875,0.977020263671875,-0.0273895263671875
1773798644446908700,6.67590869140625,-0.0506439208984375,0.8777618408203125,0.031005859375
1773798644466870800,6.695870849609375,0.00909423828125,0.871826171875,0.097442626953125
1773798644486834000,6.715833984375,0.0222930908203125,0.9534149169921875,0.066131591796875
1773798644506795800,6.735795654296875,0.066192626953125,1.0422210693359375,0.0168609619140625
1773798644526759000,6.755759033203125,0.1044769287109375,1.1193389892578125,0.0143890380859375
1773798644546720800,6.775720703125,0.1428375244140625,1.1166839599609375,0.059967041015625
1773798644566683600,6.79568359375,0.2512969970703125,1.0150299072265625,0.23529052734375
1773798644586645800,6.815645751953125,0.3067779541015625,0.9575653076171875,0.380401611328125
1773798644606609000,6.83560888671875,0.3095245361328125,0.9209442138671875,0.336395263671875
1773798644626570800,6.85557080078125,0.2309722900390625,0.9701385498046875,0.2061309814453125
1773798644646533600,6.87553369140625,0.1135406494140625,0.9830474853515625,0.0561370849609375
1773798644666495700,6.895495849609375,0.0487823486328125,0.9795989990234375,-0.041412353515625
1773798644686457900,6.915457763671875,0.05926513671875,1.004669189453125,-0.0702667236328125
1773798644706421000,6.9354208984375,0.108306884765625,1.017852783203125,-0.0436859130859375
1773798644726382800,6.9553828125,0.139373779296875,1.0335235595703125,0.019378662109375
1773798644746345700,6.975345703125,0.184906005859375,1.0264892578125,0.1196136474609375
1773798644766307800,6.995307861328125,0.205596923828125,0.9974822998046875,0.2054443359375
1773798644786271000,7.01527099609375,0.20526123046875,0.958770751953125,0.2525482177734375
1773798644806232600,7.035232666015625,0.2093963623046875,0.93212890625,0.29888916015625
1773798644826195700,7.05519580078125,0.1823272705078125,0.9467315673828125,0.3184051513671875
1773798644846157800,7.07515771484375,0.141326904296875,0.9510040283203125,0.3360137939453125
1773798644866120700,7.09512060546875,0.1460418701171875,0.9348602294921875,0.3047027587890625
1773798644886082800,7.115082763671875,0.1926422119140625,0.928009033203125,0.2478790283203125
1773798644906045700,7.135045654296875,0.20135498046875,0.966705322265625,0.1926727294921875
1773798644926007800,7.1550078125,0.1626434326171875,1.005340576171875,0.13037109375
1773798644945970700,7.174970703125,0.1236419677734375,0.9899444580078125,0.0918426513671875
1773798644965932800,7.194932861328125,0.118377685546875,0.9173431396484375,0.116943359375
1773798644985896000,7.21489599609375,0.1622161865234375,0.888763427734375,0.1729583740234375
1773798645005857000,7.23485693359375,0.2155609130859375,0.9166717529296875,0.24041748046875
1773798645025820000,7.25481982421875,0.2387847900390625,0.956756591796875,0.2662506103515625
1773798645045782000,7.274781982421875,0.2249603271484375,0.984222412109375,0.2457122802734375
1773798645065745200,7.2947451171875,0.1996307373046875,0.9903564453125,0.221710205078125
1773798645085707300,7.314707275390625,0.184783935546875,0.9808502197265625,0.1990814208984375
1773798645105670000,7.334669921875,0.1870574951171875,0.9675445556640625,0.1779022216796875
1773798645125632000,7.354632080078125,0.188720703125,0.9638214111328125,0.1551666259765625
1773798645145595100,7.37459521484375,0.1886444091796875,0.97296142578125,0.1392059326171875
1773798645165557200,7.39455712890625,0.170135498046875,0.975830078125,0.1350860595703125
1773798645185520000,7.41452001953125,0.15704345703125,0.96917724609375,0.1652374267578125
1773798645205482000,7.43448193359375,0.1691436767578125,0.95684814453125,0.1973419189453125
1773798645225445000,7.454445068359375,0.1795196533203125,0.956390380859375,0.226318359375
1773798645245407200,7.4744072265625,0.1812896728515625,0.9593658447265625,0.2308502197265625
1773798645265370000,7.4943701171875,0.17236328125,0.9691925048828125,0.2178802490234375
1773798645285332200,7.514332275390625,0.1575927734375,0.9656982421875,0.2014312744140625
1773798645305294000,7.534294189453125,0.1457366943359375,0.954742431640625,0.2105712890625
1773798645325257000,7.554257080078125,0.1496734619140625,0.947540283203125,0.2253875732421875
1773798645345219000,7.574218994140625,0.1608123779296875,0.9576873779296875,0.234222412109375
1773798645365182200,7.59418212890625,0.16046142578125,0.977203369140625,0.2328033447265625
1773798645385144000,7.61414404296875,0.1662445068359375,0.983245849609375,0.2196197509765625
1773798645405107000,7.63410693359375,0.181060791015625,0.9719085693359375,0.217010498046875
1773798645425069000,7.654069091796875,0.20233154296875,0.962158203125,0.23095703125
1773798645445032200,7.6740322265625,0.2149200439453125,0.96295166015625,0.2142333984375
1773798645464994300,7.693994384765625,0.1793212890625,0.95977783203125,0.163604736328125
1773798645484957000,7.71395703125,0.128143310546875,0.9498748779296875,0.1392059326171875
1773798645504919000,7.7339189453125,0.1205596923828125,0.9466094970703125,0.15802001953125
1773798645524882200,7.753882080078125,0.151153564453125,0.9595947265625,0.198760986328125
1773798645544844000,7.773843994140625,0.181732177734375,0.9814605712890625,0.201171875
1773798645564807200,7.79380712890625,0.2092437744140625,0.9886322021484375,0.1558074951171875
1773798645584769000,7.81376904296875,0.2108917236328125,0.97247314453125,0.13372802734375
1773798645604732200,7.833732177734375,0.1915130615234375,0.9661865234375,0.1515655517578125
1773798645624694000,7.853694091796875,0.1613922119140625,0.9646148681640625,0.1816558837890625
1773798645644657200,7.8736572265625,0.1347503662109375,0.963958740234375,0.2086944580078125
1773798645664619000,7.893618896484375,0.1256866455078125,0.9658050537109375,0.2279205322265625
1773798645684582000,7.913581787109375,0.1530609130859375,0.9609375,0.22509765625
1773798645704544000,7.9335439453125,0.1762847900390625,0.9690704345703125,0.2003631591796875
1773798645724507100,7.953507080078125,0.161407470703125,0.9796142578125,0.197265625
1773798645744469200,7.97346923828125,0.121856689453125,0.9783782958984375,0.2103271484375
1773798645764432100,7.99343212890625,0.11932373046875,0.9548187255859375,0.202880859375
1773798645784394000,8.01339404296875,0.163543701171875,0.9564971923828125,0.1890869140625
1773798645804357000,8.033357177734375,0.208587646484375,0.973968505859375,0.1829376220703125
1773798645824319200,8.0533193359375,0.2115325927734375,0.97247314453125,0.1700897216796875
1773798645844282000,8.0732822265625,0.17510986328125,0.961456298828125,0.16143798828125
1773798645864244000,8.093243896484376,0.13861083984375,0.949310302734375,0.1696624755859375
1773798645884207000,8.11320703125,0.132110595703125,0.9459228515625,0.1832427978515625
1773798645904169000,8.1331689453125,0.1595458984375,0.9598388671875,0.1972503662109375
1773798645924132000,8.153132080078125,0.173004150390625,0.9687347412109375,0.21893310546875
1773798645944094200,8.17309423828125,0.1791229248046875,0.9664764404296875,0.2067108154296875
1773798645964057000,8.19305712890625,0.197052001953125,0.9516754150390625,0.1806793212890625
1773798645984019000,8.21301904296875,0.1997222900390625,0.9493255615234375,0.1851348876953125
1773798646003982800,8.23298291015625,0.1728668212890625,0.963623046875,0.20281982421875
1773798646023945000,8.252945068359375,0.1268310546875,0.9724884033203125,0.2286376953125
1773798646043906800,8.27290673828125,0.1060638427734375,0.95660400390625,0.2493743896484375
1773798646063869700,8.29286962890625,0.1209716796875,0.9343414306640625,0.2607574462890625
1773798646083831800,8.312831787109374,0.1788482666015625,0.944671630859375,0.24163818359375
1773798646103794700,8.332794677734375,0.23590087890625,0.979644775390625,0.19891357421875
1773798646123756800,8.3527568359375,0.2446441650390625,0.9967041015625,0.1354217529296875
1773798646143720000,8.372719970703125,0.2197418212890625,1.0053253173828125,0.0977325439453125
1773798646163681800,8.392681884765626,0.174285888671875,0.997955322265625,0.0888824462890625
1773798646183644700,8.412644775390625,0.13592529296875,0.96527099609375,0.107574462890625
1773798646203606800,8.432606689453126,0.1090240478515625,0.9474029541015625,0.16192626953125
1773798646223570000,8.45256982421875,0.089996337890625,0.9686737060546875,0.2194976806640625
1773798646243531800,8.47253173828125,0.105255126953125,0.9844207763671875,0.2573089599609375
1773798646263494700,8.49249462890625,0.1404571533203125,0.955291748046875,0.2504730224609375
1773798646283456800,8.512456787109375,0.1451568603515625,0.908660888671875,0.2558135986328125
1773798646303420000,8.532419921875,0.1641082763671875,0.9005584716796875,0.2576446533203125
1773798646323382000,8.552382080078125,0.1728973388671875,0.9376983642578125,0.2562713623046875
1773798646343344600,8.5723447265625,0.1611175537109375,0.9925689697265625,0.261932373046875
1773798646363306800,8.592306640625,0.1457672119140625,1.0281219482421875,0.2246551513671875
1773798646383270000,8.612269775390626,0.1403656005859375,1.0121307373046875,0.170440673828125
1773798646403231700,8.632231689453125,0.1320343017578125,0.973419189453125,0.154815673828125
1773798646423195000,8.65219482421875,0.1167144775390625,0.9530181884765625,0.168426513671875
1773798646443156700,8.67215673828125,0.11444091796875,0.9440460205078125,0.1864776611328125
1773798646463120000,8.692119873046876,0.12860107421875,0.9476165771484375,0.1903228759765625
1773798646483081700,8.712081787109375,0.1490478515625,0.9558868408203125,0.1957550048828125
1773798646503044900,8.732044921875,0.174346923828125,0.96661376953125,0.186859130859375
1773798646523006700,8.7520068359375,0.1667938232421875,0.9891357421875,0.177581787109375
1773798646542969600,8.771969482421875,0.131439208984375,0.9985504150390625,0.1962127685546875
1773798646562931700,8.791931640625,0.11822509765625,0.9862518310546875,0.20806884765625
1773798646582894800,8.811894775390625,0.1242523193359375,0.9680328369140625,0.207122802734375
1773798646602857000,8.83185693359375,0.128143310546875,0.96990966796875,0.207977294921875
1773798646622819800,8.85181982421875,0.1151580810546875,0.975830078125,0.1905364990234375
1773798646642781700,8.87178173828125,0.0923919677734375,0.9697265625,0.175201416015625
1773798646662744800,8.891744873046875,0.0830535888671875,0.969390869140625,0.191192626953125
1773798646682707000,8.91170703125,0.087371826171875,0.970672607421875,0.2299652099609375
1773798646702669800,8.931669921875,0.0838165283203125,0.96429443359375,0.2838592529296875
1773798646722631700,8.951631591796875,0.092315673828125,0.9670562744140625,0.324676513671875
1773798646742594800,8.9715947265625,0.1248626708984375,0.997039794921875,0.3264617919921875
1773798646762556700,8.991556640625,0.130401611328125,1.0132904052734375,0.27215576171875
1773798646782519800,9.011519775390624,0.0691070556640625,0.9923095703125,0.225830078125
1773798646802482000,9.03148193359375,0.0001220703125,0.97052001953125,0.2022552490234375
1773798646822444800,9.05144482421875,-0.0165557861328125,0.9207000732421875,0.2061767578125
1773798646842406700,9.07140673828125,0.0392608642578125,0.9080963134765625,0.2056732177734375
1773798646862369800,9.091369873046874,0.09393310546875,0.9520263671875,0.197479248046875
1773798646882332000,9.111331787109375,0.109466552734375,0.98016357421875,0.18017578125
1773798646902294800,9.131294677734376,0.0903167724609375,0.993865966796875,0.1827239990234375
1773798646922256600,9.151256591796875,0.08648681640625,1.0055389404296875,0.202880859375
1773798646942219800,9.1712197265625,0.1064910888671875,0.9902191162109375,0.20635986328125
1773798646962182000,9.191181884765625,0.1317901611328125,0.970703125,0.214111328125
1773798646982144800,9.211144775390625,0.156494140625,0.971038818359375,0.2268218994140625
1773798647002107000,9.23110693359375,0.14324951171875,0.9711151123046875,0.23699951171875
1773798647022069800,9.25106982421875,0.0995941162109375,0.9524078369140625,0.24774169921875
1773798647042031900,9.271031982421874,0.056121826171875,0.9283905029296875,0.2581329345703125
1773798647061994800,9.290994873046875,0.056396484375,0.9515533447265625,0.2871551513671875
1773798647081956900,9.310956787109374,0.097442626953125,0.9805450439453125,0.2716064453125
1773798647101920000,9.330919921875,0.1175994873046875,0.969207763671875,0.23291015625
1773798647121881600,9.350881591796876,0.11468505859375,0.97369384765625,0.1985015869140625
1773798647141844700,9.3708447265625,0.102386474609375,0.990234375,0.182373046875
1773798647161806800,9.390806884765626,0.0844573974609375,0.9623260498046875,0.1787567138671875
1773798647181769700,9.410769775390625,0.08221435546875,0.95220947265625,0.2003021240234375
1773798647201731600,9.430731689453125,0.0963287353515625,0.9787445068359375,0.235015869140625
1773798647221694700,9.45069482421875,0.1185302734375,0.9778289794921875,0.2431793212890625
1773798647241656800,9.47065673828125,0.136505126953125,0.9648895263671875,0.2392425537109375
1773798647261619700,9.49061962890625,0.1396331787109375,0.9758758544921875,0.2290191650390625
1773798647281581800,9.510581787109375,0.1229248046875,0.9888458251953125,0.20587158203125
1773798647301545000,9.530544921875,0.1064910888671875,0.96746826171875,0.1812744140625
1773798647321506800,9.5505068359375,0.1131439208984375,0.9608154296875,0.177520751953125
1773798647341469700,9.5704697265625,0.129547119140625,0.9713134765625,0.1739654541015625
1773798647361431800,9.590431884765625,0.1385498046875,0.992340087890625,0.165679931640625
1773798647381395000,9.61039501953125,0.1284027099609375,0.9945068359375,0.164093017578125
1773798647401356800,9.630356689453125,0.1038818359375,0.9596099853515625,0.1777191162109375
1773798647421319700,9.650319580078126,0.1066436767578125,0.9500885009765625,0.204376220703125
1773798647441281800,9.67028173828125,0.1271209716796875,0.97723388671875,0.228057861328125
1773798647461245000,9.690244873046876,0.1247711181640625,0.97955322265625,0.23162841796875
1773798647481206800,9.710206787109374,0.109100341796875,0.9585418701171875,0.2462615966796875
1773798647501169700,9.730169677734375,0.1026763916015625,0.95526123046875,0.2587432861328125
1773798647521131800,9.7501318359375,0.100372314453125,0.9772796630859375,0.2516021728515625
1773798647541094700,9.7700947265625,0.1011962890625,0.97259521484375,0.2139434814453125
1773798647561056800,9.790056884765624,0.1094207763671875,0.9546356201171875,0.1797943115234375
1773798647581020000,9.81002001953125,0.1247711181640625,0.9419097900390625,0.174560546875
1773798647600981800,9.829981689453126,0.128082275390625,0.959259033203125,0.2144012451171875
1773798647620944600,9.849944580078125,0.13507080078125,0.9840850830078125,0.2361602783203125
1773798647640906800,9.86990673828125,0.15386962890625,0.983154296875,0.20306396484375
1773798647660870000,9.889869873046875,0.1844329833984375,0.97589111328125,0.1613311767578125
1773798647680832000,9.90983203125,0.1939544677734375,0.98272705078125,0.15277099609375
1773798647700794600,9.929794677734375,0.1621551513671875,0.981231689453125,0.1714324951171875
1773798647720756700,9.9497568359375,0.1396942138671875,0.9635162353515625,0.16729736328125
1773798647740719900,9.969719970703125,0.14984130859375,0.9613037109375,0.15802001953125
1773798647760682000,9.989681884765625,0.148590087890625,0.9662628173828125,0.172210693359375
1773798647780644900,10.009644775390624,0.1407318115234375,0.9674072265625,0.2033843994140625
1773798647800606700,10.029606689453125,0.1467437744140625,0.973724365234375,0.221771240234375
1773798647820569900,10.04956982421875,0.1629486083984375,0.974884033203125,0.2094573974609375
1773798647840531700,10.06953173828125,0.1685791015625,0.9630279541015625,0.198944091796875
1773798647860494800,10.089494873046876,0.1565093994140625,0.9561309814453125,0.213714599609375
1773798647880456700,10.109456787109375,0.133819580078125,0.9602508544921875,0.2375030517578125
1773798647900419800,10.129419921875,0.115936279296875,0.9656524658203125,0.259979248046875
1773798647920381700,10.149381591796875,0.1259002685546875,0.9635162353515625,0.25250244140625
1773798647940344800,10.1693447265625,0.1610107421875,0.9484100341796875,0.2183380126953125
1773798647960307000,10.189306884765625,0.17669677734375,0.9614105224609375,0.1964569091796875
1773798647980269800,10.209269775390625,0.1541290283203125,0.9860992431640625,0.20849609375
1773798648000231700,10.229231689453124,0.132293701171875,0.9779510498046875,0.2193145751953125
1773798648020194000,10.249194091796875,0.1392822265625,0.9623565673828125,0.2099761962890625
1773798648040156200,10.26915625,0.168121337890625,0.9601287841796875,0.2021026611328125
1773798648060119000,10.289119140625,0.1766510009765625,0.963836669921875,0.1928558349609375
1773798648080081000,10.309080810546876,0.166473388671875,0.9578857421875,0.18109130859375
1773798648100044000,10.3290439453125,0.1514129638671875,0.9629669189453125,0.178924560546875
1773798648120006100,10.349006103515626,0.1557159423828125,0.9754638671875,0.196441650390625
1773798648139969000,10.368968994140625,0.172454833984375,0.9816436767578125,0.2156829833984375
1773798648159931000,10.388930908203125,0.1865081787109375,0.971923828125,0.19940185546875
1773798648179894000,10.40889404296875,0.1819610595703125,0.9612274169921875,0.1767425537109375
1773798648199856000,10.428856201171875,0.1605072021484375,0.952484130859375,0.1750640869140625
1773798648219819000,10.448819091796874,0.160614013671875,0.956329345703125,0.186248779296875
1773798648239781000,10.468781005859375,0.1655426025390625,0.9628448486328125,0.193939208984375
1773798648259744000,10.488743896484374,0.1766815185546875,0.9542083740234375,0.197357177734375
1773798648279706000,10.5087060546875,0.194793701171875,0.953857421875,0.191619873046875
1773798648299669000,10.5286689453125,0.1971893310546875,0.9543609619140625,0.1890411376953125
1773798648319631000,10.548631103515625,0.1899261474609375,0.9529571533203125,0.1866455078125
1773798648339594200,10.56859423828125,0.190399169921875,0.963104248046875,0.1919708251953125
1773798648359555800,10.588555908203125,0.1949615478515625,0.964996337890625,0.2037200927734375
1773798648379519000,10.60851904296875,0.2005615234375,0.9610443115234375,0.20111083984375
1773798648399481000,10.628481201171875,0.2006683349609375,0.9546661376953125,0.1845245361328125
1773798648419444000,10.64844384765625,0.208953857421875,0.94903564453125,0.1804351806640625
1773798648439406000,10.668406005859374,0.217193603515625,0.9506378173828125,0.1845855712890625
1773798648459369000,10.688368896484375,0.2248687744140625,0.9578094482421875,0.1817474365234375
1773798648479331000,10.7083310546875,0.2309722900390625,0.96630859375,0.1735382080078125
1773798648499294000,10.7282939453125,0.2286834716796875,0.98126220703125,0.1682891845703125
1773798648519256000,10.748256103515626,0.194183349609375,0.9907073974609375,0.16571044921875
1773798648539219200,10.76821923828125,0.114837646484375,0.9697113037109375,0.1873016357421875
1773798648559181000,10.78818115234375,0.0471038818359375,0.921234130859375,0.2055206298828125
1773798648579144000,10.80814404296875,0.02874755859375,0.899017333984375,0.188079833984375
1773798648599106000,10.82810595703125,0.090118408203125,0.931396484375,0.1951904296875
1773798648619069200,10.848069091796875,0.1883392333984375,0.99102783203125,0.21783447265625
1773798648639031000,10.868031005859375,0.2702789306640625,1.014068603515625,0.2094879150390625
1773798648658994000,10.887993896484375,0.2845001220703125,1.01055908203125,0.196685791015625
1773798648678956000,10.9079560546875,0.2207794189453125,0.9893798828125,0.192413330078125
1773798648698919200,10.927919189453124,0.141815185546875,0.9638671875,0.1769866943359375
1773798648718881000,10.947881103515625,0.1186981201171875,0.95703125,0.1599884033203125
1773798648738844200,10.96784423828125,0.1512451171875,0.9560394287109375,0.1695098876953125
1773798648758806000,10.987805908203125,0.184539794921875,0.951416015625,0.192901611328125
1773798648778769000,11.007768798828126,0.2056732177734375,0.94842529296875,0.1937255859375
1773798648798731000,11.02773095703125,0.1880950927734375,0.9610595703125,0.187255859375
1773798648818694100,11.047694091796876,0.1402130126953125,0.9797515869140625,0.187957763671875
1773798648838656000,11.067656005859375,0.096588134765625,0.9771728515625,0.179931640625
1773798648858619000,11.087618896484376,0.1048583984375,0.9520263671875,0.1629486083984375
1773798648878581000,11.1075810546875,0.1556396484375,0.9623260498046875,0.1589202880859375
1773798648898544000,11.127544189453126,0.194061279296875,0.9773712158203125,0.1858367919921875
1773798648918506200,11.14750634765625,0.19927978515625,0.99249267578125,0.2174835205078125
1773798648938468900,11.16746875,0.1837615966796875,0.9864044189453125,0.23126220703125
1773798648958431000,11.187430908203124,0.156219482421875,0.964019775390625,0.2494354248046875
1773798648978394000,11.20739404296875,0.136199951171875,0.95379638671875,0.2571258544921875
1773798648998356200,11.227356201171874,0.1337127685546875,0.96209716796875,0.2422027587890625
1773798649018319000,11.247319091796875,0.146453857421875,0.9562530517578125,0.2077178955078125
1773798649038281200,11.26728125,0.167694091796875,0.9595184326171875,0.167022705078125
1773798649058244400,11.287244384765625,0.1535797119140625,0.9749603271484375,0.1445159912109375
1773798649078206000,11.3072060546875,0.122955322265625,0.971588134765625,0.13214111328125
1773798649098169000,11.327169189453125,0.09490966796875,0.953125,0.13653564453125
1773798649118131200,11.347131103515625,0.104156494140625,0.9412841796875,0.1685333251953125
1773798649138094000,11.367093994140625,0.128570556640625,0.96087646484375,0.218994140625
1773798649158056200,11.38705615234375,0.15234375,0.985748291015625,0.2811279296875
1773798649178019300,11.407019287109375,0.184234619140625,0.9900665283203125,0.315093994140625
1773798649197981200,11.426981201171875,0.2011871337890625,0.9812469482421875,0.308135986328125
1773798649217944000,11.446944091796874,0.1926116943359375,0.9865264892578125,0.2306365966796875
1773798649237906200,11.46690625,0.13983154296875,0.998779296875,0.1503448486328125
1773798649257869300,11.486869384765624,0.085540771484375,1.000213623046875,0.1097564697265625
1773798649277831200,11.5068310546875,0.0560760498046875,0.983123779296875,0.144561767578125
1773798649297794000,11.5267939453125,0.0391387939453125,0.959686279296875,0.2229461669921875
1773798649317756200,11.546756103515625,0.0425262451171875,0.9564056396484375,0.275360107421875
1773798649337719300,11.56671923828125,0.066802978515625,0.9546356201171875,0.2837066650390625
1773798649357681200,11.58668115234375,0.0913238525390625,0.9222259521484375,0.24493408203125
1773798649377644000,11.60664404296875,0.087158203125,0.910614013671875,0.2395782470703125
1773798649397607200,11.626607177734375,0.062286376953125,0.9502716064453125,0.2826080322265625
1773798649417569300,11.6465693359375,0.049560546875,0.9945068359375,0.3163909912109375
1773798649437532200,11.6665322265625,0.0986175537109375,0.9969329833984375,0.287384033203125
1773798649457494300,11.686494384765625,0.1800079345703125,0.977630615234375,0.204010009765625
1773798649477457400,11.70645751953125,0.2097320556640625,0.9764251708984375,0.1535797119140625
1773798649497419000,11.7264189453125,0.1564788818359375,0.9867095947265625,0.1580810546875
1773798649517382100,11.746382080078124,0.0936279296875,0.980499267578125,0.1895904541015625
1773798649537344300,11.76634423828125,0.0676727294921875,0.9672088623046875,0.2252044677734375
1773798649557307100,11.78630712890625,0.0844573974609375,0.9571075439453125,0.248779296875
1773798649577269000,11.80626904296875,0.0990447998046875,0.9520416259765625,0.24212646484375
1773798649597232000,11.826232177734376,0.1026153564453125,0.9733734130859375,0.2291412353515625
1773798649617194200,11.8461943359375,0.088470458984375,0.9948272705078125,0.21881103515625
