time,seconds_elapsed,z,y,x
1773798637819366700,0.04836669921875,-0.0627366155385971,0.05653917416930199,-0.03790237382054329
1773798637839329500,0.06832958984375,-0.06406792998313904,0.06774602085351944,-0.040947165340185165
1773798637859291600,0.088291748046875,-0.04350779578089714,0.0517638623714447,-0.05458761006593704
1773798637879253500,0.10825341796875,-0.00148151651956141,0.040772464126348495,-0.06661311537027359
1773798637899216600,0.128216552734375,0.024761805310845375,0.08860363811254501,-0.09012296795845032
1773798637919178500,0.148178466796875,-0.0014889733865857124,0.1736900359392166,-0.1354861855506897
1773798637939141600,0.1681416015625,-0.03518382087349892,0.2647477686405182,-0.15501834452152252
1773798637959103500,0.188103515625,-0.05023414269089699,0.277239590883255,-0.11916100978851318
1773798637979066600,0.208066650390625,-0.04175463691353798,0.20930075645446777,-0.06861235201358795
1773798637999028500,0.228028564453125,-0.03281174227595329,0.10027680546045303,-0.05131351947784424
1773798638018991400,0.247991455078125,-0.02828596718609333,-0.031131554394960403,-0.02593412809073925
1773798638038953200,0.267953125,-0.03212544694542885,-0.018221082165837288,0.023456856608390808
1773798638058916400,0.287916259765625,-0.0426047183573246,0.02936161682009697,0.006372678093612194
1773798638078878500,0.30787841796875,-0.04692303389310837,-0.11768961697816849,0.013344034552574158
1773798638098841300,0.32784130859375,-0.07945115119218826,-0.17890796065330505,0.08119312673807144
1773798638118803500,0.347803466796875,-0.055992428213357925,0.07968657463788986,0.04613500460982323
1773798638138766600,0.3677666015625,0.014337128028273582,-0.04320046678185463,0.04825647920370102
1773798638158728400,0.387728515625,0.028136562556028366,-0.22500862181186676,0.0492868572473526
1773798638178691300,0.40769140625,0.026920031756162643,-0.2681233286857605,0.10856669396162033
1773798638198653400,0.4276533203125,0.03563735634088516,-0.3272761404514313,0.2292393147945404
1773798638218616600,0.447616455078125,0.01070883683860302,-0.18747055530548096,0.10920824855566025
1773798638238578400,0.467578369140625,-0.10210160166025162,0.14415770769119263,-0.2622113823890686
1773798638258541300,0.487541259765625,-0.1398306041955948,0.2514285147190094,-0.4120781123638153
1773798638278503400,0.50750341796875,-0.15542341768741608,0.16733919084072113,-0.3270559012889862
1773798638298466600,0.527466552734375,-0.15054236352443695,0.07540766894817352,-0.22074170410633087
1773798638318428400,0.547428466796875,-0.164491206407547,-0.06183833256363869,-0.17750714719295502
1773798638338391300,0.567391357421875,-0.13286644220352173,-0.16535460948944092,-0.15082359313964844
1773798638358353400,0.587353515625,-0.021940985694527626,-0.15525883436203003,-0.13674239814281464
1773798638378315500,0.6073154296875,0.07709451764822006,-0.02383342757821083,-0.14812661707401276
1773798638398278400,0.6272783203125,0.16155613958835602,-0.10728677362203598,-0.15326279401779175
1773798638418240300,0.647240234375,0.2707662582397461,-0.49196866154670715,-0.12174640595912933
1773798638438203400,0.667203369140625,0.29810094833374023,-0.6055748462677002,-0.2413841187953949
1773798638458165500,0.68716552734375,0.12909673154354095,-0.3093125820159912,-0.4520476162433624
1773798638478128400,0.70712841796875,-0.04891987144947052,-0.09611428529024124,-0.3325449228286743
1773798638498090500,0.727090576171875,-0.10307498276233673,0.047036219388246536,0.0964711457490921
1773798638518053600,0.7470537109375,-0.20890821516513824,0.038417428731918335,0.8362645506858826
1773798638538015500,0.767015380859375,-0.36483627557754517,-0.6421621441841125,1.830702781677246
1773798638557978400,0.786978271484375,-0.07091332226991653,-0.4605486989021301,1.8216232061386108
1773798638577940500,0.8069404296875,0.5004902482032776,1.371359944343567,0.08558174967765808
1773798638597903600,0.826903564453125,0.7208378314971924,2.705230951309204,-1.4592365026474
1773798638617865200,0.846865234375,0.7041690945625305,2.60310697555542,-1.673139214515686
1773798638637828400,0.866828369140625,0.2645685374736786,1.833328127861023,-1.0992826223373413
1773798638657790500,0.88679052734375,-0.1264687180519104,0.6608056426048279,-0.4425148367881775
1773798638677753300,0.90675341796875,-0.22272548079490662,-0.2453940510749817,0.18008054792881012
1773798638697715500,0.926715576171875,-0.1271856427192688,-0.6414492130279541,0.7252203226089478
1773798638717678300,0.94667822265625,-0.19628243148326874,-0.14458833634853363,0.283068984746933
1773798638737640400,0.966640380859375,-0.6533895134925842,0.6457507610321045,-0.5314971804618835
1773798638757602600,0.9866025390625,-0.8595413565635681,0.8717095851898193,-0.7656540274620056
1773798638777565400,1.0065654296875,-0.7203203439712524,0.5126848816871643,-0.6738681793212891
1773798638797527300,1.02652734375,-0.4726594388484955,-0.04713369160890579,-0.6106337904930115
1773798638817490400,1.046490478515625,-0.2546994090080261,-0.10956750810146332,-0.5839079022407532
1773798638837452300,1.066452392578125,-0.16437669098377228,0.20096613466739655,-0.3236241340637207
1773798638857415400,1.08641552734375,-0.15983866155147552,0.4334145486354828,0.1479519158601761
1773798638877377500,1.10637744140625,-0.1626429706811905,-0.07599037140607834,0.4914666712284088
1773798638897340400,1.12634033203125,-0.03690182417631149,-0.8949030637741089,0.6861661076545715
1773798638917302300,1.14630224609375,0.4132317900657654,-2.1432955265045166,1.215493083000183
1773798638937265400,1.166265380859375,0.7686836123466492,-2.433095693588257,0.8042030334472656
1773798638957227500,1.1862275390625,0.5930585265159607,-1.2808353900909424,-0.24221768975257874
1773798638977190400,1.2061904296875,0.3653191328048706,-0.08860017359256744,-0.4263523817062378
1773798638997152800,1.22615283203125,0.20352275669574738,0.23388972878456116,-0.19064106047153473
1773798639017116000,1.246115966796875,0.1424948275089264,0.16253511607646942,0.06358803063631058
1773798639037078000,1.266078125,-0.09547192603349686,0.232315793633461,0.23098181188106537
1773798639057040600,1.28604052734375,-0.5760142803192139,0.3622298538684845,0.3538067936897278
1773798639077002800,1.306002685546875,-0.8452268838882446,0.26375842094421387,0.4928472638130188
1773798639096966000,1.3259658203125,-0.7671570777893066,0.012648949399590492,0.4268903434276581
1773798639116927700,1.345927734375,-0.2162313610315323,0.02569897100329399,0.11264079064130783
1773798639136889600,1.3658896484375,0.2559729218482971,0.2009437531232834,-0.2415713518857956
1773798639156852700,1.385852783203125,0.5207358598709106,0.22794927656650543,-0.3079620897769928
1773798639176814800,1.40581494140625,0.610360324382782,0.091677725315094,-0.13179372251033783
1773798639196777700,1.42577783203125,0.31463623046875,-0.21876908838748932,0.09700857102870941
1773798639216739800,1.44573974609375,0.0744478702545166,-0.3163803517818451,0.2735399305820465
1773798639236702700,1.46570263671875,-0.09624584019184113,-0.12085451930761337,0.22500728070735931
1773798639256664800,1.485664794921875,-0.16351543366909027,0.009648898616433144,0.15409448742866516
1773798639276627700,1.505627685546875,-0.05752800777554512,0.06771113723516464,0.125845804810524
1773798639296589800,1.52558984375,-0.003690076060593128,-0.003064233111217618,0.11014727503061295
1773798639316553000,1.545552978515625,0.03563389554619789,-0.04081454128026962,0.09559763222932816
1773798639336514800,1.565514892578125,0.0064863949082791805,-0.0070640346966683865,0.0025776736438274384
1773798639356477700,1.585477783203125,-0.05371595919132233,-0.0685761347413063,0.017977135255932808
1773798639376439800,1.605439697265625,-0.08414683490991592,-0.1173119768500328,0.05782335251569748
1773798639396403000,1.62540283203125,-0.06094137951731682,-0.10305821150541306,0.0638735219836235
1773798639416364800,1.64536474609375,0.007838748395442963,-0.08621770888566971,0.10857148468494415
1773798639436327700,1.66532763671875,0.04182840511202812,-0.017525730654597282,0.08856315165758133
1773798639456289800,1.685289794921875,0.03584614768624306,0.1105576679110527,0.015181349590420723
1773798639476252700,1.705252685546875,0.026983680203557014,0.19276678562164307,-0.06084470823407173
1773798639496214800,1.72521484375,0.019342804327607155,0.14338912069797516,-0.05252446234226227
1773798639516176600,1.7451767578125,0.034267693758010864,0.0910462886095047,0.005381715949624777
1773798639536139800,1.765139892578125,0.04060894623398781,0.10375009477138519,0.08128819614648819
1773798639556102000,1.785101806640625,0.011441739276051521,0.23988769948482513,0.13792537152767181
1773798639576064800,1.805064697265625,-0.0055122110061347485,0.3722715675830841,0.13147546350955963
1773798639596027000,1.82502685546875,-0.012462262064218521,0.3868369162082672,0.0396568663418293
1773798639615989800,1.84498974609375,0.039195071905851364,0.3346829116344452,-0.04861360788345337
1773798639635951900,1.864951904296875,0.08897088468074799,0.24747291207313538,-0.01284602377563715
1773798639655914800,1.884914794921875,0.10159692913293839,0.1649782955646515,0.10642630606889725
1773798639675876900,1.904876953125,0.09805972129106522,0.13920237123966217,0.12218929082155228
1773798639695840000,1.924840087890625,0.11497212201356888,0.07296288758516312,0.046669766306877136
1773798639715801600,1.944801513671875,0.10162036865949631,-0.09178478270769119,0.036765206605196
1773798639735764700,1.9647646484375,0.05265921726822853,-0.2246466875076294,0.2036236971616745
1773798639755726800,1.984726806640625,0.035476502031087875,-0.16166558861732483,0.3467006981372833
1773798639775689700,2.004689697265625,0.08036115020513535,0.144969180226326,0.25049906969070435
1773798639795651600,2.024651611328125,0.10880398005247116,0.2689467668533325,0.010980745777487755
1773798639815614700,2.04461474609375,0.10230506956577301,0.06461600959300995,-0.09637846797704697
1773798639835576800,2.064576904296875,0.09334805607795715,-0.1358763426542282,-0.11120668053627014
1773798639855539700,2.084539794921875,0.0549338236451149,-0.19993069767951965,-0.16234363615512848
1773798639875501800,2.104501708984375,-0.0253362488001585,-0.33300885558128357,-0.15980485081672668
1773798639895463700,2.124463623046875,-0.04481034725904465,-0.3296663165092468,-0.06095442920923233
1773798639915426800,2.1444267578125,-0.03159361332654953,-0.08207489550113678,0.03724190965294838
1773798639935389000,2.164388916015625,0.012149873189628124,0.20775212347507477,-0.00800093449652195
1773798639955351800,2.184351806640625,0.05658338591456413,0.2883460521697998,-0.09536859393119812
1773798639975314000,2.20431396484375,0.017111076042056084,0.09526366740465164,-0.03278138116002083
1773798639995276800,2.22427685546875,-0.041979674249887466,-0.21057374775409698,0.18937605619430542
1773798640015239000,2.244239013671875,-0.06154405325651169,-0.3385447561740875,0.21238602697849274
1773798640035202000,2.2642021484375,-0.027527764439582825,-0.17549486458301544,-0.007756456732749939
1773798640055164000,2.284163818359375,-0.005000350996851921,0.05878448858857155,-0.1420908272266388
1773798640075126800,2.304126708984375,-0.028729649260640144,0.13571229577064514,-0.046599194407463074
1773798640095089000,2.3240888671875,-0.0036706349346786737,0.08951390534639359,0.10288297384977341
1773798640115052000,2.344052001953125,0.036736175417900085,-0.10042194277048111,0.0686778649687767
1773798640135014000,2.364013916015625,0.07073968648910522,-0.198618546128273,-0.09174376726150513
1773798640154976800,2.383976806640625,0.030789870768785477,-0.06975484639406204,-0.1852944940328598
1773798640174939000,2.40393896484375,-0.01666286587715149,0.06270359456539154,-0.08309541642665863
1773798640194902000,2.423902099609375,-0.0496908575296402,0.10806494951248169,0.05904893949627876
1773798640214864100,2.443864013671875,-0.05324910581111908,-0.013428190723061562,0.12632465362548828
1773798640234825700,2.46382568359375,-0.0299091637134552,-0.20360665023326874,0.15074290335178375
1773798640254788900,2.483788818359375,-0.011007643304765224,-0.2318265736103058,0.12609587609767914
1773798640274751000,2.5037509765625,0.0006178533658385277,-0.13961169123649597,0.038965243846178055
1773798640294713900,2.5237138671875,-0.005259476602077484,-0.058270763605833054,-0.05769845098257065
1773798640314675700,2.54367578125,-0.01631106249988079,-0.06693749129772186,-0.05215907469391823
1773798640334638800,2.563638916015625,-0.013016998767852783,-0.08125410974025726,0.030054571107029915
1773798640354601000,2.58360107421875,-0.008502141572535038,-0.08849657326936722,0.04416240006685257
1773798640374563800,2.603563720703125,0.0046450854279100895,-0.09467138350009918,-0.01641678996384144
1773798640394526000,2.62352587890625,-0.00012303804396651685,-0.09936999529600143,-0.0710347592830658
1773798640414489000,2.643489013671875,-0.021579327061772346,-0.07334558665752411,-0.06723523139953613
1773798640434451000,2.663450927734375,-0.012297146022319794,-0.018017882481217384,-0.031614650040864944
1773798640454413800,2.683413818359375,-0.008941829204559326,0.07687001675367355,-0.05928569287061691
1773798640474376000,2.7033759765625,0.0044048684649169445,0.18788307905197144,-0.14086391031742096
1773798640494339000,2.723339111328125,0.029314478859305382,0.1322626918554306,-0.1266748607158661
1773798640514301000,2.743301025390625,0.02370266616344452,0.06290919333696365,-0.0899842157959938
1773798640534263800,2.763263916015625,-0.005952164996415377,-0.010964767076075077,-0.05180380865931511
1773798640554226000,2.783225830078125,-0.016389092430472374,-0.10525105148553848,0.03730076551437378
1773798640574188000,2.80318798828125,-0.0022154836915433407,-0.11897751688957214,0.08240805566310883
1773798640594151000,2.82315087890625,0.03117869235575199,-0.06670526415109634,0.055325306951999664
1773798640614112800,2.84311279296875,0.03530073165893555,0.01028619334101677,-0.014901984483003616
1773798640634076000,2.863075927734375,0.005803028121590614,0.07703140377998352,-0.05607312172651291
1773798640654038000,2.8830380859375,0.00039015308720991015,0.06819130480289459,-0.01098394114524126
1773798640674001000,2.9030009765625,0.023142604157328606,0.035223234444856644,0.01625726744532585
1773798640693962800,2.922962646484375,0.05920793116092682,-0.00999457761645317,-0.04482845589518547
1773798640713926000,2.94292578125,0.0741109773516655,-0.06429722905158997,-0.07056071609258652
1773798640733888000,2.962887939453125,0.05252818763256073,-0.013247362338006496,-0.047210123389959335
1773798640753851000,2.982850830078125,0.04182787239551544,0.10747931897640228,-0.0320143923163414
1773798640773813000,3.00281298828125,0.03796416148543358,0.1206265464425087,-0.0016399745363742113
1773798640793776000,3.022776123046875,0.04843571037054062,0.0036605149507522583,0.06851115077733994
1773798640813738000,3.042738037109375,0.04109683632850647,-0.0754966214299202,0.0830077975988388
1773798640833700900,3.062700927734375,0.01660933718085289,-0.10126297175884247,0.009880327619612217
1773798640853663000,3.0826630859375,-0.0024104269687086344,-0.09375391900539398,-0.03813619911670685
1773798640873626000,3.102626220703125,-0.02147280052304268,-0.07014233618974686,-0.03079865872859955
1773798640893587700,3.122587646484375,-0.027223898097872734,-0.06228547915816307,-0.009517072699964046
1773798640913550800,3.14255078125,-0.03422641381621361,-0.04940962791442871,0.024216655641794205
1773798640933513000,3.162512939453125,-0.0335632860660553,-0.0549311600625515,0.04120442643761635
1773798640953475000,3.18247509765625,-0.012354670092463493,-0.07994436472654343,0.03574521467089653
1773798640973438000,3.20243798828125,0.009403621777892113,-0.0690416544675827,-0.009044361300766468
1773798640993399800,3.22239990234375,0.025900838896632195,0.006592921447008848,-0.040040094405412674
1773798641013362200,3.242362060546875,0.04067925363779068,0.028971729800105095,-0.014702512882649899
1773798641033324300,3.26232421875,0.04587161913514137,-0.014028733596205711,0.03627331927418709
1773798641053287200,3.282287109375,0.03147163987159729,-0.03357207402586937,0.06593108177185059
1773798641073249000,3.3022490234375,0.013549364171922207,-0.05523742362856865,0.08032014220952988
1773798641093212200,3.322212158203125,0.00043995422311127186,-0.0904683768749237,0.07547744363546371
1773798641113174300,3.34217431640625,-0.015483085997402668,-0.07050878554582596,0.02587021328508854
1773798641133137200,3.36213720703125,-0.017190704122185707,-0.05842922255396843,0.032408539205789566
1773798641153099000,3.38209912109375,0.01215466670691967,-0.05266880244016647,0.11234624683856964
1773798641173062100,3.402062255859375,0.03261946141719818,0.02761485055088997,0.13941462337970734
1773798641193024300,3.422024169921875,0.04856513813138008,0.10304036736488342,0.1343735158443451
1773798641212987100,3.441987060546875,0.06262050569057465,0.09862884134054184,0.11744726449251175
1773798641232949200,3.46194921875,0.07254450768232346,0.05374232307076454,0.11052011698484421
1773798641252912400,3.481912353515625,0.10805589705705643,-0.019581690430641174,0.16023175418376923
1773798641272874200,3.501874267578125,0.10518127679824829,-0.007803328335285187,0.10788678377866745
1773798641292837000,3.521837158203125,0.09027956426143646,0.01649481989443302,-0.011336278170347214
1773798641312799200,3.54179931640625,0.064788319170475,-0.04525083675980568,-0.018341457471251488
1773798641332761000,3.561760986328125,0.03537743166089058,-0.03099839575588703,0.07606866955757141
1773798641352724000,3.581723876953125,0.011329353787004948,0.0422917976975441,0.16431410610675812
1773798641372686000,3.60168603515625,0.0029640982393175364,0.036868270486593246,0.16695863008499146
1773798641392649200,3.621649169921875,0.004491687286645174,-0.031560856848955154,0.09517232328653336
1773798641412611300,3.641611328125,0.013951235450804234,-0.12487135827541351,0.05541026219725609
1773798641432574200,3.66157421875,0.049253564327955246,-0.11577826738357544,0.06424423307180405
1773798641452536000,3.6815361328125,0.07813102006912231,-0.06204366311430931,0.09510334581136703
1773798641472499200,3.701499267578125,0.06979505717754364,0.0021145499777048826,0.11015260219573975
1773798641492461300,3.72146142578125,0.058093130588531494,0.045107025653123856,0.1464802473783493
1773798641512424200,3.741424072265625,0.046790141612291336,0.0372975692152977,0.16370557248592377
1773798641532386000,3.761385986328125,0.0450657457113266,0.031268175691366196,0.12673237919807434
1773798641552349200,3.78134912109375,0.043182358145713806,0.07501405477523804,0.08029484003782272
1773798641572311000,3.80131103515625,0.03934980183839798,0.11204744130373001,0.07694671303033829
1773798641592274200,3.821274169921875,0.01780749298632145,0.06073285639286041,0.13244912028312683
1773798641612236300,3.841236328125,0.007725031115114689,0.06642536073923111,0.09740591794252396
1773798641632199200,3.86119921875,-0.00401578051969409,0.15004488825798035,-0.05735277011990547
1773798641652161000,3.8811611328125,-0.009905361570417881,0.16006290912628174,-0.1465100795030594
1773798641672124200,3.901124267578125,-0.034996867179870605,0.11161255091428757,-0.11108524352312088
1773798641692086300,3.921086181640625,-0.05155560374259949,0.10372346639633179,-0.041492581367492676
1773798641712048000,3.941048095703125,-0.060980796813964844,0.06697370857000351,-0.003620301140472293
1773798641732011000,3.961010986328125,-0.002186455298215151,-0.0020096213556826115,0.04315146431326866
1773798641751973000,3.98097314453125,0.052988383919000626,-0.018629077821969986,0.06449323892593384
1773798641771936300,4.000936279296875,0.08186743408441544,0.034396588802337646,0.0315810963511467
1773798641791898400,4.0208984375,0.06460482627153397,0.020717795938253403,0.00891093723475933
1773798641811861200,4.040861328125,0.015921441838145256,0.03376728296279907,-0.008711998350918293
1773798641831823000,4.060822998046875,-0.032040491700172424,0.05284057930111885,-0.018978483974933624
1773798641851786200,4.0807861328125,-0.038474954664707184,-0.0009542105835862458,0.004496481269598007
1773798641871748000,4.100748046875,-0.04325692728161812,-0.021515412256121635,-0.014823420904576778
1773798641891711200,4.120711181640625,-0.06084178015589714,0.013027384877204895,-0.06070142984390259
1773798641911673000,4.140673095703125,-0.04694487154483795,0.023023027926683426,-0.059960540384054184
1773798641931636000,4.160635986328125,-0.014607172459363937,0.00529596209526062,-0.025955701246857643
1773798641951598000,4.18059814453125,0.011659319512546062,-0.0030013825744390488,-0.02846280112862587
1773798641971561200,4.200561279296875,0.00672155199572444,-0.020265590399503708,-0.04820800945162773
1773798641991523300,4.2205234375,-0.002481799805536866,-0.06321598589420319,-0.044202081859111786
1773798642011486500,4.240486572265625,-0.0027353328187018633,-0.17367565631866455,0.00010226538870483637
1773798642031448300,4.2604482421875,-0.013157080858945847,-0.21515785157680511,0.0049308426678180695
1773798642051411500,4.280411376953125,-0.040474455803632736,-0.2116219699382782,-0.03557717055082321
1773798642071373600,4.30037353515625,-0.046179212629795074,-0.24523025751113892,-0.03249242901802063
1773798642091335400,4.32033544921875,-0.057494450360536575,-0.17598247528076172,-0.009394566528499126
1773798642111298300,4.34029833984375,-0.08807526528835297,0.03397900611162186,-0.03332040458917618
1773798642131260400,4.360260498046875,-0.06504184752702713,0.1946520358324051,-0.03693964332342148
1773798642151223300,4.380223388671875,0.021976672112941742,0.18176233768463135,-0.04860801622271538
1773798642171185400,4.400185302734375,0.08648242801427841,0.05994376167654991,-0.1028566062450409
1773798642191148500,4.4201484375,0.07622819393873215,0.021460551768541336,-0.12881363928318024
1773798642211110400,4.4401103515625,0.02473490685224533,0.06739369034767151,-0.07301907986402512
1773798642231073300,4.4600732421875,-0.022112758830189705,0.10728411376476288,-0.01028779149055481
1773798642251035400,4.480035400390625,-0.043956272304058075,0.06234966218471527,0.02624358795583248
1773798642270998500,4.49999853515625,-0.027106186375021935,0.011847871355712414,0.071962870657444
1773798642290960400,4.51996044921875,0.003602457931265235,0.07617519795894623,0.05214948579668999
1773798642310923300,4.53992333984375,0.029379993677139282,0.14272013306617737,-0.04658161476254463
1773798642330885400,4.559885498046875,0.02430613897740841,0.0745788961648941,-0.08464058488607407
1773798642350848500,4.5798486328125,-0.002757703186944127,-0.0182314682751894,-0.02389015257358551
1773798642370810600,4.599810546875,-0.00018242653459310532,-0.08322298526763916,0.04289766773581505
1773798642390773500,4.6197734375,0.012120578438043594,-0.12050697207450867,0.03278191387653351
1773798642410735400,4.6397353515625,0.01486416719853878,-0.1492888182401657,-0.014706241898238659
1773798642430698500,4.659698486328125,-0.006993194576352835,-0.09947572648525238,-0.04110615700483322
1773798642450660400,4.679660400390625,-0.02147839404642582,-0.007662447169423103,-0.023358851671218872
1773798642470622200,4.699622314453125,-0.011505921371281147,0.029083050787448883,0.014593590050935745
1773798642490585300,4.71958544921875,0.02153565175831318,-0.05037156119942665,0.04867060109972954
1773798642510547500,4.73954736328125,0.03471110761165619,-0.1761297583580017,0.027453728020191193
1773798642530510300,4.75951025390625,-0.0022956449538469315,-0.13443104922771454,-0.032219454646110535
1773798642550472400,4.779472412109375,-0.036670662462711334,-0.033128127455711365,0.006671485025435686
1773798642570435600,4.799435546875,-0.005604356061667204,-0.025886990129947662,0.059116315096616745
1773798642590397400,4.8193974609375,0.03750636428594589,-0.09272248297929764,-0.003870638320222497
1773798642610360300,4.8393603515625,0.03671620413661003,-0.1335303634405136,-0.039443545043468475
1773798642630322400,4.859322509765625,0.02467764914035797,-0.034691669046878815,-0.011323228478431702
1773798642650285600,4.87928564453125,0.023317040875554085,0.019110843539237976,-0.021016335114836693
1773798642670247400,4.899247314453125,0.023907730355858803,-0.05012095719575882,-0.06156669184565544
1773798642690210300,4.919210205078125,0.006603574380278587,-0.18216021358966827,-0.047751810401678085
1773798642710172400,4.93917236328125,-0.022216621786355972,-0.23283430933952332,0.02780047245323658
1773798642730135600,4.959135498046875,-0.037460822612047195,-0.15315786004066467,0.025125060230493546
1773798642750097400,4.979097412109375,-0.024399349465966225,-0.10701726377010345,-0.014829013496637344
1773798642770060300,4.999060302734375,-0.015111042186617851,-0.05378786474466324,-0.014926218427717686
1773798642790022400,5.0190224609375,-0.013826599344611168,0.0029933929909020662,-0.00902944803237915
1773798642809985300,5.0389853515625,-0.0023278691805899143,-0.0018578211311250925,-0.0464138388633728
1773798642829947400,5.058947509765625,0.00791358295828104,-0.033845581114292145,-0.08281552046537399
1773798642849909200,5.0789091796875,-0.001757952617481351,-0.01793399266898632,-0.07702048122882843
1773798642869872400,5.098872314453125,-0.01811721920967102,0.04259459674358368,-0.04982481524348259
1773798642889834500,5.11883447265625,-0.018939336761832237,0.06698169559240341,-0.011611116118729115
1773798642909797400,5.13879736328125,0.01525778230279684,0.015895342454314232,0.01631186157464981
1773798642929759500,5.158759521484375,0.04373203590512276,-0.022285597398877144,0.01212617103010416
1773798642949722600,5.17872265625,0.04384894669055939,0.04071706905961037,-0.010901383124291897
1773798642969684500,5.1986845703125,0.02756531536579132,0.10937096178531647,-0.04561888426542282
1773798642989647400,5.2186474609375,0.015087872743606567,0.10217750072479248,-0.06583786755800247
1773798643009609700,5.238609619140625,-0.01750309392809868,0.04928259551525116,-0.0649624913930893
1773798643029572600,5.258572509765625,-0.03062768466770649,-0.016561400145292282,-0.029264943674206734
1773798643049534500,5.278534423828125,-0.01727752387523651,-0.009986587800085545,-0.014795724302530289
1773798643069497600,5.29849755859375,-0.004141215234994888,0.028491828590631485,-0.058403920382261276
1773798643089459700,5.318459716796875,-0.0012034825049340725,0.0453171469271183,-0.09652067720890045
1773798643109422600,5.338422607421875,-0.014614362269639969,0.024959677830338478,-0.08652637153863907
1773798643129384700,5.358384765625,-0.012315255589783192,-0.006701045669615269,-0.038123417645692825
1773798643149347800,5.378347900390625,-0.006219279952347279,-0.03183675929903984,-0.043902743607759476
1773798643169309700,5.398309814453125,-0.009981527924537659,-0.0378994457423687,-0.10298363864421844
1773798643189272600,5.4182724609375,-0.011239605024456978,-0.02209065482020378,-0.10904126614332199
1773798643209234700,5.438234619140625,0.007351922336965799,-0.004978246986865997,-0.06240691989660263
1773798643229197800,5.45819775390625,0.00018881811411119998,-0.018147844821214676,-0.0671532079577446
1773798643249159700,5.47815966796875,-0.01673157513141632,0.020622188225388527,-0.12295734882354736
1773798643269121500,5.49812158203125,-0.04018363729119301,0.07576746493577957,-0.1449899524450302
1773798643289084700,5.518084716796875,-0.04189152270555496,0.055817458778619766,-0.10654162615537643
1773798643309046800,5.538046875,-0.03166471794247627,0.05525233596563339,-0.03942330554127693
1773798643329009700,5.558009765625,-0.028016719967126846,0.12682479619979858,-0.05156891793012619
1773798643348971500,5.577971435546875,0.008465123362839222,0.05028873682022095,-0.05607738345861435
1773798643368934700,5.5979345703125,0.026756778359413147,0.03200986608862877,-0.025405224412679672
1773798643388896800,5.617896728515625,-0.009859820827841759,0.016388826072216034,0.07583564519882202
1773798643408859600,5.637859619140625,-0.025485651567578316,-0.1363447904586792,0.19312232732772827
1773798643428821500,5.657821533203125,-0.02767716720700264,-0.27654796838760376,0.1754959225654602
1773798643448784600,5.67778466796875,-0.00788508728146553,-0.3027878403663635,0.06284128129482269
1773798643468746800,5.697746826171875,0.0162426196038723,-0.19555965065956116,-0.0410986989736557
1773798643488709600,5.717709716796875,0.07290057092905045,-0.10980799049139023,-0.05795624479651451
1773798643508671700,5.737671630859375,0.10932009667158127,0.07589476555585861,-0.11548744887113571
1773798643528635000,5.757634765625,0.05856424197554588,0.2756616771221161,-0.1789226084947586
1773798643548596700,5.7775966796875,-0.013029249384999275,0.22047485411167145,-0.11272681504487991
1773798643568559600,5.7975595703125,-0.01563648320734501,-0.06883685290813446,-0.013222594745457172
1773798643588521700,5.817521728515625,-0.0024743429385125637,-0.2832053303718567,0.019293803721666336
1773798643608484900,5.83748486328125,-0.01677844673395157,-0.18823941051959991,-0.04649266600608826
1773798643628446500,5.857446533203125,-0.0504666343331337,-0.013932326808571815,-0.13235777616500854
1773798643648409600,5.87740966796875,-0.036616601049900055,0.13027118146419525,-0.1335468739271164
1773798643668371700,5.897371826171875,-0.01811535470187664,0.21216152608394623,-0.11856632679700851
1773798643688333800,5.917333740234375,0.04968339949846268,0.19947449862957,-0.11640197783708572
1773798643708296700,5.937296630859375,0.0674474835395813,0.15554697811603546,-0.12107795476913452
1773798643728258600,5.957258544921875,0.06147854030132294,0.41995999217033386,-0.1456163227558136
1773798643748221700,5.9772216796875,0.09418562054634094,0.5575676560401917,-0.19525951147079468
1773798643768183800,5.997183837890625,0.1454986035823822,0.264389306306839,-0.1655852347612381
1773798643788146700,6.017146728515625,0.1317247450351715,0.03139147907495499,-0.16071298718452454
1773798643808108500,6.037108642578125,0.10601431876420975,-0.028625786304473877,-0.20507033169269562
1773798643828071700,6.05707177734375,0.07563723623752594,-0.06346739083528519,-0.23416642844676971
1773798643848033800,6.07703369140625,0.024055534973740578,-0.09612759947776794,-0.21136391162872314
1773798643867996700,6.09699658203125,-0.013105682097375393,-0.06979931890964508,-0.13498178124427795
1773798643887958800,6.116958740234375,-0.043168243020772934,-0.018697787076234818,-0.07154342532157898
1773798643907921700,6.136921630859375,-0.046544332057237625,0.07739705592393875,-0.07697760313749313
1773798643927883500,6.156883544921875,0.00199284334667027,0.24530616402626038,-0.13060221076011658
1773798643947846700,6.1768466796875,0.06938093900680542,0.43785005807876587,-0.2047502100467682
1773798643967808800,6.196808837890625,0.11373242735862732,0.5379881262779236,-0.22538305819034576
1773798643987771600,6.216771728515625,0.15677496790885925,0.5229737162590027,-0.08898499608039856
1773798644007733800,6.236733642578125,0.18802236020565033,0.3844483494758606,0.09570948034524918
1773798644027697000,6.25669677734375,0.14142318069934845,0.15217489004135132,0.15382817387580872
1773798644047658800,6.27665869140625,0.13341984152793884,0.15528225898742676,0.015194931998848915
1773798644067621600,6.29662158203125,0.17366179823875427,0.4174555540084839,-0.25333771109580994
1773798644087583700,6.316583740234375,0.1776357740163803,0.6470575928688049,-0.4748682379722595
1773798644107547000,6.336546875,0.1224212497472763,0.6143872737884521,-0.4863009452819824
1773798644127509000,6.356509033203125,0.08564939349889755,0.29779067635536194,-0.28897881507873535
1773798644147470600,6.376470703125,0.0877399742603302,-0.08326319605112076,-0.1332978755235672
1773798644167433700,6.396433837890625,0.04254373162984848,-0.21632324159145355,-0.09373234957456589
1773798644187395800,6.416395751953125,0.019291672855615616,-0.11590476334095001,-0.02780712954699993
1773798644207358700,6.436358642578125,-0.04477998986840248,0.10987430065870285,0.07410752028226852
1773798644227320800,6.45632080078125,-0.19261738657951355,0.32328298687934875,0.20668606460094452
1773798644247283700,6.47628369140625,-0.35554957389831543,0.4473961591720581,0.43419885635375977
1773798644267245800,6.496245849609375,-0.4378891885280609,0.31128785014152527,0.6934237480163574
1773798644287208700,6.516208740234375,-0.4817866086959839,0.14958177506923676,0.7856135964393616
1773798644307170800,6.5361708984375,-0.41515353322029114,-0.14211612939834595,0.7713057994842529
1773798644327134000,6.556134033203125,-0.3880196511745453,-0.01079618837684393,0.7611942887306213
1773798644347095800,6.576095703125,-0.34499040246009827,-0.04073198512196541,0.7801711559295654
1773798644367058700,6.59605859375,0.032830383628606796,-1.1802016496658325,0.7723321318626404
1773798644387020800,6.616020751953125,0.3905821442604065,-1.1235194206237793,-0.10667824000120163
1773798644406984000,6.63598388671875,0.17597635090351105,0.17688289284706116,-0.6876713037490845
1773798644426945800,6.65594580078125,0.025465145707130432,0.5975561141967773,-0.6002464294433594
1773798644446908700,6.67590869140625,-0.0537756122648716,0.1104748472571373,-0.230333611369133
1773798644466870800,6.695870849609375,-0.019423766061663628,-0.578530490398407,0.04757817089557648
1773798644486834000,6.715833984375,0.0720912367105484,-0.8470314145088196,0.12601332366466522
1773798644506795800,6.735795654296875,0.017358750104904175,-1.054024577140808,0.18468250334262848
1773798644526759000,6.755759033203125,-0.10889638960361481,-1.1522765159606934,0.2672325074672699
1773798644546720800,6.775720703125,-0.26905596256256104,-0.8958309292793274,0.45001670718193054
1773798644566683600,6.79568359375,-0.32601726055145264,-0.3940921723842621,0.5029456615447998
1773798644586645800,6.815645751953125,-0.03159920498728752,0.35593122243881226,0.18742448091506958
1773798644606609000,6.83560888671875,0.19368238747119904,0.6731794476509094,-0.21557623147964478
1773798644626570800,6.85557080078125,0.3245304226875305,0.4491024315357208,-0.3731493353843689
1773798644646533600,6.87553369140625,0.27196574211120605,0.1992872655391693,-0.3033215403556824
1773798644666495700,6.895495849609375,0.10375888645648956,0.0928226113319397,-0.06473079323768616
1773798644686457900,6.915457763671875,-0.038238730281591415,0.1616581380367279,0.11958765238523483
1773798644706421000,6.9354208984375,-0.14401309192180634,0.33249858021736145,0.06558806449174881
1773798644726382800,6.9553828125,-0.24490855634212494,0.38238412141799927,-0.016584303230047226
1773798644746345700,6.975345703125,-0.2932260036468506,0.14010171592235565,-0.025987658649683
1773798644766307800,6.995307861328125,-0.24257083237171173,-0.07993584126234055,-0.12532809376716614
1773798644786271000,7.01527099609375,-0.18225742876529694,-0.26893797516822815,-0.235958993434906
1773798644806232600,7.035232666015625,-0.08646005392074585,-0.4095715284347534,-0.2675837576389313
1773798644826195700,7.05519580078125,-0.003546797903254628,-0.2649078369140625,-0.24242861568927765
1773798644846157800,7.07515771484375,0.06871061772108078,0.19016994535923004,-0.136117622256279
1773798644866120700,7.09512060546875,0.1284266859292984,0.5060077905654907,-0.0067777447402477264
1773798644886082800,7.115082763671875,0.18110081553459167,0.42739659547805786,-0.02436179853975773
1773798644906045700,7.135045654296875,0.22251670062541962,0.1550673395395279,-0.14556226134300232
1773798644926007800,7.1550078125,0.17492413520812988,-0.08633621782064438,-0.22409728169441223
1773798644945970700,7.174970703125,0.05745556950569153,-0.2511400878429413,-0.13428270816802979
1773798644965932800,7.194932861328125,-0.019178221002221107,-0.22514842450618744,0.003153981640934944
1773798644985896000,7.21489599609375,-0.06024656072258949,-0.12711188197135925,0.053583335131406784
1773798645005857000,7.23485693359375,-0.038829952478408813,-0.08741267025470734,0.06305140256881714
1773798645025820000,7.25481982421875,0.02022058330476284,-0.01739496923983097,0.005771336145699024
1773798645045782000,7.274781982421875,0.048716139048337936,0.06706292182207108,-0.05499933660030365
1773798645065745200,7.2947451171875,0.051832303404808044,0.11492685228586197,-0.05192951112985611
1773798645085707300,7.314707275390625,0.04369421675801277,0.12386974692344666,-0.02081260457634926
1773798645105670000,7.334669921875,0.050706587731838226,0.11009960621595383,-0.018366489559412003
1773798645125632000,7.354632080078125,0.05542277917265892,0.05259210616350174,-0.028295287862420082
1773798645145595100,7.37459521484375,0.02436526119709015,-0.07291734963655472,-0.04669107124209404
1773798645165557200,7.39455712890625,-0.030657777562737465,-0.18603618443012238,-0.030894799157977104
1773798645185520000,7.41452001953125,-0.03327539935708046,-0.2137381136417389,0.04415041580796242
1773798645205482000,7.43448193359375,-0.03954794257879257,-0.11576627939939499,0.06673642247915268
1773798645225445000,7.454445068359375,-0.024879517033696175,-0.022827018052339554,0.032340362668037415
1773798645245407200,7.4744072265625,-0.00965662207454443,-0.02853204309940338,0.002142513170838356
1773798645265370000,7.4943701171875,-0.004772384651005268,-0.07516852021217346,-0.016717728227376938
1773798645285332200,7.514332275390625,-0.017078053206205368,-0.08881615847349167,-0.03322187066078186
1773798645305294000,7.534294189453125,-0.019569439813494682,-0.0672895610332489,-0.023662984371185303
1773798645325257000,7.554257080078125,-0.0028479844331741333,-0.029760025441646576,-0.02022138237953186
1773798645345219000,7.574218994140625,0.020895428955554962,-0.0054357778280973434,-0.03964567929506302
1773798645365182200,7.59418212890625,0.036923397332429886,0.012603675946593285,-0.04968739673495293
1773798645385144000,7.61414404296875,0.0347803495824337,0.004144677426666021,-0.03941052407026291
1773798645405107000,7.63410693359375,0.014910772442817688,0.04272589087486267,-0.023610254749655724
1773798645425069000,7.654069091796875,0.020302874967455864,0.12945812940597534,-0.007772169075906277
1773798645445032200,7.6740322265625,0.030377879738807678,0.20856305956840515,-0.03701367601752281
1773798645464994300,7.693994384765625,0.026750121265649796,0.15688948333263397,-0.062189072370529175
1773798645484957000,7.71395703125,0.0159483402967453,-0.011183944530785084,-0.006850183010101318
1773798645504919000,7.7339189453125,0.023679496720433235,-0.1610754430294037,0.05199262872338295
1773798645524882200,7.753882080078125,0.052373457700014114,-0.20265111327171326,0.07232639193534851
1773798645544844000,7.773843994140625,0.06647196412086487,-0.15803810954093933,0.08831601589918137
1773798645564807200,7.79380712890625,0.01846582628786564,-0.07215329259634018,0.07857123762369156
1773798645584769000,7.81376904296875,-0.04469210281968117,0.024168185889720917,0.03887416049838066
1773798645604732200,7.833732177734375,-0.06922327727079391,0.024778051301836967,-0.016809606924653053
1773798645624694000,7.853694091796875,-0.05764039233326912,-0.09300664067268372,-0.05216333642601967
1773798645644657200,7.8736572265625,-0.03683870658278465,-0.17815828323364258,-0.052566803991794586
1773798645664619000,7.893618896484375,-0.02382384054362774,-0.11559956520795822,-0.004019775427877903
1773798645684582000,7.913581787109375,-0.00993305817246437,-0.02821885421872139,0.02528112195432186
1773798645704544000,7.9335439453125,-0.0014860439114272594,0.0016176040517166257,-0.04364122077822685
1773798645724507100,7.953507080078125,0.008266185410320759,-0.05572531372308731,-0.08737112581729889
1773798645744469200,7.97346923828125,0.02749820239841938,-0.06430815160274506,-0.059247344732284546
1773798645764432100,7.99343212890625,0.022174810990691185,-0.008590292185544968,-0.01901976391673088
1773798645784394000,8.01339404296875,0.002772350562736392,-0.03331481292843819,0.010143181309103966
1773798645804357000,8.033357177734375,-0.004525509662926197,-0.04392484575510025,-0.017283115535974503
1773798645824319200,8.0533193359375,-0.011237740516662598,-0.011002849787473679,-0.08559000492095947
1773798645844282000,8.0732822265625,-0.020472783595323563,-0.026075541973114014,-0.09622400254011154
1773798645864244000,8.093243896484376,-0.027220701798796654,-0.06417126208543777,-0.028686771169304848
1773798645884207000,8.11320703125,-0.023901604115962982,-0.05764944851398468,0.018820559605956078
1773798645904169000,8.1331689453125,-0.01823386549949646,-0.0881410464644432,0.01420263759791851
1773798645924132000,8.153132080078125,0.012408732436597347,-0.15744102001190186,0.03786935284733772
1773798645944094200,8.17309423828125,0.030128074809908867,-0.12843520939350128,0.06351106613874435
1773798645964057000,8.19305712890625,0.014357633888721466,-0.030883880332112312,0.0527803897857666
1773798645984019000,8.21301904296875,0.0032985913567245007,0.008703476749360561,0.0299065001308918
1773798646003982800,8.23298291015625,0.013746438547968864,0.021264275535941124,0.007278951816260815
1773798646023945000,8.252945068359375,0.032339565455913544,0.07536106556653976,0.03123834729194641
1773798646043906800,8.27290673828125,0.040698159486055374,0.13501881062984467,0.13213060796260834
1773798646063869700,8.29286962890625,0.057976216077804565,0.21393439173698425,0.25198325514793396
1773798646083831800,8.312831787109374,0.08318330347537994,0.2585678994655609,0.26880988478660583
1773798646103794700,8.332794677734375,0.1204981878399849,0.1557786762714386,0.18852756917476654
1773798646123756800,8.3527568359375,0.11204211413860321,0.024633441120386124,0.07764951884746552
1773798646143720000,8.372719970703125,0.06546130031347275,-0.07748547196388245,-0.020236296579241753
1773798646163681800,8.392681884765626,0.01697605475783348,-0.13579991459846497,-0.06167348474264145
1773798646183644700,8.412644775390625,-0.02587234415113926,-0.13572107255458832,-0.06127374246716499
1773798646203606800,8.432606689453126,-0.050571564584970474,-0.06282690167427063,-0.024690965190529823
1773798646223570000,8.45256982421875,-0.033667415380477905,0.020326044410467148,0.06006094068288803
1773798646243531800,8.47253173828125,0.009384979493916035,0.04176901653409004,0.11259711533784866
1773798646263494700,8.49249462890625,-0.003335342975333333,0.10523587465286255,0.10983728617429733
1773798646283456800,8.512456787109375,-0.014682806096971035,0.31897106766700745,0.13618314266204834
1773798646303420000,8.532419921875,-0.008186290971934795,0.4779364764690399,0.175789937376976
1773798646323382000,8.552382080078125,0.017916416749358177,0.4523887634277344,0.17664667963981628
1773798646343344600,8.5723447265625,0.06658515334129333,0.2961967885494232,0.1613883525133133
1773798646363306800,8.592306640625,0.10366460680961609,0.15761706233024597,0.14720329642295837
1773798646383270000,8.612269775390626,0.09084122627973557,0.10722765326499939,0.09280077368021011
1773798646403231700,8.632231689453125,0.08185598254203796,0.07650010287761688,0.03532496839761734
1773798646423195000,8.65219482421875,0.08242323994636536,0.016084427013993263,0.05065438896417618
1773798646443156700,8.67215673828125,0.07650569081306458,-0.024447552859783173,0.10455623269081116
1773798646463120000,8.692119873046876,0.060200221836566925,-0.02965776063501835,0.1597619652748108
1773798646483081700,8.712081787109375,0.07038708031177521,-0.016393354162573814,0.19779403507709503
1773798646503044900,8.732044921875,0.07727321982383728,-0.009011072106659412,0.1663263887166977
1773798646523006700,8.7520068359375,0.06647436320781708,-0.021462148055434227,0.09263113141059875
1773798646542969600,8.771969482421875,0.066329225897789,-0.05462782457470894,0.07377089560031891
1773798646562931700,8.791931640625,0.06945923715829849,-0.09150035679340363,0.10789104551076889
1773798646582894800,8.811894775390625,0.07360205054283142,-0.08064797520637512,0.1030624657869339
1773798646602857000,8.83185693359375,0.0869695171713829,-0.04856380820274353,0.0788857638835907
1773798646622819800,8.85181982421875,0.07290136814117432,-0.04241829738020897,0.06584745645523071
1773798646642781700,8.87178173828125,0.03117975778877735,-0.04282815754413605,0.07687453925609589
1773798646662744800,8.891744873046875,-0.025016136467456818,-0.02996215969324112,0.07736189663410187
1773798646682707000,8.91170703125,-0.07566999644041061,-0.012408466078341007,0.05445019155740738
1773798646702669800,8.931669921875,-0.08277343958616257,0.031803734600543976,0.05023866891860962
1773798646722631700,8.951631591796875,-0.03750423341989517,0.05982764810323715,0.0798005536198616
1773798646742594800,8.9715947265625,0.03147989511489868,0.06519391387701035,0.05245894566178322
1773798646762556700,8.991556640625,0.05386083573102951,0.11467811465263367,-0.0746593251824379
1773798646782519800,9.011519775390624,0.041725341230630875,0.17082686722278595,-0.15972495079040527
1773798646802482000,9.03148193359375,-0.006609699688851833,0.17877747118473053,-0.10058759152889252
1773798646822444800,9.05144482421875,-0.028248149901628494,0.094301737844944,0.029741916805505753
1773798646842406700,9.07140673828125,-0.001130245509557426,-0.07747375220060349,0.07022809237241745
1773798646862369800,9.091369873046874,0.03608982637524605,-0.18299724161624908,0.017612017691135406
1773798646882332000,9.111331787109375,0.03525332733988762,-0.1553318053483963,-0.04008776322007179
1773798646902294800,9.131294677734376,0.010731207206845284,-0.06078585237264633,-0.04099031165242195
1773798646922256600,9.151256591796875,-0.0031252196058630943,-0.039853937923908234,0.017544372007250786
1773798646942219800,9.1712197265625,-0.030044717714190483,-0.0747557282447815,0.056595370173454285
1773798646962182000,9.191181884765625,-0.04653554409742355,-0.09676409512758255,0.029813023284077644
1773798646982144800,9.211144775390625,-0.05332527309656143,-0.09741656482219696,-0.04394162446260452
1773798647002107000,9.23110693359375,-0.05916318669915199,-0.046712376177310944,-0.12385749816894531
1773798647022069800,9.25106982421875,-0.05992112308740616,-0.0037326866295188665,-0.14911997318267822
1773798647042031900,9.271031982421874,-0.058451324701309204,0.0128145981580019,-0.09293340146541595
1773798647061994800,9.290994873046875,-0.01673503778874874,0.0008423578692600131,0.002406965009868145
1773798647081956900,9.310956787109374,0.024572188034653664,0.04554564878344536,0.01829059049487114
1773798647101920000,9.330919921875,0.03923768177628517,0.1131659671664238,-0.02382384054362774
1773798647121881600,9.350881591796876,0.033913757652044296,0.08304588496685028,-0.04033038020133972
1773798647141844700,9.3708447265625,0.00908670574426651,0.02491067536175251,-0.027830032631754875
1773798647161806800,9.390806884765626,-0.01914280094206333,0.03322213515639305,-0.02947959490120411
1773798647181769700,9.410769775390625,-0.03573136404156685,0.020775320008397102,-0.039932768791913986
1773798647201731600,9.430731689453125,-0.02895442023873329,-0.02635064721107483,0.0089365029707551
1773798647221694700,9.45069482421875,-0.03548475727438927,0.06034776195883751,0.04144437983632088
1773798647241656800,9.47065673828125,-0.028727518394589424,0.20287401974201202,0.0014343785587698221
1773798647261619700,9.49061962890625,-0.012036423198878765,0.17476968467235565,-0.05523449182510376
1773798647281581800,9.510581787109375,-0.006975617725402117,0.052976131439208984,-0.08312604576349258
1773798647301545000,9.530544921875,-0.019470904022455215,0.009131712839007378,-0.09104495495557785
1773798647321506800,9.5505068359375,-0.015444203279912472,-0.048291631042957306,-0.09713374078273773
1773798647341469700,9.5704697265625,-0.0016524913953617215,-0.1237802654504776,-0.09033548831939697
1773798647361431800,9.590431884765625,-0.016443688422441483,-0.09086093306541443,-0.10301639884710312
1773798647381395000,9.61039501953125,-0.06078771501779556,0.0156500656157732,-0.12436402589082718
1773798647401356800,9.630356689453125,-0.09160927683115005,0.03470897674560547,-0.0868544727563858
1773798647421319700,9.650319580078126,-0.08941510319709778,-0.030647125095129013,-0.059969592839479446
1773798647441281800,9.67028173828125,-0.06393051147460938,-0.07200761139392853,-0.08836688101291656
1773798647461245000,9.690244873046876,-0.05128609016537666,-0.08401314169168472,-0.11305491626262665
1773798647481206800,9.710206787109374,-0.03618090599775314,-0.06102686747908592,-0.10855843126773834
1773798647501169700,9.730169677734375,-0.0032463932875543833,-0.004147074185311794,-0.0891229510307312
1773798647521131800,9.7501318359375,0.02509869448840618,0.020119648426771164,-0.06592895090579987
1773798647541094700,9.7700947265625,0.024577515199780464,0.017292970791459084,-0.03512389957904816
1773798647561056800,9.790056884765624,-0.005106078926473856,0.015811454504728317,-0.021437380462884903
1773798647581020000,9.81002001953125,-0.03280029073357582,-0.012153069488704205,-0.041064612567424774
1773798647600981800,9.829981689453126,-0.022338595241308212,-0.029956301674246788,-0.04914597421884537
1773798647620944600,9.849944580078125,0.01635979861021042,-0.035902608186006546,-0.022586269304156303
1773798647640906800,9.86990673828125,0.025014540180563927,-0.019588615745306015,-0.0030895331874489784
1773798647660870000,9.889869873046875,0.006539658177644014,-0.00629038643091917,-0.03051929362118244
1773798647680832000,9.90983203125,-0.020656010136008263,-0.02255910448729992,-0.09866932034492493
1773798647700794600,9.929794677734375,-0.020254671573638916,-0.06932581216096878,-0.12226492911577225
1773798647720756700,9.9497568359375,-0.020313793793320656,-0.14215287566184998,-0.09242527186870575
1773798647740719900,9.969719970703125,-0.03098214976489544,-0.17217549681663513,-0.10216258466243744
1773798647760682000,9.989681884765625,-0.041606031358242035,-0.1800704300403595,-0.12677711248397827
1773798647780644900,10.009644775390624,-0.03569115325808525,-0.2190929353237152,-0.09364499896764755
1773798647800606700,10.029606689453125,-0.02678234502673149,-0.2028990536928177,-0.056063536554574966
1773798647820569900,10.04956982421875,-0.04069443419575691,-0.1399563103914261,-0.051483698189258575
1773798647840531700,10.06953173828125,-0.05474020913243294,-0.09939289838075638,-0.07850652933120728
1773798647860494800,10.089494873046876,-0.05023147910833359,-0.10321320593357086,-0.11558518558740616
1773798647880456700,10.109456787109375,-0.037336718291044235,-0.0979318916797638,-0.11703953891992569
1773798647900419800,10.129419921875,-0.018559835851192474,-0.06566130369901657,-0.07708093523979187
1773798647920381700,10.149381591796875,-0.007786284200847149,0.008069644682109356,-0.03984914720058441
1773798647940344800,10.1693447265625,0.0002924150903709233,0.05350770056247711,-0.04848204925656319
1773798647960307000,10.189306884765625,-0.00797297153621912,0.08187276124954224,-0.09634491056203842
1773798647980269800,10.209269775390625,-0.015456453897058964,0.06953860074281693,-0.10022220760583878
1773798648000231700,10.229231689453124,-0.009484315291047096,0.044856153428554535,-0.0526387095451355
1773798648020194000,10.249194091796875,-0.01492195762693882,0.07169469445943832,-0.035287149250507355
1773798648040156200,10.26915625,-0.008527175523340702,0.0851641595363617,-0.04656483978033066
1773798648060119000,10.289119140625,-0.009503223933279514,0.05416310206055641,-0.08381260931491852
1773798648080081000,10.309080810546876,-0.01631052978336811,0.012555738911032677,-0.1010746881365776
1773798648100044000,10.3290439453125,-0.03361468389630318,0.04134770482778549,-0.08514658361673355
1773798648120006100,10.349006103515626,-0.05224695801734924,0.10519779473543167,-0.06144152209162712
1773798648139969000,10.368968994140625,-0.03810983523726463,0.09644051641225815,-0.05034333094954491
1773798648159931000,10.388930908203125,-0.026285400614142418,0.07032556086778641,-0.09073682874441147
1773798648179894000,10.40889404296875,-0.028799956664443016,0.04924184828996658,-0.13654346764087677
1773798648199856000,10.428856201171875,-0.04360393434762955,0.048099882900714874,-0.14632152020931244
1773798648219819000,10.448819091796874,-0.04760000854730606,0.018137458711862564,-0.11360086500644684
1773798648239781000,10.468781005859375,-0.04831134155392647,0.003768905531615019,-0.09711136668920517
1773798648259744000,10.488743896484374,-0.0389908067882061,0.02863643877208233,-0.09256508946418762
1773798648279706000,10.5087060546875,-0.025179389864206314,-0.01673503778874874,-0.09090860188007355
1773798648299669000,10.5286689453125,-0.011897405609488487,-0.10397406667470932,-0.07069014757871628
1773798648319631000,10.548631103515625,-0.018989935517311096,-0.07119561731815338,-0.041907504200935364
1773798648339594200,10.56859423828125,-0.015960590913891792,-0.008929046802222729,-0.005022721830755472
1773798648359555800,10.588555908203125,0.004826180636882782,-0.03448660299181938,0.01441382709890604
1773798648379519000,10.60851904296875,0.02714373730123043,-0.07018974423408508,0.017895642668008804
1773798648399481000,10.628481201171875,0.0210027527064085,-0.07668918371200562,0.030109433457255363
1773798648419444000,10.64844384765625,0.0012884372845292091,-0.06733136624097824,0.04809296131134033
1773798648439406000,10.668406005859374,-0.010004164651036263,0.007321828510612249,0.043474506586790085
1773798648459369000,10.688368896484375,-0.017793910577893257,0.12135252356529236,0.043533626943826675
1773798648479331000,10.7083310546875,-0.03133928030729294,0.27470800280570984,0.055987901985645294
1773798648499294000,10.7282939453125,-0.03458407521247864,0.3580406904220581,0.051852013915777206
1773798648519256000,10.748256103515626,-0.027698205783963203,0.3025185763835907,0.06100050359964371
1773798648539219200,10.76821923828125,-0.0007424892974086106,0.09362901747226715,0.045822616666555405
1773798648559181000,10.78818115234375,0.05806410312652588,-0.2208692580461502,0.0795331746339798
1773798648579144000,10.80814404296875,0.08804383873939514,-0.41508108377456665,0.18084807693958282
1773798648599106000,10.82810595703125,0.0820101797580719,-0.3675396740436554,0.30171671509742737
1773798648619069200,10.848069091796875,0.07641913741827011,-0.12559999525547028,0.35965219140052795
1773798648639031000,10.868031005859375,0.0508650466799736,0.13726837933063507,0.22938790917396545
1773798648658994000,10.887993896484375,0.039019037038087845,0.22852878272533417,0.009017730131745338
1773798648678956000,10.9079560546875,0.04749534651637077,0.15312376618385315,-0.0986727774143219
1773798648698919200,10.927919189453124,0.0462292805314064,0.058450791984796524,-0.05901165306568146
1773798648718881000,10.947881103515625,0.029142173007130623,-0.004028830211609602,0.0065801385790109634
1773798648738844200,10.96784423828125,0.009702694602310658,-0.0415266714990139,0.021374264732003212
1773798648758806000,10.987805908203125,0.007724232506006956,-0.0358155220746994,0.041729338467121124
1773798648778769000,11.007768798828126,0.02207440882921219,0.056302156299352646,0.019390208646655083
1773798648798731000,11.02773095703125,0.03267272561788559,0.15052106976509094,-0.01841735653579235
1773798648818694100,11.047694091796876,0.06085402891039848,0.1345820426940918,-0.011804994195699692
1773798648838656000,11.067656005859375,0.077529676258564,0.050817906856536865,0.060322728008031845
1773798648858619000,11.087618896484376,0.0753386989235878,-0.09012376517057419,0.17064258456230164
1773798648878581000,11.1075810546875,0.05414792522788048,-0.18084488809108734,0.19214068353176117
1773798648898544000,11.127544189453126,0.02953552082180977,-0.19728749990463257,0.13771605491638184
1773798648918506200,11.14750634765625,0.00826938170939684,-0.15010933578014374,0.1034076139330864
1773798648938468900,11.16746875,-0.0199782345443964,-0.014945926144719124,0.07210429012775421
1773798648958431000,11.187430908203124,-0.01912735588848591,0.1136312261223793,0.03750156983733177
1773798648978394000,11.20739404296875,0.015971243381500244,0.1500598043203354,0.03136910870671272
1773798648998356200,11.227356201171874,0.05525872856378555,0.08622543513774872,0.04843837395310402
1773798649018319000,11.247319091796875,0.093900665640831,-0.009362342767417431,0.07429047673940659
1773798649038281200,11.26728125,0.11951867491006851,-0.0591522678732872,0.034148648381233215
1773798649058244400,11.287244384765625,0.1365639716386795,-0.06119464710354805,-0.017543040215969086
1773798649078206000,11.3072060546875,0.11480860412120819,-0.12637844681739807,0.015982162207365036
1773798649098169000,11.327169189453125,0.05487683042883873,-0.18176206946372986,0.11112865060567856
1773798649118131200,11.347131103515625,-0.00148125016130507,-0.1791636347770691,0.20096533000469208
1773798649138094000,11.367093994140625,-0.051352135837078094,-0.10536583513021469,0.2542746365070343
1773798649158056200,11.38705615234375,-0.044864408671855927,-0.02231808938086033,0.2738472521305084
1773798649178019300,11.407019287109375,0.013403156772255898,0.011789015494287014,0.22431060671806335
1773798649197981200,11.426981201171875,0.09340877830982208,0.010230799205601215,0.10852860659360886
1773798649217944000,11.446944091796874,0.11957273632287979,-0.010814830660820007,-0.030970964580774307
1773798649237906200,11.46690625,0.07910067588090897,-0.026079803705215454,-0.11785633116960526
1773798649257869300,11.486869384765624,-0.0014594122767448425,-0.090706467628479,-0.11566454917192459
1773798649277831200,11.5068310546875,-0.07737760990858078,-0.13311810791492462,-0.0756034180521965
1773798649297794000,11.5267939453125,-0.10256552696228027,-0.04911588132381439,-0.051303401589393616
1773798649317756200,11.546756103515625,-0.07438581436872482,0.015507320873439312,-0.0159470085054636
1773798649337719300,11.56671923828125,-0.03898148611187935,-0.03129373863339424,0.024292822927236557
1773798649357681200,11.58668115234375,-0.031257256865501404,-0.0542624406516552,-0.004867991898208857
1773798649377644000,11.60664404296875,-0.009798835031688213,0.010364224202930927,-0.059301406145095825
1773798649397607200,11.626607177734375,0.03238004446029663,0.07813235372304916,-0.01931457594037056
1773798649417569300,11.6465693359375,0.08056328445672989,0.13258707523345947,0.1269398331642151
1773798649437532200,11.6665322265625,0.10995738953351974,0.12003932148218155,0.2543624937534332
1773798649457494300,11.686494384765625,0.08986517786979675,0.11627521365880966,0.17322611808776855
1773798649477457400,11.70645751953125,0.0331057570874691,0.10161690413951874,-0.01684768870472908
1773798649497419000,11.7264189453125,-0.0023968450259417295,0.010835603810846806,-0.10570619255304337
1773798649517382100,11.746382080078124,-0.03893834352493286,-0.010460896417498589,-0.07017190009355545
1773798649537344300,11.76634423828125,-0.05042429268360138,0.08338357508182526,-0.013287309557199478
1773798649557307100,11.78630712890625,-0.034692466259002686,0.1403248906135559,0.010816961526870728
1773798649577269000,11.80626904296875,-0.0054570832289755344,0.1538335084915161,-0.00487198680639267
1773798649597232000,11.826232177734376,0.016595754772424698,0.10148188471794128,-0.036138031631708145
1773798649617194200,11.8461943359375,0.03425038233399391,-0.008705607615411282,-0.02785586565732956
