time,seconds_elapsed,z,y,x
1773798637829347600,0.05834765625,-0.06498130410909653,0.06699249148368835,-0.031651969999074936
1773798637849310700,0.078310791015625,-0.055870477110147476,0.06570519506931305,-0.04423701390624046
1773798637869272600,0.0982724609375,-0.023902907967567444,0.042911723256111145,-0.05487554892897606
1773798637889235500,0.1182353515625,0.017064161598682404,0.060378547757864,-0.06768564134836197
1773798637909197600,0.138197509765625,0.018889619037508965,0.1310616433620453,-0.10612967610359192
1773798637929160700,0.15816064453125,-0.0187426395714283,0.22657597064971924,-0.14651435613632202
1773798637949122600,0.17812255859375,-0.04766635224223137,0.28621935844421387,-0.1351376324892044
1773798637969085700,0.198085693359375,-0.04819924384355545,0.2516748011112213,-0.08380705863237381
1773798637989047600,0.218047607421875,-0.03670347481966019,0.15929847955703735,-0.04878087714314461
1773798638009010400,0.238010498046875,-0.030246712267398834,0.0343296080827713,-0.04061857610940933
1773798638028972300,0.25797216796875,-0.02888663485646248,-0.047535430639982224,0.009801722131669521
1773798638048935400,0.277935302734375,-0.038008932024240494,0.02848741225898266,0.02611144259572029
1773798638068897500,0.2978974609375,-0.041621118783950806,-0.016271237283945084,0.004478868097066879
1773798638088860400,0.3178603515625,-0.062337376177310944,-0.20801307260990143,0.059023331850767136
1773798638108822300,0.337822265625,-0.07440698146820068,-0.03163076564669609,0.07711072266101837
1773798638128784400,0.357784423828125,-0.02174431085586548,0.07571636140346527,0.04269814491271973
1773798638148747500,0.37774755859375,0.02841915190219879,-0.1569550484418869,0.05794207751750946
1773798638168709600,0.397709716796875,0.02818651869893074,-0.2472001165151596,0.07053513079881668
1773798638188672300,0.41767236328125,0.030751541256904602,-0.2968853712081909,0.18110553920269012
1773798638208634400,0.43763427734375,0.035980887711048126,-0.29570963978767395,0.22071875631809235
1773798638228597500,0.457597412109375,-0.04289965704083443,-0.012985173612833023,-0.06798627972602844
1773798638248559400,0.477559326171875,-0.12915155291557312,0.2389213889837265,-0.37274935841560364
1773798638268522500,0.4975224609375,-0.15212689340114594,0.22198085486888885,-0.3787439167499542
1773798638288484400,0.517484375,-0.15107432007789612,0.12430088222026825,-0.26090967655181885
1773798638308447500,0.537447509765625,-0.1529916524887085,0.015434556640684605,-0.18754224479198456
1773798638328409300,0.557409423828125,-0.1605447381734848,-0.12200839072465897,-0.15921339392662048
1773798638348372500,0.57737255859375,-0.08034259080886841,-0.17662657797336578,-0.1326126903295517
1773798638368334600,0.59733447265625,0.03318499028682709,-0.08739975094795227,-0.13541832566261292
1773798638388297200,0.617297119140625,0.11684966087341309,-0.013855254277586937,-0.14941933751106262
1773798638408259300,0.63725927734375,0.2164577692747116,-0.27821624279022217,-0.12999959290027618
1773798638428222500,0.657222412109375,0.3074907958507538,-0.6236165761947632,-0.14282137155532837
1773798638448184600,0.6771845703125,0.23353950679302216,-0.47445860505104065,-0.3587840497493744
1773798638468147500,0.6971474609375,0.027589689940214157,-0.16513635218143463,-0.4409952759742737
1773798638488109300,0.717109375,-0.08844947814941406,-0.04611726850271225,-0.13494564592838287
1773798638508072400,0.737072509765625,-0.13060297071933746,0.14036419987678528,0.4019727110862732
1773798638528034600,0.75703466796875,-0.31241104006767273,-0.28230735659599304,1.3834117650985718
1773798638547996400,0.776996337890625,-0.2877010405063629,-0.7493574619293213,2.03920578956604
1773798638567959300,0.796959228515625,0.22774092853069305,0.31369709968566895,1.1133378744125366
1773798638587921400,0.81692138671875,0.6525343656539917,2.277794361114502,-0.8519580960273743
1773798638607884300,0.83688427734375,0.7562739253044128,2.766648054122925,-1.7158547639846802
1773798638627846400,0.856846435546875,0.5268094539642334,2.3258414268493652,-1.4336097240447998
1773798638647809500,0.8768095703125,0.03622722998261452,1.2549457550048828,-0.7431676387786865
1773798638667771400,0.896771484375,-0.2015312761068344,0.18355390429496765,-0.14308156073093414
1773798638687734300,0.916734375,-0.18806567788124084,-0.5531851649284363,0.5229944586753845
1773798638707696400,0.9366962890625,-0.0869961753487587,-0.4651067554950714,0.6562497615814209
1773798638727659500,0.956659423828125,-0.4271722137928009,0.2777540385723114,-0.16704945266246796
1773798638747621600,0.97662158203125,-0.8066114187240601,0.8540624380111694,-0.7169733643531799
1773798638767584300,0.996584228515625,-0.8154842853546143,0.765307605266571,-0.7227617502212524
1773798638787546400,1.01654638671875,-0.5990601778030396,0.19495685398578644,-0.6285560727119446
1773798638807509500,1.036509521484375,-0.3558323085308075,-0.1415865421295166,-0.6017316579818726
1773798638827471600,1.0564716796875,-0.1943952441215515,0.015184632502496243,-0.48938629031181335
1773798638847434500,1.0764345703125,-0.15795199573040009,0.3817000091075897,-0.08811206370592117
1773798638867396400,1.096396240234375,-0.16047517955303192,0.25959673523902893,0.361384779214859
1773798638887359500,1.116359375,-0.13174714148044586,-0.451617956161499,0.5779764652252197
1773798638907321300,1.1363212890625,0.14545677602291107,-1.4666640758514404,0.9189327359199524
1773798638927284500,1.156284423828125,0.6724404692649841,-2.523228168487549,1.2336922883987427
1773798638947246300,1.176246337890625,0.7052710056304932,-1.9543734788894653,0.214439257979393
1773798638967208400,1.19620849609375,0.4831202030181885,-0.6025338172912598,-0.42745256423950195
1773798638987171300,1.21617138671875,0.2729679346084595,0.16702434420585632,-0.32012665271759033
1773798639007133700,1.2361337890625,0.1666560173034668,0.21624144911766052,-0.05354262515902519
1773798639027096800,1.256096923828125,0.07543735951185226,0.16725468635559082,0.1721232384443283
1773798639047059000,1.276058837890625,-0.34021076560020447,0.3145157992839813,0.28571638464927673
1773798639067021800,1.296021728515625,-0.7419445514678955,0.3574124872684479,0.4412396550178528
1773798639086983700,1.315983642578125,-0.8729211688041687,0.132880300283432,0.5002060532569885
1773798639106946800,1.33594677734375,-0.5279444456100464,-0.029818739742040634,0.30018001794815063
1773798639126908700,1.35590869140625,0.07160092145204544,0.13968530297279358,-0.07393340021371841
1773798639146871800,1.375871826171875,0.3864976763725281,0.22981460392475128,-0.318884015083313
1773798639166834000,1.395833984375,0.6222524046897888,0.19230695068836212,-0.22279128432273865
1773798639186796800,1.415796875,0.4871855080127716,-0.05491606146097183,-0.018335657194256783
1773798639206758700,1.435758544921875,0.17105433344841003,-0.3194819390773773,0.21412982046604156
1773798639226721800,1.4557216796875,-0.001132831908762455,-0.21940378844738007,0.28119248151779175
1773798639246684000,1.475683837890625,-0.16583533585071564,-0.04436054080724716,0.18302541971206665
1773798639266646800,1.495646728515625,-0.11035136878490448,0.052558720111846924,0.14944535493850708
1773798639286608600,1.515608642578125,-0.028405265882611275,0.04806564003229141,0.11526186764240265
1773798639306571800,1.53557177734375,0.026058552786707878,-0.03637970983982086,0.12396180629730225
1773798639326534000,1.555533935546875,0.026824096217751503,-0.015409247018396854,0.04884713888168335
1773798639346495700,1.575495849609375,-0.021893708035349846,-0.023763787001371384,0.002738486509770155
1773798639366459000,1.595458984375,-0.0740683451294899,-0.10419996827840805,0.05074222385883331
1773798639386420700,1.615420654296875,-0.07544182240962982,-0.10771494358778,0.06616434454917908
1773798639406383900,1.6353837890625,-0.032032378017902374,-0.09530103206634521,0.09105075150728226
1773798639426345700,1.655345703125,0.032527271658182144,-0.059388332068920135,0.11561787128448486
1773798639446308900,1.675308837890625,0.03890346363186836,0.04743104428052902,0.06186755374073982
1773798639466270700,1.695270751953125,0.03477254509925842,0.17134727537631989,-0.022257693111896515
1773798639486233600,1.715233642578125,0.021884679794311523,0.1836727112531662,-0.062374986708164215
1773798639506195700,1.73519580078125,0.021932974457740784,0.11419816315174103,-0.021200669929385185
1773798639526158800,1.755158935546875,0.044732775539159775,0.08890203386545181,0.04744203761219978
1773798639546121000,1.775120849609375,0.027996009215712547,0.16189220547676086,0.11768767237663269
1773798639566083800,1.795083740234375,0.0007555255433544517,0.3214952349662781,0.15267206728458405
1773798639586045700,1.815045654296875,-0.009360901080071926,0.39856839179992676,0.09677758812904358
1773798639606008800,1.8350087890625,0.005713498219847679,0.3683101236820221,-0.010484877973794937
1773798639625971000,1.854970947265625,0.07002230733633041,0.296725332736969,-0.04291130229830742
1773798639645933800,1.874933837890625,0.10149016231298447,0.20384269952774048,0.052532393485307693
1773798639665895700,1.894895751953125,0.09870724380016327,0.15241241455078125,0.1382635235786438
1773798639685857800,1.91485791015625,0.10583651810884476,0.12246611714363098,0.09389577805995941
1773798639705820700,1.934820556640625,0.1138458251953125,-0.0018836031667888165,0.030917620286345482
1773798639725782800,1.95478271484375,0.08266309648752213,-0.160673126578331,0.10406561195850372
1773798639745746000,1.974745849609375,0.03310567885637283,-0.23307228088378906,0.30704590678215027
1773798639765707800,1.994707763671875,0.05877038463950157,-0.01401010062545538,0.3364695608615875
1773798639785670700,2.014670654296875,0.0989881381392479,0.25616419315338135,0.1334347128868103
1773798639805632800,2.0346328125,0.1074305921792984,0.1992606371641159,-0.060967817902565
1773798639825596000,2.054595947265625,0.09738060086965561,-0.05595455318689346,-0.09824936836957932
1773798639845557800,2.074557861328125,0.0842084288597107,-0.16637706756591797,-0.12862807512283325
1773798639865520600,2.094520751953125,0.011814609169960022,-0.259511262178421,-0.1664457470178604
1773798639885482800,2.114482666015625,-0.043001625686883926,-0.36215656995773315,-0.11590803414583206
1773798639905446000,2.13444580078125,-0.03973335772752762,-0.22780951857566833,0.006670859642326832
1773798639925408000,2.154407958984375,-0.00890221819281578,0.08456730842590332,0.03745279461145401
1773798639945370600,2.17437060546875,0.036880090832710266,0.28386059403419495,-0.050928518176078796
1773798639965332700,2.194332763671875,0.052170127630233765,0.227005735039711,-0.08707130700349808
1773798639985296000,2.2142958984375,-0.022494157776236534,-0.05902496725320816,0.08222130686044693
1773798640005257700,2.2342578125,-0.056643299758434296,-0.3073456883430481,0.24986834824085236
1773798640025219800,2.2542197265625,-0.04485909268260002,-0.2856568992137909,0.119227834045887
1773798640045183000,2.274182861328125,-0.008118554018437862,-0.03610672801733017,-0.10012344270944595
1773798640065145000,2.29414501953125,-0.020519739016890526,0.11673728376626968,-0.11065279692411423
1773798640085107700,2.314107666015625,-0.02123778499662876,0.1351121962070465,0.04907746985554695
1773798640105069800,2.33406982421875,0.014559450559318066,0.006593504920601845,0.11476298421621323
1773798640125033000,2.354032958984375,0.05977500230073929,-0.17723919451236725,-0.0005941963754594326
1773798640144995000,2.3739951171875,0.05728611722588539,-0.14536985754966736,-0.1575486660003662
1773798640164958000,2.3939580078125,0.0057451119646430016,0.009235708974301815,-0.14647869765758514
1773798640184919800,2.413919921875,-0.03662489354610443,0.10096949338912964,0.0013272576034069061
1773798640204883000,2.433883056640625,-0.056508876383304596,0.0763920471072197,0.10988438874483109
1773798640224845000,2.453844970703125,-0.044331762939691544,-0.12005957216024399,0.1477513164281845
1773798640244808000,2.473807861328125,-0.018217291682958603,-0.2369699478149414,0.15270398557186127
1773798640264770000,2.49377001953125,-0.005733119789510965,-0.18867455422878265,0.09606043249368668
1773798640284733000,2.51373291015625,0.0005480915424413979,-0.08349144458770752,-0.010981346480548382
1773798640304694800,2.53369482421875,-0.014068352989852428,-0.0529567115008831,-0.06427706778049469
1773798640324658000,2.553657958984375,-0.011691683903336525,-0.07340558618307114,-0.004660059232264757
1773798640344620000,2.5736201171875,-0.013218417763710022,-0.08171162754297256,0.05394280329346657
1773798640364583000,2.5935830078125,-0.003019891446456313,-0.086857371032238,0.025956448167562485
1773798640384544800,2.613544677734375,0.005507655441761017,-0.0954129621386528,-0.040481701493263245
1773798640404508000,2.6335078125,-0.012834601104259491,-0.08797049522399902,-0.07280821353197098
1773798640424470000,2.653469970703125,-0.013899331912398338,-0.04526670277118683,-0.03834850713610649
1773798640444432100,2.67343212890625,-0.013945446349680424,0.022078365087509155,-0.02806868962943554
1773798640464394800,2.693394775390625,-0.0012930340599268675,0.15127256512641907,-0.0969604104757309
1773798640484356900,2.71335693359375,0.0166726503521204,0.17828314006328583,-0.1399848312139511
1773798640504320000,2.733320068359375,0.03448626771569252,0.09436561167240143,-0.09938947856426239
1773798640524281900,2.75328173828125,0.011389295570552349,0.03994085639715195,-0.07002042233943939
1773798640544245000,2.773244873046875,-0.015519220381975174,-0.06382820755243301,-0.00241313548758626
1773798640564206800,2.793206787109375,-0.01257952582091093,-0.12053092569112778,0.07523557543754578
1773798640584170000,2.813169921875,0.013780506327748299,-0.09572391211986542,0.08258883655071259
1773798640604131800,2.8331318359375,0.04353407770395279,-0.02408614754676819,0.027016647160053253
1773798640624095000,2.853094970703125,0.01853248104453087,0.04965376853942871,-0.040489424020051956
1773798640644057000,2.87305712890625,0.001503738691098988,0.0882689505815506,-0.03880578652024269
1773798640664019700,2.893019775390625,0.011587982065975666,0.049920737743377686,0.02420862764120102
1773798640683981800,2.91298193359375,0.04215061292052269,0.021992919966578484,-0.009558945894241333
1773798640703945000,2.932945068359375,0.07182089239358902,-0.042575158178806305,-0.06031773239374161
1773798640723907000,2.952906982421875,0.06435324996709824,-0.050093118101358414,-0.056214839220047
1773798640743870000,2.972869873046875,0.04676143825054169,0.05357065051794052,-0.030231421813368797
1773798640763831800,2.992831787109375,0.038833942264318466,0.13485383987426758,-0.016943322494626045
1773798640783794000,3.0127939453125,0.040591347962617874,0.07305285334587097,0.03670097887516022
1773798640803757000,3.032757080078125,0.04893778637051582,-0.04486432299017906,0.09748095273971558
1773798640823719000,3.052718994140625,0.02531556971371174,-0.09029047191143036,0.056029610335826874
1773798640843681800,3.072681884765625,0.007447107695043087,-0.09787412732839584,-0.01788666844367981
1773798640863644000,3.092643798828125,-0.013172119855880737,-0.07791224122047424,-0.03231723606586456
1773798640883606800,3.112606689453125,-0.02794320322573185,-0.06026202067732811,-0.01536544132977724
1773798640903569000,3.13256884765625,-0.027520013973116875,-0.053920283913612366,0.015008460730314255
1773798640923532000,3.152531982421875,-0.038271237164735794,-0.043759673833847046,0.03884350135922432
1773798640943494000,3.172493896484375,-0.022773727774620056,-0.06302989274263382,0.05047484114766121
1773798640963456800,3.192456787109375,-0.00037395537947304547,-0.0807371735572815,0.022014474496245384
1773798640983419000,3.2124189453125,0.018670134246349335,-0.03294714540243149,-0.025022560730576515
1773798641003381200,3.23238134765625,0.034765612334012985,0.034458279609680176,-0.029606159776449203
1773798641023343000,3.252343017578125,0.045572467148303986,0.010756894946098328,0.017192522063851357
1773798641043306200,3.27230615234375,0.04136674106121063,-0.025248447433114052,0.0586366206407547
1773798641063268000,3.29226806640625,0.023488512262701988,-0.03717213124036789,0.07811764627695084
1773798641083231200,3.312231201171875,0.005784980021417141,-0.06999268382787704,0.08740273863077164
1773798641103193300,3.332193359375,-0.008170340210199356,-0.08664610236883163,0.059941843152046204
1773798641123156000,3.352156005859375,-0.020390182733535767,-0.05418612062931061,0.018168052658438683
1773798641143118000,3.3721181640625,-0.0012719689402729273,-0.059030402451753616,0.07835918664932251
1773798641163080200,3.392080078125,0.02352192811667919,-0.018671544268727303,0.13906490802764893
1773798641183043300,3.412043212890625,0.039478935301303864,0.07973701506853104,0.1427384614944458
1773798641203005200,3.432005126953125,0.058898281306028366,0.10850536823272705,0.13481421768665314
1773798641222968000,3.451968017578125,0.06451752036809921,0.0885116457939148,0.11016055941581726
1773798641242930200,3.47193017578125,0.0922122523188591,0.015563027933239937,0.14225350320339203
1773798641262893300,3.491893310546875,0.11381195485591888,-0.02359585091471672,0.15797178447246552
1773798641282855200,3.511855224609375,0.09827126562595367,0.01543262880295515,0.05092812702059746
1773798641302818000,3.531818115234375,0.0804530531167984,-0.007648126222193241,-0.027524618431925774
1773798641322780200,3.5517802734375,0.05101713910698891,-0.05083634331822395,0.029023613780736923
1773798641342743000,3.571742919921875,0.024519283324480057,0.013699176721274853,0.13522064685821533
1773798641362705200,3.591705078125,0.005656814202666283,0.05238667130470276,0.18361561000347137
1773798641382668300,3.611668212890625,0.005519639700651169,0.01260698214173317,0.13940179347991943
1773798641402630100,3.631630126953125,0.00550796277821064,-0.08112841844558716,0.07026556879281998
1773798641422593000,3.651593017578125,0.029445985332131386,-0.13140206038951874,0.06089156121015549
1773798641442555100,3.67155517578125,0.06837183237075806,-0.08526402711868286,0.08379816263914108
1773798641462518300,3.691518310546875,0.07764416933059692,-0.028636489063501358,0.11098506301641464
1773798641482480000,3.711480224609375,0.06297910213470459,0.03313518315553665,0.13040456175804138
1773798641502443000,3.731443115234375,0.052251506596803665,0.04641713201999664,0.16924835741519928
1773798641522405000,3.751405029296875,0.0477418452501297,0.03371729701757431,0.15404334664344788
1773798641542367200,3.7713671875,0.04360608011484146,0.04800267145037651,0.10835516452789307
1773798641562330400,3.791330322265625,0.04122230038046837,0.1069950982928276,0.07491147518157959
1773798641582292000,3.8112919921875,0.029290448874235153,0.09665603935718536,0.10804121941328049
1773798641602255000,3.831255126953125,0.014051413163542747,0.05068783089518547,0.13906703889369965
1773798641622217200,3.85121728515625,-0.0037211431190371513,0.11039615422487259,0.03060820698738098
1773798641642180000,3.87118017578125,-0.0024637035094201565,0.1718040406703949,-0.11278357356786728
1773798641662142200,3.89114208984375,-0.02384091168642044,0.13406071066856384,-0.13782182335853577
1773798641682105000,3.91110498046875,-0.0419357605278492,0.10794202238321304,-0.06579557806253433
1773798641702067200,3.931067138671875,-0.06173612177371979,0.09522762149572372,-0.017157968133687973
1773798641722030000,3.951030029296875,-0.03876273334026337,0.03480934351682663,0.024749474599957466
1773798641741992200,3.9709921875,0.029128415510058403,-0.019640669226646423,0.06486551463603973
1773798641761955300,3.990955322265625,0.07260462641716003,0.010570154525339603,0.05650372803211212
1773798641781917200,4.010917236328125,0.07795783877372742,0.04048816114664078,0.021400850266218185
1773798641801880000,4.030880126953125,0.04307693988084793,0.020160548388957977,0.008793726563453674
1773798641821842200,4.05084228515625,-0.013116234913468361,0.0535241924226284,-0.015273788943886757
1773798641841805300,4.070805419921875,-0.03860485553741455,0.03424769639968872,-0.003280289936810732
1773798641861767200,4.09076708984375,-0.0377424918115139,-0.02058236300945282,0.008705304935574532
1773798641881730000,4.11072998046875,-0.05151364207267761,-0.0008961812127381563,-0.03300938010215759
1773798641901692200,4.130692138671875,-0.05809057876467705,0.028325458988547325,-0.06165246665477753
1773798641921654300,4.150654296875,-0.03156539797782898,0.017134835943579674,-0.03545922785997391
1773798641941617200,4.1706171875,-0.00015299106598831713,0.0053602769039571285,-0.015638921409845352
1773798641961579000,4.1905791015625,0.0141242491081357,-0.00860103964805603,-0.033645909279584885
1773798641981542100,4.210542236328125,-0.0005044233985245228,-0.03003598004579544,-0.047783542424440384
1773798642001504500,4.23050439453125,-0.001057449379004538,-0.11425159871578217,-0.016612038016319275
1773798642021467400,4.25046728515625,-0.0028628776781260967,-0.20542310178279877,0.018721431493759155
1773798642041429500,4.270429443359375,-0.024816755205392838,-0.20663666725158691,-0.006168946623802185
1773798642061392400,4.290392333984375,-0.04511898010969162,-0.22526833415031433,-0.037592966109514236
1773798642081354500,4.3103544921875,-0.04861669987440109,-0.2319050133228302,-0.011881516315042973
1773798642101317400,4.3303173828125,-0.0697462409734726,-0.0749109536409378,-0.012279082089662552
1773798642121279500,4.350279541015625,-0.09110791236162186,0.13571570813655853,-0.035809483379125595
1773798642141242600,4.37024267578125,-0.019339896738529205,0.21720658242702484,-0.027267616242170334
1773798642161204200,4.390204345703125,0.06078270077705383,0.12450399994850159,-0.06923982501029968
1773798642181167400,4.41016748046875,0.09141165018081665,0.028187911957502365,-0.11957864463329315
1773798642201129500,4.43012939453125,0.05169295147061348,0.04373359680175781,-0.10395307093858719
1773798642221092400,4.45009228515625,-0.0015900966245681047,0.09556400775909424,-0.029461540281772614
1773798642241054500,4.470054443359375,-0.03454136475920677,0.10182274878025055,0.012792998924851418
1773798642261017300,4.490017333984375,-0.03866426274180412,0.02800888381898403,0.05852479860186577
1773798642280979500,4.5099794921875,-0.013386351056396961,0.03289823606610298,0.08060265332460403
1773798642300941600,4.529941650390625,0.020841926336288452,0.13067753612995148,0.011958077549934387
1773798642320904400,4.549904541015625,0.028439359739422798,0.12392158061265945,-0.07455761730670929
1773798642340866300,4.5698662109375,0.009088129736483097,0.028008608147501945,-0.05694880709052086
1773798642360829400,4.589829345703125,-0.0025901622138917446,-0.05106590688228607,0.022938024252653122
1773798642380791600,4.60979150390625,0.005725712049752474,-0.0993388220667839,0.05112757533788681
1773798642400754400,4.62975439453125,0.016169950366020203,-0.13626645505428314,0.015354415401816368
1773798642420716500,4.649716552734375,0.005255622789263725,-0.13247881829738617,-0.025309395045042038
1773798642440679400,4.669679443359375,-0.019063733518123627,-0.04918687790632248,-0.03130923956632614
1773798642460641300,4.689641357421875,-0.017920423299074173,0.025920072570443153,0.0014191647060215473
1773798642480604400,4.7096044921875,0.0035400143824517727,0.010871955193579197,0.039875201880931854
1773798642500566500,4.72956640625,0.03556874021887779,-0.12245652824640274,0.0540647991001606
1773798642520529400,4.749529296875,0.01928667351603508,-0.17437155544757843,-0.0002677217125892639
1773798642540491300,4.7694912109375,-0.020737038925290108,-0.07202256470918655,-0.020451249554753304
1773798642560454400,4.789454345703125,-0.02965032495558262,-0.015855710953474045,0.05238327011466026
1773798642580416500,4.80941650390625,0.018121248111128807,-0.04939120262861252,0.04080677777528763
1773798642600379400,4.82937939453125,0.042664337903261185,-0.12472834438085556,-0.029744908213615417
1773798642620341200,4.84934130859375,0.02958044596016407,-0.09356722235679626,-0.020402800291776657
1773798642640304400,4.869304443359375,0.02253056690096855,0.011945236474275589,-0.0026893317699432373
1773798642660266500,4.8892666015625,0.026816407218575478,0.0012339530512690544,-0.03737964853644371
1773798642680228400,4.909228271484375,0.018138067796826363,-0.11202247440814972,-0.0626586377620697
1773798642700191500,4.92919140625,-0.007755966857075691,-0.22358393669128418,-0.0023891935124993324
1773798642720153300,4.9491533203125,-0.03484916314482689,-0.19555866718292236,0.04419061541557312
1773798642740116500,4.969116455078125,-0.03165213018655777,-0.11992711573839188,0.008300209417939186
1773798642760078300,4.989078369140625,-0.012335242703557014,-0.08256112784147263,-0.014186426997184753
1773798642780041500,5.00904150390625,-0.017061660066246986,-0.01811884343624115,-0.003036834765225649
1773798642800003600,5.029003662109375,-0.006524267140775919,0.011015273630619049,-0.01774519495666027
1773798642819966200,5.04896630859375,0.0003650572325568646,-0.017301958054304123,-0.06532524526119232
1773798642839928300,5.06892822265625,0.008376812562346458,-0.029759405180811882,-0.07842452079057693
1773798642859891500,5.088891357421875,-0.011274183169007301,0.011340426281094551,-0.05832032859325409
1773798642879853600,5.108853515625,-0.023605166003108025,0.06832306832075119,-0.0254026111215353
1773798642899816400,5.12881640625,-0.0026777165476232767,0.05089421570301056,0.012691257521510124
1773798642919778300,5.1487783203125,0.032344069331884384,-0.00906065572053194,0.023948699235916138
1773798642939741400,5.168741455078125,0.04927435144782066,0.000598136568441987,0.010526342317461967
1773798642959703600,5.18870361328125,0.03376203775405884,0.08801207691431046,-0.025628451257944107
1773798642979666400,5.20866650390625,0.024576064199209213,0.11825764179229736,-0.055592186748981476
1773798642999628800,5.22862890625,0.0016817458672448993,0.08254478871822357,-0.064443439245224
1773798643019591700,5.248591796875,-0.02843080647289753,0.014991779811680317,-0.04599602520465851
1773798643039553500,5.268553466796875,-0.023799611255526543,-0.021056918427348137,-0.009591134265065193
1773798643059515600,5.288515625,-0.010584011673927307,0.013435236178338528,-0.02556745707988739
1773798643079478800,5.308478759765625,-0.0003670042788144201,0.042026761919260025,-0.07698990404605865
1773798643099440600,5.328440673828125,-0.009719849564135075,0.04226338118314743,-0.09376806020736694
1773798643119403500,5.348403564453125,-0.015401684679090977,0.010064790956676006,-0.05574322119355202
1773798643139365600,5.36836572265625,-0.007231865078210831,-0.015312060713768005,-0.026872975751757622
1773798643159328800,5.388328857421875,-0.007354291155934334,-0.0362028032541275,-0.06811998039484024
1773798643179291000,5.408290771484375,-0.011855201795697212,-0.0279555507004261,-0.11206561326980591
1773798643199253500,5.42825341796875,-0.00343149621039629,-0.008236033841967583,-0.07944292575120926
1773798643219215600,5.448215576171875,0.008071698248386383,-0.0042955572716891766,-0.04968104884028435
1773798643239178800,5.4681787109375,-0.006843980401754379,-0.010938206687569618,-0.08550989627838135
1773798643259140600,5.488140625,-0.028994638472795486,0.06171306222677231,-0.13877229392528534
1773798643279103700,5.508103759765625,-0.04273698478937149,0.07894715666770935,-0.1268322765827179
1773798643299065600,5.528065673828125,-0.03640462085604668,0.04402248188853264,-0.06554148346185684
1773798643319028700,5.54802880859375,-0.03153418004512787,0.102301225066185,-0.029975775629281998
1773798643338990600,5.567990478515625,-0.011730663478374481,0.10454099625349045,-0.05566570907831192
1773798643358953700,5.58795361328125,0.02906118519604206,0.03200837969779968,-0.03613675385713577
1773798643378915800,5.607915771484375,0.011347506195306778,0.0394199974834919,0.020993933081626892
1773798643398878500,5.62787841796875,-0.021296659484505653,-0.04362275451421738,0.1473633348941803
1773798643418840600,5.647840576171875,-0.030395517125725746,-0.21750321984291077,0.20810016989707947
1773798643438803700,5.6678037109375,-0.020645195618271828,-0.30570247769355774,0.1276855170726776
1773798643458765800,5.687765869140625,0.005434740800410509,-0.24982772767543793,0.00708422577008605
1773798643478728700,5.707728759765625,0.036348819732666016,-0.14841635525226593,-0.0511079765856266
1773798643498690600,5.727690673828125,0.1050126776099205,-0.03724116086959839,-0.06666163355112076
1773798643518652700,5.747652587890625,0.09248021245002747,0.20208218693733215,-0.1552722007036209
1773798643538615800,5.76761572265625,0.01836293563246727,0.2831762135028839,-0.15171341598033905
1773798643558577700,5.78757763671875,-0.023416193202137947,0.09794681519269943,-0.05532882735133171
1773798643578540500,5.80754052734375,-0.0005781440995633602,-0.21155358850955963,0.024093303829431534
1773798643598502700,5.827502685546875,-0.008295444771647453,-0.2588070034980774,0.0010433867573738098
1773798643618465500,5.847465576171875,-0.03576149791479111,-0.09636728465557098,-0.08835069835186005
1773798643638427600,5.867427734375,-0.045638978481292725,0.06913270056247711,-0.13627265393733978
1773798643658390800,5.887390869140625,-0.032473381608724594,0.1855822503566742,-0.11918714642524719
1773798643678352600,5.9073525390625,0.014373060315847397,0.2217046618461609,-0.10704287886619568
1773798643698315500,5.9273154296875,0.06572508811950684,0.17110545933246613,-0.12111396342515945
1773798643718277600,5.947277587890625,0.06439139693975449,0.2478833943605423,-0.11512261629104614
1773798643738240800,5.96724072265625,0.07341471314430237,0.5580347776412964,-0.17343546450138092
1773798643758202600,5.98720263671875,0.12060365080833435,0.43835321068763733,-0.179764986038208
1773798643778165500,6.00716552734375,0.15139377117156982,0.12399657070636749,-0.14809761941432953
1773798643798127600,6.027127685546875,0.11630713939666748,-0.00499171856790781,-0.17558225989341736
1773798643818090800,6.0470908203125,0.09287021309137344,-0.03939804434776306,-0.2207001894712448
1773798643838052900,6.067052978515625,0.04897391051054001,-0.08202620595693588,-0.22368906438350677
1773798643858015700,6.087015625,0.004400635603815317,-0.0844840556383133,-0.17090360820293427
1773798643877977600,6.1069775390625,-0.029161157086491585,-0.044135116040706635,-0.08975789695978165
1773798643897940700,6.126940673828125,-0.050495896488428116,0.02622046507894993,-0.058430589735507965
1773798643917902600,6.146902587890625,-0.026343680918216705,0.15468880534172058,-0.09396008402109146
1773798643937864700,6.16686474609375,0.0385163277387619,0.3510114252567291,-0.16111674904823303
1773798643957827600,6.18682763671875,0.09499318152666092,0.5104115009307861,-0.22718630731105804
1773798643977789700,6.206789794921875,0.13107140362262726,0.5401213765144348,-0.16828438639640808
1773798643997752600,6.226752685546875,0.18186460435390472,0.48061656951904297,0.016488617286086082
1773798644017714700,6.246714599609375,0.16671523451805115,0.2636032700538635,0.15276551246643066
1773798644037677800,6.266677734375,0.12846150994300842,0.11335325986146927,0.11366342008113861
1773798644057640000,6.286639892578125,0.15264299511909485,0.27473658323287964,-0.1041746512055397
1773798644077602800,6.306602783203125,0.1860765665769577,0.5597431063652039,-0.3773054778575897
1773798644097564700,6.326564697265625,0.1572391390800476,0.671909749507904,-0.5082041025161743
1773798644117527800,6.34652783203125,0.09446331858634949,0.4853788912296295,-0.396252304315567
1773798644137490000,6.366489990234375,0.09140663594007492,0.0945056676864624,-0.18598030507564545
1773798644157452800,6.386452880859375,0.0674566775560379,-0.1856091469526291,-0.10215996205806732
1773798644177415000,6.406414794921875,0.026750681921839714,-0.1838226169347763,-0.06190895661711693
1773798644197377800,6.426377685546875,0.0019642855040729046,-0.007876763120293617,0.02488827519118786
1773798644217339600,6.446339599609375,-0.10961879789829254,0.22284089028835297,0.13833309710025787
1773798644237302800,6.466302734375,-0.2782701849937439,0.41795673966407776,0.3139896094799042
1773798644257265000,6.486264892578125,-0.4084327816963196,0.3925742208957672,0.5810149312019348
1773798644277227800,6.506227783203125,-0.458090215921402,0.256388396024704,0.7619010210037231
1773798644297189600,6.526189697265625,-0.4663933217525482,-0.018848028033971786,0.7965293526649475
1773798644317152800,6.54615283203125,-0.3860985338687897,-0.12471256405115128,0.7664617300033569
1773798644337115000,6.566114990234375,-0.3939165771007538,0.08423006534576416,0.7637200355529785
1773798644357077800,6.586077880859375,-0.2253389060497284,-0.5202162265777588,0.8309067487716675
1773798644377040000,6.606039794921875,0.30429643392562866,-1.4815597534179688,0.4098902642726898
1773798644397002800,6.626002685546875,0.30958831310272217,-0.4255225658416748,-0.4931069314479828
1773798644416964900,6.64596484375,0.08282669633626938,0.5246181488037109,-0.6975881457328796
1773798644436927700,6.665927734375,-0.014022985473275185,0.450897753238678,-0.42081567645072937
1773798644456889900,6.685889892578125,-0.06338702887296677,-0.278009295463562,-0.054286979138851166
1773798644476851700,6.705851806640625,0.04474585875868797,-0.7466874122619629,0.10989640653133392
1773798644496814800,6.72581494140625,0.054611291736364365,-0.9437109231948853,0.15840424597263336
1773798644516776700,6.745776611328125,-0.03796032443642616,-1.1343940496444702,0.22839853167533875
1773798644536739800,6.76573974609375,-0.17866578698158264,-1.0479565858840942,0.3525995910167694
1773798644556702000,6.785701904296875,-0.34890681505203247,-0.6904547810554504,0.5221172571182251
1773798644576664600,6.80566455078125,-0.20041415095329285,-0.015229103155434132,0.3893011212348938
1773798644596626700,6.825626708984375,0.10510505735874176,0.6127802133560181,-0.030276432633399963
1773798644616589800,6.84558984375,0.2734799087047577,0.5988374352455139,-0.3226712942123413
1773798644636552000,6.865552001953125,0.32348933815956116,0.31032106280326843,-0.35791105031967163
1773798644656514800,6.885514892578125,0.1936803162097931,0.1294907033443451,-0.1927361786365509
1773798644676476700,6.9054765625,0.023853030055761337,0.10894610732793808,0.06181195005774498
1773798644696439800,6.925439697265625,-0.0914100706577301,0.24621564149856567,0.12029390037059784
1773798644716402000,6.94540185546875,-0.19149836897850037,0.3972036838531494,0.016743022948503494
1773798644736364800,6.96536474609375,-0.28779083490371704,0.2782990634441376,-0.014743022620677948
1773798644756326700,6.98532666015625,-0.27024295926094055,0.019080648198723793,-0.05518924444913864
1773798644776289800,7.005289794921875,-0.21424749493598938,-0.16557976603507996,-0.18218368291854858
1773798644796251600,7.025251708984375,-0.14027313888072968,-0.3550775349140167,-0.2547686994075775
1773798644816214800,7.04521484375,-0.04040854424238205,-0.3793443739414215,-0.25326693058013916
1773798644836177000,7.065177001953125,0.031374260783195496,-0.05899020656943321,-0.19701802730560303
1773798644856139800,7.085139892578125,0.10458569973707199,0.40158888697624207,-0.05481879040598869
1773798644876101600,7.1051015625,0.1551620364189148,0.5135214924812317,0.010148465633392334
1773798644896064800,7.125064697265625,0.209247425198555,0.30076149106025696,-0.07458239048719406
1773798644916027000,7.14502685546875,0.21284574270248413,0.031914517283439636,-0.19526006281375885
1773798644935989800,7.16498974609375,0.11608190089464188,-0.18587341904640198,-0.19338709115982056
1773798644955951600,7.18495166015625,0.014505223371088505,-0.2562302052974701,-0.050986774265766144
1773798644975914800,7.204914794921875,-0.04688293859362602,-0.17029453814029694,0.040930356830358505
1773798644995876900,7.224876953125,-0.05747959390282631,-0.09893333166837692,0.0698176696896553
1773798645015839000,7.2448388671875,-0.007145897019654512,-0.05572619289159775,0.05010150000452995
1773798645035801000,7.264801025390625,0.03815504163503647,0.028739729896187782,-0.025762924924492836
1773798645055763000,7.284762939453125,0.05331183969974518,0.0991252213716507,-0.05538898706436157
1773798645075726000,7.30472607421875,0.047134481370449066,0.12688860297203064,-0.030066581442952156
1773798645095688200,7.324688232421875,0.04483246058225632,0.12233854085206985,-0.009748244658112526
1773798645115651000,7.344651123046875,0.05741291865706444,0.09603556990623474,-0.019293010234832764
1773798645135613200,7.36461328125,0.047021396458148956,-0.004049193114042282,-0.03193133696913719
1773798645155576000,7.384576171875,-0.0036329214926809072,-0.13094878196716309,-0.04185478761792183
1773798645175538200,7.4045380859375,-0.03977968916296959,-0.2141755074262619,0.010247556492686272
1773798645195501000,7.4245009765625,-0.029845140874385834,-0.1707250475883484,0.07431203126907349
1773798645215463200,7.444463134765625,-0.03764616325497627,-0.05495811253786087,0.05643477663397789
1773798645235426300,7.46442626953125,-0.014744322746992111,-0.011102449148893356,0.020015502348542213
1773798645255388000,7.484387939453125,-0.0040169148705899715,-0.049048807471990585,-0.0030248560942709446
1773798645275351000,7.50435107421875,-0.00979485921561718,-0.08368434756994247,-0.020385948941111565
1773798645295313200,7.524313232421875,-0.020269738510251045,-0.07784666866064072,-0.024990050122141838
1773798645315276000,7.544276123046875,-0.012268109247088432,-0.04509865865111351,-0.012073183432221413
1773798645335238000,7.56423779296875,0.008984834887087345,-0.014695985242724419,-0.022940466180443764
1773798645355201000,7.584200927734375,0.03032039850950241,0.010498068295419216,-0.041085947304964066
1773798645375163100,7.6041630859375,0.040982894599437714,0.01428721472620964,-0.038013990968465805
1773798645395126000,7.6241259765625,0.02631901390850544,0.017056047916412354,-0.026313910260796547
1773798645415088000,7.644088134765625,0.015926441177725792,0.08375728875398636,-0.008767688646912575
1773798645435051300,7.66405126953125,0.02592962421476841,0.18077221512794495,-0.0108712837100029
1773798645455013000,7.68401318359375,0.029642848297953606,0.20172780752182007,-0.05220915749669075
1773798645474976000,7.70397607421875,0.02148926630616188,0.08648883551359177,-0.034657325595617294
1773798645494938000,7.723938232421875,0.018121417611837387,-0.09572618454694748,0.03158080205321312
1773798645514901200,7.7439013671875,0.03848724067211151,-0.19026337563991547,0.07117560505867004
1773798645534863000,7.763863037109375,0.06687599420547485,-0.18568487465381622,0.08691519498825073
1773798645554826000,7.783825927734375,0.05089106783270836,-0.11818430572748184,0.0925794243812561
1773798645574788000,7.8037880859375,-0.015041870065033436,-0.016632013022899628,0.07172208279371262
1773798645594751200,7.823751220703125,-0.06470704078674316,0.045428622514009476,0.0136468056589365
1773798645614713000,7.843713134765625,-0.06506049633026123,-0.020395388826727867,-0.032890595495700836
1773798645634675000,7.863675048828125,-0.048090219497680664,-0.15241862833499908,-0.05102222412824631
1773798645654638000,7.88363818359375,-0.03040582686662674,-0.15374541282653809,-0.027725640684366226
1773798645674600200,7.90360009765625,-0.016009921208024025,-0.06638135015964508,0.027937594801187515
1773798645694563000,7.92356298828125,-0.005539437290281057,0.00322249298915267,0.0032508913427591324
1773798645714525000,7.94352490234375,0.004303816240280867,-0.016724945977330208,-0.07103639096021652
1773798645734488000,7.963488037109375,0.018017007037997246,-0.07241655141115189,-0.07215306907892227
1773798645754450200,7.9834501953125,0.02883964590728283,-0.03230270370841026,-0.030211441218852997
1773798645774413000,8.0034130859375,0.01262806635349989,-0.009106334298849106,0.004802454728633165
1773798645794375200,8.023375244140626,-0.001100199413485825,-0.04484229162335396,0.010293371044099331
1773798645814338000,8.043338134765625,-0.006441933568567038,-0.02127273939549923,-0.04637925326824188
1773798645834300200,8.063300048828125,-0.015271362848579884,-0.009657950140535831,-0.09529564529657364
1773798645854263000,8.083262939453125,-0.026457397267222404,-0.043572358787059784,-0.06281201541423798
1773798645874225200,8.10322509765625,-0.025281758978962898,-0.062258392572402954,0.010206814855337143
1773798645894188300,8.123188232421874,-0.02287810854613781,-0.059823229908943176,0.021920179948210716
1773798645914150000,8.14314990234375,-0.0030834136996418238,-0.12425120919942856,0.02713572047650814
1773798645934113000,8.163113037109374,0.025868995115160942,-0.15677396953105927,0.061435919255018234
1773798645954075100,8.1830751953125,0.023548897355794907,-0.07563385367393494,0.06810420751571655
1773798645974038000,8.2030380859375,0.006938635371625423,0.0012543961638584733,0.048903319984674454
1773798645994000100,8.223000244140625,0.006051341071724892,0.012638386338949203,0.022200357168912888
1773798646013963800,8.2429638671875,0.02111990563571453,0.048565998673439026,0.01349770836532116
1773798646033926000,8.26292578125,0.040054719895124435,0.11026227474212646,0.07956055551767349
1773798646053888800,8.282888671875,0.045256663113832474,0.1759016364812851,0.20394322276115417
1773798646073851000,8.302850830078125,0.07001912593841553,0.255348265171051,0.28133654594421387
1773798646093814000,8.32281396484375,0.1054845005273819,0.2227383553981781,0.24080593883991241
1773798646113775600,8.342775634765625,0.12741218507289886,0.09137989580631256,0.14217443764209747
1773798646133738800,8.36273876953125,0.08666489273309708,-0.028500569984316826,0.0286001805216074
1773798646153700900,8.382700927734374,0.04423106461763382,-0.11059334129095078,-0.042534422129392624
1773798646173663700,8.402663818359375,-0.0053855967707931995,-0.13843783736228943,-0.0611075684428215
1773798646193625600,8.42262548828125,-0.04028913006186485,-0.10754115134477615,-0.043061450123786926
1773798646213588700,8.442588623046875,-0.048339035362005234,-0.012872119434177876,0.017742760479450226
1773798646233550800,8.46255078125,-0.006829331163316965,0.04091375693678856,0.10120198875665665
1773798646253513700,8.482513671875,0.01044546626508236,0.05745232105255127,0.11720412224531174
1773798646273475800,8.502475830078126,-0.009918822906911373,0.20582962036132812,0.12281859666109085
1773798646293439000,8.52243896484375,-0.013588602654635906,0.4203348159790039,0.1656520813703537
1773798646313400800,8.54240087890625,0.0021102901082485914,0.49097585678100586,0.18583109974861145
1773798646333363700,8.56236376953125,0.038063790649175644,0.3848966956138611,0.17401202023029327
1773798646353325800,8.582325927734376,0.09517163038253784,0.21939022839069366,0.1603611558675766
1773798646373289000,8.6022890625,0.09738554805517197,0.1263492852449417,0.13241338729858398
1773798646393250800,8.622250732421875,0.08312566578388214,0.10019022226333618,0.06424393504858017
1773798646413213700,8.642213623046874,0.08213593810796738,0.04699317365884781,0.04218871891498566
1773798646433175800,8.66217578125,0.08258930593729019,-0.003504108637571335,0.08203252404928207
1773798646453139000,8.682138916015624,0.06955527514219284,-0.030328691005706787,0.13990435004234314
1773798646473100800,8.702100830078125,0.06053735315799713,-0.0197581984102726,0.18852491676807404
1773798646493063700,8.722063720703124,0.07916427403688431,-0.009191194549202919,0.19914931058883667
1773798646513025800,8.74202587890625,0.07043176889419556,-0.009731549769639969,0.13393434882164001
1773798646532988700,8.76198876953125,0.0646779015660286,-0.031928014010190964,0.07892036437988281
1773798646552950800,8.78195068359375,0.06801345944404602,-0.07196038216352463,0.09638750553131104
1773798646572914000,8.801913818359376,0.07092493772506714,-0.08934993296861649,0.12089045345783234
1773798646592875800,8.821875732421875,0.08064819872379303,-0.061043526977300644,0.0969044417142868
1773798646612838000,8.841837890625,0.08446785062551498,-0.03749854862689972,0.07336554676294327
1773798646632800800,8.86180078125,0.05132150277495384,-0.04291215166449547,0.0756760910153389
1773798646652764000,8.881763916015625,0.0058705126866698265,-0.030306151136755943,0.08578626066446304
1773798646672725800,8.901725830078124,-0.053809814155101776,-0.02075233682990074,0.0729207843542099
1773798646692688000,8.92168798828125,-0.08806965500116348,0.012220392934978008,0.05450105667114258
1773798646712650800,8.941650634765624,-0.06562761962413788,0.05266750231385231,0.06930583715438843
1773798646732612900,8.96161279296875,-0.0006863226881250739,0.06299393624067307,0.08571545034646988
1773798646752576000,8.981575927734376,0.051000356674194336,0.08646277338266373,0.0008191936649382114
1773798646772537600,9.00153759765625,0.052354276180267334,0.15186958014965057,-0.12665943801403046
1773798646792500700,9.021500732421876,0.017398741096258163,0.1845574826002121,-0.14425255358219147
1773798646812462800,9.041462890625,-0.02463151142001152,0.15756584703922272,-0.027253463864326477
1773798646832425700,9.06142578125,-0.016581889241933823,0.012545298784971237,0.07119295001029968
1773798646852387800,9.081387939453125,0.020318174734711647,-0.14260612428188324,0.05525579676032066
1773798646872350700,9.101350830078125,0.04061998799443245,-0.18435010313987732,-0.00897645391523838
1773798646892312800,9.121312744140624,0.023956619203090668,-0.09978244453668594,-0.04526098072528839
1773798646912275700,9.141275634765625,0.003993936814367771,-0.03722044453024864,-0.006629432085901499
1773798646932237800,9.16123779296875,-0.01620831899344921,-0.05584657937288284,0.048246871680021286
1773798646952201000,9.181200927734375,-0.039933014661073685,-0.08322586119174957,0.05541452765464783
1773798646972162800,9.201162841796876,-0.0494302362203598,-0.09948699176311493,0.0012141191400587559
1773798646992125700,9.221125732421875,-0.05722448229789734,-0.07384166121482849,-0.08038244396448135
1773798647012087800,9.241087890625,-0.05901455506682396,-0.018586527556180954,-0.1408969759941101
1773798647032051000,9.261051025390625,-0.059243958443403244,0.012466112151741982,-0.12462453544139862
1773798647052012800,9.2810126953125,-0.039833780378103256,0.008145508356392384,-0.03765469044446945
1773798647071975700,9.3009755859375,0.0067306156270205975,0.014356677420437336,0.028718987479805946
1773798647091937800,9.320937744140625,0.033997662365436554,0.08878760039806366,0.003770235227420926
1773798647111901000,9.34090087890625,0.04069817438721657,0.11336617916822433,-0.03123488649725914
1773798647131862800,9.36086279296875,0.022217387333512306,0.05297448858618736,-0.029144033789634705
1773798647151826000,9.380825927734374,-0.002497454872354865,0.025844478979706764,-0.018005114048719406
1773798647171787800,9.400787841796875,-0.031709201633930206,0.04222404956817627,-0.03464881330728531
1773798647191750700,9.420750732421874,-0.031054312363266945,-0.005282271653413773,-0.01602584682404995
1773798647211712800,9.440712646484375,-0.03307318314909935,0.00009442074224352837,0.04016100987792015
1773798647231676000,9.460676025390624,-0.033096812665462494,0.14392396807670593,0.03701445087790489
1773798647251637800,9.4806376953125,-0.018275022506713867,0.216484934091568,-0.024346087127923965
1773798647271600600,9.5006005859375,-0.004773077089339495,0.11283369362354279,-0.0691380724310875
1773798647291562800,9.520562744140625,-0.011198421940207481,0.024391649290919304,-0.08228769153356552
1773798647311526000,9.54052587890625,-0.019313957542181015,-0.0070193116553127766,-0.08951735496520996
1773798647331488000,9.560488037109375,-0.0070303925313055515,-0.08981992304325104,-0.08705499023199081
1773798647351450600,9.58045068359375,-0.002191450446844101,-0.1214497983455658,-0.08523634076118469
1773798647371412700,9.600412841796874,-0.03867899253964424,-0.03401590511202812,-0.11424241960048676
1773798647391376000,9.6203759765625,-0.08013471215963364,0.043462030589580536,-0.1048678308725357
1773798647411337700,9.640337646484374,-0.09627082943916321,0.009662901051342487,-0.06149827688932419
1773798647431300900,9.66030078125,-0.07420335710048676,-0.05271083116531372,-0.06456438452005386
1773798647451262700,9.6802626953125,-0.05524034425616264,-0.0793711468577385,-0.0970408022403717
1773798647471225900,9.700225830078125,-0.046032555401325226,-0.07467028498649597,-0.10853392630815506
1773798647491187700,9.720187744140626,-0.022991066798567772,-0.03333717957139015,-0.09271823614835739
1773798647511150800,9.74015087890625,0.01482720673084259,0.0207048449665308,-0.07297675311565399
1773798647531113000,9.760113037109376,0.027649451047182083,0.019140034914016724,-0.04478343203663826
1773798647551075600,9.78007568359375,0.013008597306907177,0.023219333961606026,-0.018932681530714035
1773798647571037700,9.80003759765625,-0.022310566157102585,0.004844493232667446,-0.02330080047249794
1773798647591000800,9.820000732421875,-0.03302808105945587,-0.021138980984687805,-0.044559210538864136
1773798647610963000,9.839962890625,-0.0015997032169252634,-0.03238314017653465,-0.031041553243994713
1773798647630925800,9.85992578125,0.023373425006866455,-0.02516946755349636,-0.004890081938356161
1773798647650887700,9.8798876953125,0.02010602504014969,-0.010686082765460014,-0.001931861974298954
1773798647670850800,9.899850830078124,-0.009362011216580868,-0.007721100002527237,-0.05750085040926933
1773798647690813000,9.91981298828125,-0.02482549659907818,-0.03816378116607666,-0.11677774786949158
1773798647710775800,9.93977587890625,-0.018098490312695503,-0.10327181220054626,-0.10260839015245438
1773798647730737700,9.959737548828125,-0.022281650453805923,-0.1636160910129547,-0.08335775136947632
1773798647750700800,9.97970068359375,-0.03653717413544655,-0.1685829609632492,-0.11396706104278564
1773798647770663000,9.999662841796875,-0.043996211141347885,-0.1986040621995926,-0.10962983220815659
1773798647790625800,10.019625732421876,-0.027516724541783333,-0.21825666725635529,-0.06539232283830643
1773798647810588000,10.039587890625,-0.0306658074259758,-0.16961820423603058,-0.04470702260732651
1773798647830550800,10.05955078125,-0.052121251821517944,-0.11105716973543167,-0.05371330678462982
1773798647850512600,10.0795126953125,-0.05415351688861847,-0.09631721675395966,-0.09328202903270721
1773798647870475800,10.099475830078125,-0.04643843695521355,-0.09891537576913834,-0.1185934990644455
1773798647890438000,10.11943798828125,-0.02720385231077671,-0.08225568383932114,-0.09596434980630875
1773798647910400800,10.13940087890625,-0.010192595422267914,-0.029182620346546173,-0.04692463204264641
1773798647930362600,10.159362548828126,-0.002091995207592845,0.041510388255119324,-0.03192383795976639
1773798647950325800,10.17932568359375,-0.003562607103958726,0.07137619704008102,-0.06514998525381088
1773798647970287900,10.199287841796876,-0.010278097353875637,0.087982676923275,-0.10256581008434296
1773798647990250800,10.219250732421875,-0.01459330040961504,0.05355355516076088,-0.06987122446298599
1773798648010211800,10.2392119140625,-0.009285424835979939,0.05869555100798607,-0.030708923935890198
1773798648030175000,10.259175048828125,-0.011534156277775764,0.08575794845819473,-0.03126979619264603
1773798648050137000,10.27913720703125,-0.00864301435649395,0.07792925834655762,-0.05852110683917999
1773798648070100000,10.299099853515624,-0.011738217435777187,0.03373975679278374,-0.09159967303276062
1773798648090062000,10.31906201171875,-0.025189388543367386,0.01813109964132309,-0.08769230544567108
1773798648110025000,10.33902490234375,-0.0427117757499218,0.08295027911663055,-0.06967417150735855
1773798648129987000,10.358987060546875,-0.05066823586821556,0.11079975217580795,-0.04486389458179474
1773798648149950000,10.378949951171874,-0.02941099740564823,0.08659488707780838,-0.06000211089849472
1773798648169912000,10.398912109375,-0.024347422644495964,0.059157226234674454,-0.1114189624786377
1773798648189875200,10.418875244140626,-0.03668570891022682,0.05565737560391426,-0.1420159786939621
1773798648209837000,10.438837158203125,-0.045879948884248734,0.03930406644940376,-0.12735500931739807
1773798648229800000,10.458800048828126,-0.04514572396874428,0.007029111497104168,-0.0982208400964737
1773798648249762000,10.478761962890625,-0.04406103119254112,0.01906133070588112,-0.08884918689727783
1773798648269725200,10.49872509765625,-0.034552741795778275,0.02300131693482399,-0.08862760663032532
1773798648289687000,10.51868701171875,-0.016452565789222717,-0.06560258567333221,-0.0767349898815155
1773798648309650000,10.53864990234375,-0.013411389663815498,-0.10150686651468277,-0.051112979650497437
1773798648329612000,10.558612060546874,-0.019271578639745712,-0.02614555135369301,-0.018436800688505173
1773798648349575200,10.5785751953125,-0.005178605671972036,-0.012005669996142387,0.015057246200740337
1773798648369537000,10.598537109375,0.018054811283946037,-0.05379679054021835,0.02110874652862549
1773798648389500200,10.618500244140625,0.02643268182873726,-0.07126874476671219,0.027015361934900284
1773798648409462000,10.6384619140625,0.010276944376528263,-0.07335380464792252,0.04602102190256119
1773798648429425000,10.6584248046875,-0.005215547047555447,-0.03612471744418144,0.05380919203162193
1773798648449387000,10.678386962890626,-0.015386495739221573,0.06310170143842697,0.04501994699239731
1773798648469350100,10.69835009765625,-0.024112874642014503,0.20007793605327606,0.05640256404876709
1773798648489312000,10.71831201171875,-0.0319686233997345,0.33464866876602173,0.05861137434840202
1773798648509275000,10.73827490234375,-0.035397760570049286,0.3493637144565582,0.06180024892091751
1773798648529238000,10.758238037109376,-0.016913214698433876,0.22418330609798431,0.05962154269218445
1773798648549200100,10.7782001953125,0.027079058811068535,-0.0637611448764801,0.05738421902060509
1773798648569163000,10.7981630859375,0.08124111592769623,-0.34314262866973877,0.12967196106910706
1773798648589125000,10.818125,0.08680938184261322,-0.4162864685058594,0.24613600969314575
1773798648609088000,10.838087890625,0.08112043887376785,-0.25974416732788086,0.3529641926288605
1773798648629050000,10.858050048828124,0.06491223722696304,0.023025672882795334,0.3240009844303131
1773798648649013000,10.878012939453125,0.0396384559571743,0.21033348143100739,0.12037035822868347
1773798648668975000,10.89797509765625,0.04433983936905861,0.2080983817577362,-0.059067580848932266
1773798648688938200,10.917938232421875,0.04801410809159279,0.10395095497369766,-0.08643927425146103
1773798648708900000,10.937900146484376,0.04116716608405113,0.030363814905285835,-0.01526976190507412
1773798648728863000,10.957863037109375,0.019213300198316574,-0.025074126198887825,0.022287476807832718
1773798648748825000,10.9778251953125,0.004428698681294918,-0.041578732430934906,0.037707701325416565
1773798648768788200,10.997788330078125,0.016899287700653076,0.0030002216808497906,0.04583115875720978
1773798648788749800,11.017749755859375,0.025953587144613266,0.11667755991220474,0.003409909550100565
1773798648808713000,11.037712890625,0.04738004133105278,0.15708427131175995,-0.018335606902837753
1773798648828675000,11.057675048828125,0.07151086628437042,0.10028176754713058,0.021195320412516594
1773798648848638000,11.077637939453124,0.07904671132564545,-0.01186312921345234,0.12243007123470306
1773798648868600000,11.09760009765625,0.06798817217350006,-0.14620696008205414,0.20260396599769592
1773798648888563200,11.117563232421874,0.04086420312523842,-0.19053146243095398,0.17293715476989746
1773798648908525000,11.137525146484375,0.021190928295254707,-0.1831871122121811,0.12447644025087357
1773798648928488000,11.157488037109376,-0.0075337933376431465,-0.08476943522691727,0.0939059928059578
1773798648948450000,11.177449951171875,-0.022486113011837006,0.05777546390891075,0.059014324098825455
1773798648968413200,11.1974130859375,-0.0022377334535121918,0.15133042633533478,0.03645654022693634
1773798648988375000,11.217375,0.03470617160201073,0.12949757277965546,0.0409729965031147
1773798649008338200,11.237338134765626,0.0762123391032219,0.042065564543008804,0.06964113563299179
1773798649028300300,11.25730029296875,0.11094646900892258,-0.045831773430109024,0.07180310040712357
1773798649048263200,11.27726318359375,0.1282825469970703,-0.05100591853260994,0.0042387149296700954
1773798649068225000,11.29722509765625,0.13485436141490936,-0.08525793254375458,-0.002862620633095503
1773798649088188200,11.317188232421875,0.08527576923370361,-0.15674056112766266,0.06444451212882996
1773798649108150300,11.337150390625,0.02602408267557621,-0.18522730469703674,0.16497214138507843
1773798649128113200,11.357113037109375,-0.029427753761410713,-0.14731448888778687,0.23476935923099518
1773798649148075000,11.377074951171876,-0.05298709124326706,-0.056190185248851776,0.27700096368789673
1773798649168038100,11.3970380859375,-0.02133525349199772,0.0028928613755851984,0.2660476863384247
1773798649188000300,11.417000244140626,0.055283885449171066,0.017011504620313644,0.1777268499135971
1773798649207963100,11.436963134765625,0.11755430698394775,-0.0002491096965968609,0.04529985412955284
1773798649227925000,11.456925048828126,0.10288365930318832,-0.011653977446258068,-0.0809004157781601
1773798649247888100,11.47688818359375,0.044449251145124435,-0.04566240683197975,-0.11863795667886734
1773798649267850200,11.496850341796875,-0.04503205418586731,-0.12328547984361649,-0.0895455852150917
1773798649287813000,11.516813232421875,-0.0948312059044838,-0.09829305857419968,-0.05461237579584122
1773798649307775200,11.536775146484375,-0.0936736911535263,0.002985977102071047,-0.033779531717300415
1773798649327738400,11.55673828125,-0.053034618496894836,0.0007615853101015091,0.015152882784605026
1773798649347700200,11.5767001953125,-0.031055167317390442,-0.049824003130197525,0.02373247966170311
1773798649367663000,11.5966630859375,-0.024900084361433983,-0.026553839445114136,-0.03225751221179962
1773798649387625200,11.616625244140625,0.009850536473095417,0.04758934676647186,-0.049613337963819504
1773798649407588400,11.63658837890625,0.054233454167842865,0.11109252274036407,0.050040557980537415
1773798649427550000,11.656550048828125,0.09926842153072357,0.13944420218467712,0.21208059787750244
1773798649447513000,11.67651318359375,0.10988228023052216,0.11420140415430069,0.24783006310462952
1773798649467475200,11.69647509765625,0.06124448403716087,0.12334296852350235,0.0835535004734993
1773798649487438000,11.71643798828125,0.012498770840466022,0.06484349071979523,-0.07648411393165588
1773798649507400200,11.736400146484375,-0.021049441769719124,-0.021857131272554398,-0.09024173766374588
1773798649527363000,11.756363037109375,-0.04764097183942795,0.039030686020851135,-0.03204445540904999
1773798649547325200,11.7763251953125,-0.045254625380039215,0.11989392340183258,0.008876876905560493
1773798649567288000,11.7962880859375,-0.020596275106072426,0.15683157742023468,0.012517131865024567
1773798649587250200,11.816250244140624,0.008332962170243263,0.14173093438148499,-0.014859352260828018
1773798649607213300,11.83621337890625,0.027500895783305168,0.05073923245072365,-0.03343890234827995
1773798649627175200,11.856175048828124,0.02725951559841633,-0.05273175239562988,-0.004118823911994696
