time,seconds_elapsed,z,y,x
1773790479581651700,0.026651611328125,-0.95220947265625,-0.2603912353515625,-0.13739013671875
1773790479601614600,0.046614501953125,-0.9515838623046875,-0.2579193115234375,-0.13739013671875
1773790479621578800,0.066578857421875,-0.952606201171875,-0.258636474609375,-0.1375732421875
1773790479641542100,0.086542236328125,-0.9532623291015625,-0.2576141357421875,-0.13726806640625
1773790479661505300,0.10650537109375,-0.952423095703125,-0.25946044921875,-0.1374664306640625
1773790479681469200,0.12646923828125,-0.953582763671875,-0.2568359375,-0.137786865234375
1773790479701432300,0.146432373046875,-0.9535369873046875,-0.2581939697265625,-0.137542724609375
1773790479721396200,0.166396240234375,-0.953826904296875,-0.259490966796875,-0.1373138427734375
1773790479741359400,0.186359375,-0.95367431640625,-0.259246826171875,-0.1378326416015625
1773790479761322200,0.206322265625,-0.9513702392578125,-0.2585296630859375,-0.13616943359375
1773790479781286100,0.2262861328125,-0.954193115234375,-0.258819580078125,-0.1376800537109375
1773790479801249300,0.246249267578125,-0.9531402587890625,-0.258758544921875,-0.13739013671875
1773790479821212400,0.26621240234375,-0.9523162841796875,-0.2583770751953125,-0.1380157470703125
1773790479841176300,0.28617626953125,-0.953857421875,-0.2579345703125,-0.1364288330078125
1773790479861139200,0.30613916015625,-0.9527587890625,-0.2587432861328125,-0.1369476318359375
1773790479881102300,0.326102294921875,-0.95184326171875,-0.2588348388671875,-0.13739013671875
1773790479901066200,0.346066162109375,-0.95184326171875,-0.2579803466796875,-0.1371917724609375
1773790479921029400,0.366029296875,-0.953216552734375,-0.2586517333984375,-0.13702392578125
1773790479940992000,0.385991943359375,-0.953155517578125,-0.257965087890625,-0.1367645263671875
1773790479960956400,0.405956298828125,-0.9540252685546875,-0.2596282958984375,-0.1373291015625
1773790479980919000,0.4259189453125,-0.95269775390625,-0.2587890625,-0.1379241943359375
1773790480000882200,0.445882080078125,-0.95208740234375,-0.2584228515625,-0.1383514404296875
1773790480020846000,0.46584619140625,-0.953521728515625,-0.2582550048828125,-0.1370086669921875
1773790480040809200,0.485809326171875,-0.95245361328125,-0.2596893310546875,-0.1376495361328125
1773790480060772000,0.505772216796875,-0.95263671875,-0.25836181640625,-0.1381683349609375
1773790480080736300,0.525736328125,-0.952117919921875,-0.2580718994140625,-0.136688232421875
1773790480100699100,0.54569921875,-0.9527587890625,-0.25799560546875,-0.13702392578125
1773790480120662300,0.565662353515625,-0.951751708984375,-0.258758544921875,-0.1371307373046875
1773790480140626200,0.585626220703125,-0.9527435302734375,-0.2581787109375,-0.1367645263671875
1773790480160589300,0.60558935546875,-0.95343017578125,-0.258636474609375,-0.1372528076171875
1773790480180552200,0.62555224609375,-0.9520416259765625,-0.2587890625,-0.135894775390625
1773790480200516000,0.64551611328125,-0.95257568359375,-0.2598419189453125,-0.1366729736328125
1773790480220479200,0.665479248046875,-0.952667236328125,-0.2585601806640625,-0.136444091796875
1773790480240442400,0.6854423828125,-0.953094482421875,-0.258880615234375,-0.13800048828125
1773790480260406300,0.70540625,-0.9517974853515625,-0.2577972412109375,-0.137176513671875
1773790480280369400,0.725369384765625,-0.9533538818359375,-0.259674072265625,-0.1372528076171875
1773790480300332300,0.745332275390625,-0.9537353515625,-0.2589111328125,-0.138671875
1773790480320296200,0.765296142578125,-0.9534912109375,-0.2582855224609375,-0.1369171142578125
1773790480340259300,0.78525927734375,-0.95257568359375,-0.258148193359375,-0.1368560791015625
1773790480360222500,0.805222412109375,-0.9527435302734375,-0.2590789794921875,-0.1374053955078125
1773790480380186400,0.825186279296875,-0.953155517578125,-0.2592926025390625,-0.13653564453125
1773790480400149200,0.845149169921875,-0.952362060546875,-0.2583770751953125,-0.13824462890625
1773790480420112100,0.865112060546875,-0.952880859375,-0.258056640625,-0.137603759765625
1773790480440076000,0.885075927734375,-0.953094482421875,-0.2586669921875,-0.1376190185546875
1773790480460039200,0.9050390625,-0.953826904296875,-0.25897216796875,-0.13690185546875
1773790480480002000,0.925001953125,-0.9515228271484375,-0.259490966796875,-0.1379852294921875
1773790480499965200,0.944965087890625,-0.95147705078125,-0.2585906982421875,-0.1377716064453125
1773790480519929000,0.96492919921875,-0.9524688720703125,-0.2589111328125,-0.137939453125
1773790480539892200,0.984892333984375,-0.95489501953125,-0.25848388671875,-0.1376190185546875
1773790480559855000,1.004855224609375,-0.9511871337890625,-0.2594146728515625,-0.136993408203125
1773790480579819300,1.0248193359375,-0.9530029296875,-0.2588958740234375,-0.1373138427734375
1773790480599782100,1.0447822265625,-0.9521636962890625,-0.2594757080078125,-0.137420654296875
1773790480619745300,1.064745361328125,-0.9526519775390625,-0.258819580078125,-0.13702392578125
1773790480639709200,1.084709228515625,-0.9530029296875,-0.2588653564453125,-0.138214111328125
1773790480659672300,1.10467236328125,-0.9537200927734375,-0.257965087890625,-0.136627197265625
1773790480679635200,1.12463525390625,-0.953155517578125,-0.2590789794921875,-0.137603759765625
1773790480699599400,1.144599365234375,-0.95233154296875,-0.2592620849609375,-0.136383056640625
1773790480719562200,1.164562255859375,-0.95294189453125,-0.257720947265625,-0.1371002197265625
1773790480739525400,1.184525390625,-0.952880859375,-0.2586822509765625,-0.1379241943359375
1773790480759489300,1.2044892578125,-0.9531402587890625,-0.2584991455078125,-0.136566162109375
1773790480779452400,1.224452392578125,-0.95269775390625,-0.2590179443359375,-0.137054443359375
1773790480799415300,1.244415283203125,-0.952484130859375,-0.259002685546875,-0.136260986328125
1773790480819379500,1.26437939453125,-0.9528045654296875,-0.258453369140625,-0.136962890625
1773790480839342000,1.284342041015625,-0.9535980224609375,-0.257965087890625,-0.1378173828125
1773790480859305200,1.30430517578125,-0.953155517578125,-0.2585296630859375,-0.1366119384765625
1773790480879269000,1.32426904296875,-0.95281982421875,-0.2587432861328125,-0.137451171875
1773790480899232300,1.344232177734375,-0.9531707763671875,-0.25885009765625,-0.1373138427734375
1773790480919195100,1.364195068359375,-0.9531097412109375,-0.2583465576171875,-0.13604736328125
1773790480939159000,1.384158935546875,-0.95257568359375,-0.2591094970703125,-0.1373443603515625
1773790480959122200,1.4041220703125,-0.952484130859375,-0.2581634521484375,-0.1366729736328125
1773790480979085300,1.424085205078125,-0.9520721435546875,-0.2582244873046875,-0.136810302734375
1773790480999048200,1.444048095703125,-0.9508209228515625,-0.2588348388671875,-0.1379852294921875
1773790481019012000,1.46401220703125,-0.9525146484375,-0.2577362060546875,-0.13726806640625
1773790481038975200,1.483975341796875,-0.9528045654296875,-0.25799560546875,-0.1366729736328125
1773790481058938400,1.5039384765625,-0.95166015625,-0.2583770751953125,-0.138702392578125
1773790481078902300,1.52390234375,-0.9541015625,-0.2584075927734375,-0.1368865966796875
1773790481098865200,1.543865234375,-0.9525604248046875,-0.25775146484375,-0.1376495361328125
1773790481118828300,1.563828369140625,-0.95208740234375,-0.2589111328125,-0.1374053955078125
1773790481138792200,1.583792236328125,-0.953399658203125,-0.258056640625,-0.1379547119140625
1773790481158755300,1.60375537109375,-0.9529571533203125,-0.2588958740234375,-0.1373291015625
1773790481178718200,1.62371826171875,-0.952850341796875,-0.2591705322265625,-0.137725830078125
1773790481198682400,1.643682373046875,-0.9535675048828125,-0.2591705322265625,-0.136932373046875
1773790481218645200,1.663645263671875,-0.952423095703125,-0.25982666015625,-0.13665771484375
1773790481238608100,1.683608154296875,-0.9529571533203125,-0.25848388671875,-0.136444091796875
1773790481258572300,1.703572265625,-0.9522705078125,-0.2592926025390625,-0.1370849609375
1773790481278535200,1.72353515625,-0.952789306640625,-0.25848388671875,-0.1362762451171875
1773790481298498000,1.743498046875,-0.9527130126953125,-0.2592926025390625,-0.1361846923828125
1773790481318462200,1.763462158203125,-0.952178955078125,-0.2567596435546875,-0.13702392578125
1773790481338425000,1.783425048828125,-0.95330810546875,-0.2585296630859375,-0.137176513671875
1773790481358388200,1.80338818359375,-0.9545135498046875,-0.2590789794921875,-0.13677978515625
1773790481378351000,1.82335107421875,-0.95196533203125,-0.25823974609375,-0.135589599609375
1773790481398315300,1.843315185546875,-0.9525604248046875,-0.2581329345703125,-0.13702392578125
1773790481418278100,1.863278076171875,-0.9528656005859375,-0.259063720703125,-0.1378021240234375
1773790481438241300,1.8832412109375,-0.9521942138671875,-0.2587432861328125,-0.1374053955078125
1773790481458205200,1.903205078125,-0.9519195556640625,-0.2593231201171875,-0.136688232421875
1773790481478168300,1.923168212890625,-0.952972412109375,-0.25860595703125,-0.13787841796875
1773790481498131200,1.943131103515625,-0.952911376953125,-0.2596435546875,-0.13720703125
1773790481518095400,1.963095458984375,-0.9521484375,-0.2580413818359375,-0.137969970703125
1773790481538058200,1.983058349609375,-0.9530181884765625,-0.259002685546875,-0.136932373046875
1773790481558021400,2.003021484375,-0.954071044921875,-0.2581939697265625,-0.1371002197265625
1773790481577985300,2.0229853515625,-0.9523468017578125,-0.2581787109375,-0.1374359130859375
1773790481597948400,2.042948486328125,-0.9524993896484375,-0.258636474609375,-0.137542724609375
1773790481617912300,2.062912353515625,-0.9532470703125,-0.25860595703125,-0.13568115234375
1773790481637875200,2.082875244140625,-0.953277587890625,-0.2585296630859375,-0.137115478515625
1773790481657839000,2.102839111328125,-0.952362060546875,-0.2589569091796875,-0.1376953125
1773790481677802000,2.122802001953125,-0.9534454345703125,-0.2581634521484375,-0.135528564453125
1773790481697765000,2.14276513671875,-0.9526214599609375,-0.25860595703125,-0.1372833251953125
1773790481717729000,2.16272900390625,-0.953521728515625,-0.2574462890625,-0.1380767822265625
1773790481737692200,2.182692138671875,-0.9526214599609375,-0.2586212158203125,-0.1380462646484375
1773790481757655000,2.202655029296875,-0.952239990234375,-0.2596893310546875,-0.1371002197265625
1773790481777618200,2.2226181640625,-0.9532623291015625,-0.2581634521484375,-0.136962890625
1773790481797582000,2.24258203125,-0.9525909423828125,-0.2597503662109375,-0.1373138427734375
1773790481817545200,2.262545166015625,-0.951934814453125,-0.258209228515625,-0.1371002197265625
1773790481837508000,2.282508056640625,-0.95166015625,-0.2578277587890625,-0.1382598876953125
1773790481857472300,2.30247216796875,-0.95257568359375,-0.2597198486328125,-0.13726806640625
1773790481877435100,2.32243505859375,-0.9520111083984375,-0.2591552734375,-0.1357574462890625
1773790481897398300,2.342398193359375,-0.953460693359375,-0.2591552734375,-0.1373291015625
1773790481917362200,2.362362060546875,-0.952545166015625,-0.2588653564453125,-0.138336181640625
1773790481937325300,2.3823251953125,-0.9528656005859375,-0.2588043212890625,-0.13623046875
1773790481957288200,2.4022880859375,-0.9529266357421875,-0.2585601806640625,-0.1378173828125
1773790481977251000,2.4222509765625,-0.951690673828125,-0.2580413818359375,-0.13861083984375
1773790481997215000,2.442215087890625,-0.9525146484375,-0.2593994140625,-0.1374053955078125
1773790482017177000,2.462177001953125,-0.951934814453125,-0.2576751708984375,-0.13824462890625
1773790482037141000,2.48214111328125,-0.9531707763671875,-0.2593841552734375,-0.136505126953125
1773790482057104100,2.502104248046875,-0.9517364501953125,-0.25909423828125,-0.136688232421875
1773790482077067300,2.5220673828125,-0.952606201171875,-0.25848388671875,-0.1367950439453125
1773790482097031200,2.54203125,-0.951507568359375,-0.2594451904296875,-0.1363525390625
1773790482116994000,2.561994140625,-0.9524993896484375,-0.2587738037109375,-0.1366424560546875
1773790482136957200,2.581957275390625,-0.9531402587890625,-0.2588043212890625,-0.13677978515625
1773790482156921000,2.601921142578125,-0.95294189453125,-0.2592315673828125,-0.137115478515625
1773790482176884200,2.62188427734375,-0.9525299072265625,-0.2585296630859375,-0.1365509033203125
1773790482196847000,2.64184716796875,-0.9527130126953125,-0.2592926025390625,-0.13714599609375
1773790482216810200,2.661810302734375,-0.9525299072265625,-0.258758544921875,-0.137908935546875
1773790482236774100,2.681774169921875,-0.952880859375,-0.2584686279296875,-0.13702392578125
1773790482256737300,2.7017373046875,-0.9516143798828125,-0.2586517333984375,-0.136932373046875
1773790482276700200,2.7217001953125,-0.95220947265625,-0.2580718994140625,-0.1363677978515625
1773790482296664300,2.741664306640625,-0.953155517578125,-0.2589263916015625,-0.1375732421875
1773790482316627200,2.761627197265625,-0.952972412109375,-0.2591705322265625,-0.1375885009765625
1773790482336590000,2.781590087890625,-0.953338623046875,-0.2582550048828125,-0.1377105712890625
1773790482356554000,2.801553955078125,-0.9530487060546875,-0.258697509765625,-0.137786865234375
1773790482376517000,2.82151708984375,-0.9521331787109375,-0.25897216796875,-0.1365814208984375
1773790482396480000,2.84147998046875,-0.953216552734375,-0.2578277587890625,-0.1381072998046875
1773790482416443100,2.861443115234375,-0.952606201171875,-0.2595062255859375,-0.137298583984375
1773790482436407000,2.881406982421875,-0.9521942138671875,-0.258575439453125,-0.13690185546875
1773790482456370200,2.9013701171875,-0.953155517578125,-0.25897216796875,-0.1373443603515625
1773790482476333000,2.9213330078125,-0.953216552734375,-0.2581939697265625,-0.135772705078125
1773790482496297200,2.941297119140625,-0.951904296875,-0.2576904296875,-0.1373443603515625
1773790482516260000,2.961260009765625,-0.95245361328125,-0.2591705322265625,-0.1366729736328125
1773790482536223200,2.98122314453125,-0.95263671875,-0.258880615234375,-0.1371917724609375
1773790482556187100,3.001187255859375,-0.95196533203125,-0.257598876953125,-0.1369171142578125
1773790482576150300,3.021150390625,-0.9534759521484375,-0.2576751708984375,-0.1376953125
1773790482596113200,3.041113037109375,-0.9524688720703125,-0.2589263916015625,-0.13677978515625
1773790482616076300,3.061076171875,-0.9517364501953125,-0.2583465576171875,-0.1370697021484375
1773790482636040400,3.08104052734375,-0.9525146484375,-0.2599334716796875,-0.1369781494140625
1773790482656003600,3.101003662109375,-0.9533233642578125,-0.259490966796875,-0.13616943359375
1773790482675966200,3.12096630859375,-0.9523468017578125,-0.2596588134765625,-0.13653564453125
1773790482695930400,3.140930419921875,-0.954010009765625,-0.258819580078125,-0.137237548828125
1773790482715893200,3.160893310546875,-0.95306396484375,-0.2576141357421875,-0.136871337890625
1773790482735856400,3.1808564453125,-0.9541015625,-0.259368896484375,-0.1376495361328125
1773790482755819300,3.2008193359375,-0.951446533203125,-0.25836181640625,-0.13616943359375
1773790482775783400,3.220783447265625,-0.9534149169921875,-0.259033203125,-0.1375885009765625
1773790482795746300,3.240746337890625,-0.9534454345703125,-0.2577667236328125,-0.13726806640625
1773790482815709400,3.26070947265625,-0.953765869140625,-0.2578887939453125,-0.1374969482421875
1773790482835673300,3.28067333984375,-0.9514312744140625,-0.2585601806640625,-0.1369781494140625
1773790482855636500,3.300636474609375,-0.9531402587890625,-0.259674072265625,-0.1375579833984375
1773790482875599400,3.320599365234375,-0.952789306640625,-0.2587738037109375,-0.1367950439453125
1773790482895562500,3.3405625,-0.9515380859375,-0.259490966796875,-0.137664794921875
1773790482915526400,3.3605263671875,-0.95166015625,-0.259552001953125,-0.1374664306640625
1773790482935489500,3.380489501953125,-0.9522552490234375,-0.2588348388671875,-0.1375885009765625
1773790482955452400,3.400452392578125,-0.953582763671875,-0.2583160400390625,-0.13665771484375
1773790482975416300,3.420416259765625,-0.9520721435546875,-0.2577056884765625,-0.13763427734375
1773790482995379500,3.44037939453125,-0.9532928466796875,-0.259307861328125,-0.13763427734375
1773790483015342600,3.460342529296875,-0.951934814453125,-0.2576904296875,-0.1364898681640625
1773790483035305200,3.48030517578125,-0.9523162841796875,-0.2586517333984375,-0.1359710693359375
1773790483055269000,3.50026904296875,-0.9525604248046875,-0.260009765625,-0.1381072998046875
1773790483075232300,3.520232177734375,-0.9531402587890625,-0.25860595703125,-0.1368255615234375
1773790483095195400,3.5401953125,-0.9523468017578125,-0.2583465576171875,-0.1369476318359375
1773790483115159300,3.5601591796875,-0.952392578125,-0.25836181640625,-0.1369476318359375
1773790483135122200,3.5801220703125,-0.9528045654296875,-0.2598419189453125,-0.1373291015625
1773790483155085300,3.600085205078125,-0.95208740234375,-0.2590789794921875,-0.1375732421875
1773790483175048400,3.62004833984375,-0.9537353515625,-0.25848388671875,-0.136474609375
1773790483195012400,3.640012451171875,-0.95306396484375,-0.258270263671875,-0.136474609375
1773790483214975200,3.659975341796875,-0.95147705078125,-0.2590484619140625,-0.136810302734375
1773790483234938400,3.6799384765625,-0.953582763671875,-0.25811767578125,-0.1364593505859375
1773790483254902300,3.69990234375,-0.9530487060546875,-0.2577972412109375,-0.1365966796875
1773790483274865400,3.719865478515625,-0.953521728515625,-0.257965087890625,-0.1365814208984375
1773790483294828300,3.739828369140625,-0.9524993896484375,-0.25830078125,-0.1371307373046875
1773790483314791400,3.75979150390625,-0.9530029296875,-0.2578887939453125,-0.136871337890625
1773790483334755300,3.77975537109375,-0.9523162841796875,-0.258331298828125,-0.1370086669921875
1773790483354718500,3.799718505859375,-0.9532928466796875,-0.2584991455078125,-0.1381683349609375
1773790483374681600,3.819681640625,-0.9547882080078125,-0.25811767578125,-0.136688232421875
1773790483394645500,3.8396455078125,-0.9525146484375,-0.259521484375,-0.136260986328125
1773790483414608100,3.859608154296875,-0.953521728515625,-0.259674072265625,-0.136199951171875
1773790483434571300,3.8795712890625,-0.9536285400390625,-0.2582855224609375,-0.13702392578125
1773790483454534400,3.899534423828125,-0.952728271484375,-0.25848388671875,-0.1374969482421875
1773790483474498300,3.919498291015625,-0.9528350830078125,-0.258453369140625,-0.136505126953125
1773790483494461200,3.939461181640625,-0.952301025390625,-0.2593231201171875,-0.1376495361328125
1773790483514424300,3.95942431640625,-0.9524078369140625,-0.259063720703125,-0.1358184814453125
1773790483534388200,3.97938818359375,-0.9532623291015625,-0.258270263671875,-0.137420654296875
1773790483554351400,3.999351318359375,-0.9518585205078125,-0.26007080078125,-0.136322021484375
1773790483574314200,4.019314208984375,-0.9528656005859375,-0.258514404296875,-0.13616943359375
1773790483594277400,4.03927734375,-0.9531097412109375,-0.2592315673828125,-0.1369476318359375
1773790483614241300,4.0592412109375,-0.95233154296875,-0.25885009765625,-0.136474609375
1773790483634204000,4.079203857421875,-0.952972412109375,-0.25921630859375,-0.13763427734375
1773790483654167000,4.0991669921875,-0.952545166015625,-0.2593536376953125,-0.1377716064453125
1773790483674131000,4.119130859375,-0.9521942138671875,-0.2581939697265625,-0.135345458984375
1773790483694093800,4.13909375,-0.9531097412109375,-0.259307861328125,-0.137115478515625
1773790483714057000,4.159056884765625,-0.951873779296875,-0.2597808837890625,-0.138031005859375
1773790483734020000,4.17902001953125,-0.9517974853515625,-0.2590179443359375,-0.1364898681640625
1773790483753984000,4.19898388671875,-0.953094482421875,-0.2589263916015625,-0.1371307373046875
1773790483773947000,4.21894677734375,-0.9521484375,-0.2590179443359375,-0.1379241943359375
1773790483793909800,4.23890966796875,-0.95367431640625,-0.25823974609375,-0.138092041015625
1773790483813873000,4.258872802734375,-0.953155517578125,-0.259246826171875,-0.1370849609375
1773790483833836800,4.2788369140625,-0.952972412109375,-0.2584075927734375,-0.1367950439453125
1773790483853800000,4.298800048828125,-0.9533233642578125,-0.25885009765625,-0.137359619140625
1773790483873762800,4.3187626953125,-0.9516754150390625,-0.258331298828125,-0.1376190185546875
1773790483893726700,4.338726806640625,-0.95428466796875,-0.2586822509765625,-0.13714599609375
1773790483913689900,4.35868994140625,-0.952880859375,-0.259552001953125,-0.1373748779296875
1773790483933653000,4.378653076171875,-0.9520721435546875,-0.258544921875,-0.1363525390625
1773790483953616000,4.398615966796875,-0.95294189453125,-0.2589874267578125,-0.1370391845703125
1773790483973579800,4.418579833984375,-0.9523773193359375,-0.2587890625,-0.1378021240234375
1773790483993543000,4.43854296875,-0.9517822265625,-0.25872802734375,-0.13671875
1773790484013506000,4.458506103515625,-0.952301025390625,-0.25970458984375,-0.1367340087890625
1773790484033470000,4.478469970703125,-0.952392578125,-0.257781982421875,-0.136749267578125
1773790484053432800,4.498432861328125,-0.952545166015625,-0.2591094970703125,-0.137115478515625
1773790484073396000,4.51839599609375,-0.9542694091796875,-0.2591094970703125,-0.137786865234375
1773790484093359000,4.538359130859375,-0.95263671875,-0.258392333984375,-0.1373138427734375
1773790484113323000,4.558322998046875,-0.9516143798828125,-0.2590789794921875,-0.136932373046875
1773790484133286000,4.578285888671875,-0.953033447265625,-0.257720947265625,-0.1371917724609375
1773790484153248800,4.598248779296875,-0.9521026611328125,-0.2595062255859375,-0.1366729736328125
1773790484173212000,4.6182119140625,-0.9535064697265625,-0.2590484619140625,-0.1381072998046875
1773790484193175800,4.63817578125,-0.9528045654296875,-0.258636474609375,-0.136688232421875
1773790484213139000,4.658138916015625,-0.952484130859375,-0.258575439453125,-0.1363983154296875
1773790484233101800,4.678101806640625,-0.952667236328125,-0.257904052734375,-0.136260986328125
1773790484253065700,4.698065673828125,-0.951904296875,-0.257843017578125,-0.13800048828125
1773790484273028900,4.71802880859375,-0.95318603515625,-0.2581939697265625,-0.138214111328125
1773790484292992000,4.737991943359375,-0.9527587890625,-0.2585906982421875,-0.1368408203125
1773790484312955000,4.757954833984375,-0.952362060546875,-0.25909423828125,-0.137481689453125
1773790484332918800,4.777918701171875,-0.95294189453125,-0.257781982421875,-0.13690185546875
1773790484352882000,4.7978818359375,-0.952301025390625,-0.2588958740234375,-0.1378326416015625
1773790484372845000,4.817844970703125,-0.9527435302734375,-0.25848388671875,-0.137451171875
1773790484392809000,4.83780908203125,-0.95306396484375,-0.2589569091796875,-0.1373291015625
1773790484412771800,4.857771728515625,-0.9523468017578125,-0.2596435546875,-0.1374053955078125
1773790484432735000,4.87773486328125,-0.953399658203125,-0.259124755859375,-0.1374664306640625
1773790484452698000,4.897697998046875,-0.9520263671875,-0.258453369140625,-0.136322021484375
1773790484472662000,4.917662109375,-0.9522857666015625,-0.2584991455078125,-0.1375885009765625
1773790484492625000,4.937625,-0.9534912109375,-0.2586822509765625,-0.1369476318359375
1773790484512587800,4.957587890625,-0.95281982421875,-0.2592315673828125,-0.136444091796875
1773790484532551000,4.977551025390625,-0.9533843994140625,-0.25811767578125,-0.1375885009765625
1773790484552514800,4.997514892578125,-0.952392578125,-0.258087158203125,-0.1354827880859375
1773790484572477700,5.017477783203125,-0.9538116455078125,-0.25775146484375,-0.13720703125
1773790484592440800,5.03744091796875,-0.9533233642578125,-0.2587127685546875,-0.1368408203125
1773790484612404700,5.05740478515625,-0.9517822265625,-0.2586517333984375,-0.1373138427734375
1773790484632368000,5.0773681640625,-0.9528656005859375,-0.2581939697265625,-0.1371307373046875
1773790484652330800,5.097330810546875,-0.95343017578125,-0.257415771484375,-0.1372222900390625
1773790484672294000,5.1172939453125,-0.95281982421875,-0.258270263671875,-0.1363677978515625
1773790484692257800,5.1372578125,-0.952056884765625,-0.258941650390625,-0.136566162109375
1773790484712221000,5.157220947265625,-0.9521331787109375,-0.2583160400390625,-0.1376953125
1773790484732183800,5.177183837890625,-0.9525146484375,-0.2584991455078125,-0.1362457275390625
1773790484752147000,5.19714697265625,-0.9524383544921875,-0.258636474609375,-0.1379547119140625
1773790484772110800,5.21711083984375,-0.951568603515625,-0.2586517333984375,-0.137725830078125
1773790484792074000,5.237073974609375,-0.952545166015625,-0.2585906982421875,-0.1371612548828125
1773790484812036900,5.257036865234375,-0.9534759521484375,-0.2590789794921875,-0.136810302734375
1773790484832001000,5.2770009765625,-0.9527435302734375,-0.2593841552734375,-0.136627197265625
1773790484851964000,5.2969638671875,-0.952880859375,-0.257965087890625,-0.1368865966796875
1773790484871927000,5.316927001953125,-0.9525299072265625,-0.258331298828125,-0.1356048583984375
1773790484891890200,5.33689013671875,-0.9533233642578125,-0.25897216796875,-0.1367340087890625
1773790484911854000,5.35685400390625,-0.9523773193359375,-0.2586669921875,-0.1366424560546875
1773790484931817000,5.37681689453125,-0.9532470703125,-0.2581939697265625,-0.1367645263671875
1773790484951780000,5.396780029296875,-0.95184326171875,-0.258697509765625,-0.1366729736328125
1773790484971743000,5.416742919921875,-0.953948974609375,-0.2592620849609375,-0.136810302734375
1773790484991707100,5.43670703125,-0.95184326171875,-0.2588043212890625,-0.1370849609375
1773790485011669800,5.456669677734375,-0.9517822265625,-0.2602081298828125,-0.1373291015625
1773790485031633000,5.4766328125,-0.9524993896484375,-0.2589263916015625,-0.13739013671875
1773790485051596800,5.4965966796875,-0.952178955078125,-0.2589569091796875,-0.1362152099609375
1773790485071560000,5.516559814453125,-0.952117919921875,-0.258819580078125,-0.1363372802734375
1773790485091522800,5.536522705078125,-0.9531707763671875,-0.2585601806640625,-0.13714599609375
1773790485111486000,5.55648583984375,-0.952606201171875,-0.26007080078125,-0.137908935546875
1773790485131449900,5.576449951171875,-0.953155517578125,-0.258575439453125,-0.1363372802734375
1773790485151413000,5.5964130859375,-0.9528045654296875,-0.25860595703125,-0.1367950439453125
1773790485171375900,5.6163759765625,-0.954376220703125,-0.2584228515625,-0.135833740234375
1773790485191339000,5.636339111328125,-0.952728271484375,-0.25927734375,-0.1365203857421875
1773790485211303000,5.656302978515625,-0.9535369873046875,-0.2576141357421875,-0.1358489990234375
1773790485231266000,5.67626611328125,-0.9528961181640625,-0.259429931640625,-0.136993408203125
1773790485251229000,5.69622900390625,-0.95172119140625,-0.257904052734375,-0.136383056640625
1773790485271192000,5.716192138671875,-0.953216552734375,-0.258697509765625,-0.1377716064453125
1773790485291156000,5.736156005859375,-0.9525604248046875,-0.258514404296875,-0.1378021240234375
1773790485311119000,5.756119140625,-0.9530487060546875,-0.2592926025390625,-0.137176513671875
1773790485331082000,5.77608203125,-0.9514312744140625,-0.2593536376953125,-0.1379852294921875
1773790485351046100,5.796046142578125,-0.952545166015625,-0.2584381103515625,-0.136566162109375
1773790485371008800,5.8160087890625,-0.9526824951171875,-0.2595367431640625,-0.137542724609375
1773790485390972000,5.835971923828125,-0.9518280029296875,-0.2603912353515625,-0.1368560791015625
1773790485410935000,5.85593505859375,-0.95263671875,-0.2583465576171875,-0.136810302734375
1773790485430899000,5.87589892578125,-0.9525909423828125,-0.2582244873046875,-0.13800048828125
1773790485450861800,5.89586181640625,-0.952606201171875,-0.2588043212890625,-0.13726806640625
1773790485470825000,5.915824951171875,-0.953338623046875,-0.259246826171875,-0.1372222900390625
1773790485490788000,5.9357880859375,-0.9543914794921875,-0.2585296630859375,-0.1372528076171875
1773790485510752000,5.955751953125,-0.951446533203125,-0.2578887939453125,-0.1368255615234375
1773790485530715000,5.97571484375,-0.9524383544921875,-0.2595367431640625,-0.136322021484375
1773790485550678000,5.995677978515625,-0.9535064697265625,-0.2583160400390625,-0.1372528076171875
1773790485570641200,6.01564111328125,-0.9521942138671875,-0.2589111328125,-0.1374969482421875
1773790485590605000,6.03560498046875,-0.9529876708984375,-0.2586822509765625,-0.13800048828125
1773790485610568000,6.05556787109375,-0.9528656005859375,-0.2587890625,-0.1366424560546875
1773790485630531000,6.075531005859375,-0.9529266357421875,-0.2597808837890625,-0.135986328125
1773790485650495200,6.0954951171875,-0.9510040283203125,-0.2580718994140625,-0.1380767822265625
1773790485670458400,6.115458251953125,-0.952972412109375,-0.25872802734375,-0.13726806640625
1773790485690421200,6.135421142578125,-0.95263671875,-0.2581939697265625,-0.137298583984375
1773790485710384400,6.15538427734375,-0.9528961181640625,-0.2588958740234375,-0.13787841796875
1773790485730348300,6.175348388671875,-0.9532012939453125,-0.2585296630859375,-0.136688232421875
1773790485750311400,6.1953115234375,-0.9521484375,-0.2588043212890625,-0.1366729736328125
1773790485770274000,6.215274169921875,-0.952728271484375,-0.258331298828125,-0.136871337890625
1773790485790237200,6.2352373046875,-0.9524688720703125,-0.2593231201171875,-0.137481689453125
1773790485810201000,6.255201171875,-0.9539642333984375,-0.25811767578125,-0.137786865234375
1773790485830164200,6.275164306640625,-0.9544525146484375,-0.25830078125,-0.137969970703125
1773790485850127000,6.295127197265625,-0.9531402587890625,-0.2595367431640625,-0.136474609375
1773790485870090200,6.31509033203125,-0.953155517578125,-0.2589569091796875,-0.1365509033203125
1773790485890054100,6.33505419921875,-0.9513702392578125,-0.2579345703125,-0.136444091796875
1773790485910017300,6.355017333984375,-0.9532318115234375,-0.2592010498046875,-0.1367645263671875
1773790485929980200,6.374980224609375,-0.952911376953125,-0.2588043212890625,-0.1356201171875
1773790485949943300,6.394943359375,-0.9537200927734375,-0.2591094970703125,-0.137237548828125
1773790485969907200,6.4149072265625,-0.9524993896484375,-0.259490966796875,-0.1369171142578125
1773790485989870300,6.434870361328125,-0.9528961181640625,-0.258392333984375,-0.137359619140625
1773790486009833200,6.454833251953125,-0.9524078369140625,-0.2586669921875,-0.1375885009765625
1773790486029796400,6.47479638671875,-0.9534759521484375,-0.2589111328125,-0.136474609375
1773790486049760300,6.49476025390625,-0.9511260986328125,-0.2583770751953125,-0.137176513671875
1773790486069723400,6.514723388671875,-0.9529876708984375,-0.25787353515625,-0.1371307373046875
1773790486089686300,6.534686279296875,-0.9541168212890625,-0.259521484375,-0.1375579833984375
1773790486109650400,6.554650390625,-0.953399658203125,-0.2587890625,-0.1383514404296875
1773790486129613000,6.574613037109375,-0.9520416259765625,-0.2578125,-0.1375732421875
1773790486149576200,6.594576171875,-0.9541168212890625,-0.2591094970703125,-0.1361236572265625
1773790486169539300,6.614539306640625,-0.9533538818359375,-0.2590484619140625,-0.136810302734375
1773790486189503200,6.634503173828125,-0.9527740478515625,-0.2584381103515625,-0.137054443359375
1773790486209466000,6.654466064453125,-0.9526214599609375,-0.25848388671875,-0.1369781494140625
1773790486229429200,6.67442919921875,-0.9517669677734375,-0.259307861328125,-0.13641357421875
1773790486249392400,6.694392333984375,-0.952056884765625,-0.25848388671875,-0.1370391845703125
1773790486269356300,6.714356201171875,-0.953155517578125,-0.2600860595703125,-0.1366424560546875
1773790486289319200,6.734319091796875,-0.95306396484375,-0.25927734375,-0.138031005859375
1773790486309282300,6.7542822265625,-0.953155517578125,-0.2576904296875,-0.1371307373046875
1773790486329245400,6.774245361328125,-0.9529266357421875,-0.2574920654296875,-0.13702392578125
1773790486349209300,6.794209228515625,-0.9522857666015625,-0.2585601806640625,-0.1381072998046875
1773790486369172200,6.814172119140625,-0.9521942138671875,-0.2592926025390625,-0.136566162109375
1773790486389135400,6.83413525390625,-0.952880859375,-0.2586822509765625,-0.13714599609375
1773790486409098500,6.854098388671875,-0.9530029296875,-0.2584686279296875,-0.137542724609375
1773790486429062400,6.8740625,-0.9526519775390625,-0.2585601806640625,-0.1375732421875
1773790486449025300,6.894025390625,-0.95355224609375,-0.258392333984375,-0.1381683349609375
1773790486468988200,6.91398828125,-0.9516448974609375,-0.2594146728515625,-0.137786865234375
1773790486488951300,6.933951416015625,-0.9524383544921875,-0.259368896484375,-0.1365509033203125
1773790486508915200,6.953915283203125,-0.9525604248046875,-0.2581634521484375,-0.1373138427734375
1773790486528878300,6.97387841796875,-0.95269775390625,-0.2585601806640625,-0.1353912353515625
1773790486548841200,6.99384130859375,-0.95172119140625,-0.258880615234375,-0.1370697021484375
1773790486568804400,7.013804443359375,-0.953033447265625,-0.25946044921875,-0.1368865966796875
1773790486588768300,7.033768310546875,-0.95306396484375,-0.2587890625,-0.1368560791015625
1773790486608731400,7.0537314453125,-0.952850341796875,-0.258514404296875,-0.1366729736328125
1773790486628694300,7.0736943359375,-0.953033447265625,-0.259735107421875,-0.1378173828125
1773790486648659700,7.09365966796875,-0.95391845703125,-0.2587127685546875,-0.1360931396484375
1773790486668623600,7.11362353515625,-0.95123291015625,-0.2576904296875,-0.137908935546875
1773790486688586800,7.133586669921875,-0.954437255859375,-0.25860595703125,-0.1373291015625
1773790486708549600,7.153549560546875,-0.95220947265625,-0.259552001953125,-0.1367034912109375
1773790486728512800,7.1735126953125,-0.9526214599609375,-0.2593536376953125,-0.1363983154296875
1773790486748476700,7.1934765625,-0.9520416259765625,-0.2588958740234375,-0.1380157470703125
1773790486768439800,7.213439697265625,-0.952423095703125,-0.25830078125,-0.136322021484375
1773790486788402700,7.233402587890625,-0.953887939453125,-0.2589263916015625,-0.137847900390625
1773790486808365800,7.25336572265625,-0.95318603515625,-0.259429931640625,-0.1373291015625
1773790486828329700,7.273329833984375,-0.95367431640625,-0.258270263671875,-0.1380157470703125
1773790486848292900,7.29329296875,-0.952239990234375,-0.2583770751953125,-0.1368865966796875
1773790486868255700,7.313255859375,-0.9519500732421875,-0.2589569091796875,-0.137847900390625
1773790486888219000,7.333218994140625,-0.9537506103515625,-0.2600250244140625,-0.1371002197265625
1773790486908182800,7.353182861328125,-0.9526519775390625,-0.25872802734375,-0.137451171875
1773790486928146000,7.37314599609375,-0.952178955078125,-0.2579498291015625,-0.1369476318359375
1773790486948108800,7.39310888671875,-0.9525299072265625,-0.2590179443359375,-0.137054443359375
1773790486968073000,7.413072998046875,-0.9527130126953125,-0.25823974609375,-0.1370849609375
1773790486988035600,7.43303564453125,-0.9521331787109375,-0.25860595703125,-0.137359619140625
1773790487007998700,7.452998779296875,-0.953155517578125,-0.2587432861328125,-0.13702392578125
1773790487027961900,7.4729619140625,-0.9530029296875,-0.2584381103515625,-0.13775634765625
1773790487047925800,7.49292578125,-0.952239990234375,-0.259368896484375,-0.1378173828125
1773790487067888600,7.512888671875,-0.953125,-0.257354736328125,-0.13671875
1773790487087851800,7.532851806640625,-0.9534759521484375,-0.258819580078125,-0.1359710693359375
1773790487107815000,7.55281494140625,-0.9526214599609375,-0.2590789794921875,-0.1381988525390625
1773790487127777800,7.57277783203125,-0.9540557861328125,-0.25823974609375,-0.1375732421875
1773790487147741700,7.59274169921875,-0.953094482421875,-0.2599334716796875,-0.1378936767578125
1773790487167704800,7.612704833984375,-0.9526214599609375,-0.2593231201171875,-0.135986328125
1773790487187668000,7.63266796875,-0.9521331787109375,-0.257415771484375,-0.1385498046875
1773790487207632000,7.6526318359375,-0.9530181884765625,-0.2587127685546875,-0.1360321044921875
1773790487227594800,7.6725947265625,-0.952423095703125,-0.258392333984375,-0.1360626220703125
1773790487247558000,7.692557861328125,-0.951904296875,-0.25909423828125,-0.138153076171875
1773790487267520800,7.712520751953125,-0.95220947265625,-0.258056640625,-0.1378173828125
1773790487287485000,7.73248486328125,-0.9529571533203125,-0.258758544921875,-0.1371307373046875
1773790487307447600,7.752447509765625,-0.9521026611328125,-0.2595672607421875,-0.1359710693359375
1773790487327410700,7.77241064453125,-0.951995849609375,-0.258758544921875,-0.1370697021484375
1773790487347373800,7.792373779296875,-0.9529266357421875,-0.25860595703125,-0.137237548828125
1773790487367337700,7.812337646484375,-0.953033447265625,-0.2585906982421875,-0.1363983154296875
1773790487387300600,7.832300537109375,-0.9539642333984375,-0.2590789794921875,-0.137054443359375
1773790487407263700,7.852263671875,-0.9526214599609375,-0.25860595703125,-0.13665771484375
1773790487427227000,7.872226806640625,-0.9527435302734375,-0.258880615234375,-0.1371612548828125
1773790487447190800,7.892190673828125,-0.9531402587890625,-0.2578277587890625,-0.1379547119140625
1773790487467153700,7.912153564453125,-0.9526214599609375,-0.258087158203125,-0.135986328125
1773790487487116800,7.93211669921875,-0.953216552734375,-0.2593231201171875,-0.136383056640625
1773790487507080000,7.952079833984375,-0.9525146484375,-0.25848388671875,-0.137298583984375
1773790487527043800,7.9720439453125,-0.952972412109375,-0.2584228515625,-0.1371612548828125
1773790487547006700,7.9920068359375,-0.952880859375,-0.258331298828125,-0.137725830078125
1773790487566969900,8.011969970703126,-0.9520416259765625,-0.258697509765625,-0.1368865966796875
1773790487586932700,8.0319326171875,-0.9539947509765625,-0.2587738037109375,-0.137451171875
1773790487606897000,8.05189697265625,-0.9536285400390625,-0.2579193115234375,-0.1362152099609375
1773790487626859800,8.07185986328125,-0.9527587890625,-0.2589874267578125,-0.1368255615234375
1773790487646819800,8.09181982421875,-0.95208740234375,-0.259124755859375,-0.1366424560546875
1773790487666783000,8.111782958984374,-0.9521026611328125,-0.2581787109375,-0.1361236572265625
1773790487686747000,8.131746826171875,-0.95355224609375,-0.258819580078125,-0.1370086669921875
1773790487706709800,8.151709716796875,-0.9517822265625,-0.258819580078125,-0.1373291015625
1773790487726673000,8.1716728515625,-0.9542388916015625,-0.25909423828125,-0.1376800537109375
1773790487746636000,8.191635986328125,-0.952362060546875,-0.2595367431640625,-0.1370849609375
1773790487766600000,8.211599853515626,-0.9524383544921875,-0.2587127685546875,-0.137359619140625
1773790487786562800,8.231562744140625,-0.952545166015625,-0.259368896484375,-0.136688232421875
1773790487806526000,8.25152587890625,-0.9515838623046875,-0.257720947265625,-0.1369476318359375
1773790487826489000,8.271489013671875,-0.9525604248046875,-0.2592926025390625,-0.13720703125
1773790487846453000,8.291452880859374,-0.9527740478515625,-0.2576751708984375,-0.13824462890625
1773790487866415900,8.311415771484375,-0.953460693359375,-0.258880615234375,-0.137603759765625
1773790487886379000,8.33137890625,-0.95159912109375,-0.2586517333984375,-0.1370697021484375
1773790487906342000,8.351341796875,-0.952178955078125,-0.2591400146484375,-0.13677978515625
1773790487926306000,8.37130615234375,-0.95330810546875,-0.2585601806640625,-0.1370849609375
1773790487946268700,8.3912685546875,-0.9527435302734375,-0.258575439453125,-0.13653564453125
1773790487966231800,8.411231689453125,-0.9517059326171875,-0.258544921875,-0.1371917724609375
1773790487986195000,8.43119482421875,-0.952301025390625,-0.2584686279296875,-0.1366119384765625
1773790488006158800,8.451158935546875,-0.9537811279296875,-0.2587890625,-0.1357879638671875
1773790488026121700,8.471121826171874,-0.9517364501953125,-0.2591552734375,-0.136871337890625
1773790488046084900,8.4910849609375,-0.9530792236328125,-0.2588348388671875,-0.1357574462890625
1773790488066048000,8.511048095703124,-0.953582763671875,-0.2581024169921875,-0.137176513671875
1773790488086012000,8.531011962890625,-0.9527130126953125,-0.2583770751953125,-0.13690185546875
1773790488105975000,8.55097509765625,-0.9526824951171875,-0.259521484375,-0.1366424560546875
1773790488125938000,8.57093798828125,-0.95196533203125,-0.2583465576171875,-0.136749267578125
1773790488145901000,8.590901123046875,-0.9537200927734375,-0.2596282958984375,-0.1372222900390625
1773790488165865000,8.610864990234376,-0.951934814453125,-0.2586669921875,-0.1369476318359375
1773790488185828000,8.630828125,-0.9539031982421875,-0.2586212158203125,-0.13580322265625
1773790488205791000,8.650791015625,-0.953399658203125,-0.2581329345703125,-0.13702392578125
1773790488225753900,8.67075390625,-0.9518890380859375,-0.2584991455078125,-0.1373443603515625
1773790488245718000,8.690718017578124,-0.9535675048828125,-0.259521484375,-0.136322021484375
1773790488265681000,8.710680908203125,-0.9522247314453125,-0.2591400146484375,-0.1369476318359375
1773790488285643800,8.730643798828124,-0.95263671875,-0.257720947265625,-0.1380462646484375
1773790488305607000,8.75060693359375,-0.9536590576171875,-0.259674072265625,-0.13671875
1773790488325570800,8.77057080078125,-0.9517669677734375,-0.2595672607421875,-0.137298583984375
1773790488345534000,8.790533935546875,-0.953094482421875,-0.2588043212890625,-0.1364593505859375
1773790488365496800,8.810496826171875,-0.9513092041015625,-0.2584686279296875,-0.1371307373046875
1773790488385460000,8.8304599609375,-0.952545166015625,-0.258544921875,-0.13702392578125
1773790488405422800,8.8504228515625,-0.95318603515625,-0.2583770751953125,-0.136322021484375
1773790488425387000,8.870386962890626,-0.9526214599609375,-0.25897216796875,-0.1377105712890625
1773790488445350000,8.890349853515625,-0.95196533203125,-0.25872802734375,-0.1363983154296875
1773790488465313000,8.91031298828125,-0.95294189453125,-0.2582855224609375,-0.1370849609375
1773790488485277000,8.93027685546875,-0.9520263671875,-0.258331298828125,-0.137603759765625
1773790488505240000,8.950239990234374,-0.9535675048828125,-0.2589569091796875,-0.1370086669921875
1773790488525203000,8.970202880859375,-0.95306396484375,-0.258941650390625,-0.136749267578125
1773790488545166000,8.990166015625,-0.952545166015625,-0.2585906982421875,-0.1359100341796875
1773790488565130000,9.0101298828125,-0.95367431640625,-0.259124755859375,-0.1373748779296875
1773790488585092900,9.0300927734375,-0.9530792236328125,-0.2588653564453125,-0.137359619140625
1773790488605055700,9.0500556640625,-0.95306396484375,-0.2581939697265625,-0.1368560791015625
1773790488625019000,9.070018798828125,-0.9528656005859375,-0.25927734375,-0.13824462890625
1773790488644983000,9.089983154296876,-0.9535369873046875,-0.2589874267578125,-0.1373138427734375
1773790488664946200,9.1099462890625,-0.952880859375,-0.2584228515625,-0.1356201171875
1773790488684908800,9.12990869140625,-0.9517364501953125,-0.2582855224609375,-0.1374664306640625
1773790488704872000,9.149871826171875,-0.9524688720703125,-0.2592315673828125,-0.136810302734375
1773790488724834800,9.169834716796874,-0.953094482421875,-0.25885009765625,-0.1377410888671875
1773790488744799000,9.189799072265625,-0.95330810546875,-0.2596282958984375,-0.137451171875
1773790488764761900,9.209761962890624,-0.9517669677734375,-0.258453369140625,-0.1374664306640625
1773790488784725000,9.22972509765625,-0.9538421630859375,-0.25897216796875,-0.1370697021484375
1773790488804688000,9.24968798828125,-0.952056884765625,-0.2587890625,-0.1367645263671875
1773790488824652000,9.269652099609376,-0.95257568359375,-0.2587890625,-0.13623046875
1773790488844615000,9.289614990234375,-0.953277587890625,-0.2574615478515625,-0.137969970703125
1773790488864578000,9.309578125,-0.95367431640625,-0.259979248046875,-0.13812255859375
1773790488884541000,9.329541015625,-0.952850341796875,-0.2599334716796875,-0.1368408203125
1773790488904505000,9.349505126953124,-0.951263427734375,-0.2580108642578125,-0.13751220703125
1773790488924468000,9.369468017578125,-0.9526214599609375,-0.258575439453125,-0.13714599609375
1773790488944431000,9.38943115234375,-0.9531707763671875,-0.2591094970703125,-0.1364593505859375
1773790488964394000,9.40939404296875,-0.9520263671875,-0.259002685546875,-0.1386871337890625
1773790488984358100,9.429358154296875,-0.953948974609375,-0.258758544921875,-0.1379547119140625
1773790489004321000,9.449321044921875,-0.95281982421875,-0.257843017578125,-0.135986328125
1773790489024284000,9.469283935546875,-0.9532470703125,-0.259002685546875,-0.136962890625
1773790489044247000,9.4892470703125,-0.952362060546875,-0.258331298828125,-0.1365966796875
1773790489064211000,9.5092109375,-0.951263427734375,-0.25848388671875,-0.136199951171875
1773790489084173800,9.529173828125,-0.9518585205078125,-0.2593841552734375,-0.1378631591796875
1773790489104137000,9.549136962890625,-0.953582763671875,-0.2597503662109375,-0.1371002197265625
1773790489124100000,9.56910009765625,-0.953338623046875,-0.259185791015625,-0.1372222900390625
1773790489144064000,9.58906396484375,-0.9524383544921875,-0.25872802734375,-0.1382598876953125
1773790489164027000,9.60902685546875,-0.9528045654296875,-0.259033203125,-0.137298583984375
1773790489183990000,9.628989990234375,-0.951934814453125,-0.257904052734375,-0.1361236572265625
1773790489203953200,9.648953125,-0.9525299072265625,-0.2584228515625,-0.1378326416015625
1773790489223917000,9.6689169921875,-0.9533843994140625,-0.259613037109375,-0.13677978515625
1773790489243880000,9.6888798828125,-0.9523773193359375,-0.259033203125,-0.1367950439453125
1773790489263843000,9.708843017578126,-0.952423095703125,-0.2579803466796875,-0.13824462890625
1773790489283806200,9.72880615234375,-0.9527130126953125,-0.2589874267578125,-0.136962890625
1773790489303770000,9.74877001953125,-0.953521728515625,-0.2586517333984375,-0.13623046875
1773790489323733000,9.76873291015625,-0.9521636962890625,-0.258392333984375,-0.136566162109375
1773790489343696000,9.78869580078125,-0.9535675048828125,-0.258819580078125,-0.13671875
1773790489363659000,9.808658935546875,-0.952178955078125,-0.2590789794921875,-0.1379547119140625
1773790489383623000,9.828622802734374,-0.952850341796875,-0.2589569091796875,-0.138031005859375
1773790489403585800,9.848585693359375,-0.952117919921875,-0.25830078125,-0.1376190185546875
1773790489423549000,9.868548828125,-0.9527587890625,-0.2585601806640625,-0.136932373046875
1773790489443512000,9.888511962890625,-0.9526824951171875,-0.258026123046875,-0.137054443359375
1773790489463476000,9.90847607421875,-0.9523773193359375,-0.257659912109375,-0.136871337890625
1773790489483438800,9.92843896484375,-0.9542694091796875,-0.259033203125,-0.13677978515625
1773790489503402000,9.948402099609375,-0.9521942138671875,-0.258880615234375,-0.136993408203125
1773790489523365000,9.968365234375,-0.9524688720703125,-0.2581939697265625,-0.1373291015625
1773790489543329000,9.9883291015625,-0.9532928466796875,-0.2590179443359375,-0.1380615234375
1773790489563292000,10.0082919921875,-0.9527435302734375,-0.25836181640625,-0.13623046875
1773790489583255000,10.028255126953125,-0.953369140625,-0.25860595703125,-0.1379852294921875
1773790489603218200,10.04821826171875,-0.95220947265625,-0.257568359375,-0.1365814208984375
1773790489623182000,10.06818212890625,-0.9517059326171875,-0.2596435546875,-0.1379852294921875
1773790489643145000,10.08814501953125,-0.95184326171875,-0.25836181640625,-0.1369781494140625
1773790489663108000,10.108108154296875,-0.9515838623046875,-0.26019287109375,-0.13702392578125
1773790489683071200,10.1280712890625,-0.9525909423828125,-0.2591400146484375,-0.1370086669921875
1773790489703035100,10.14803515625,-0.95318603515625,-0.2594146728515625,-0.137786865234375
1773790489722998000,10.167998046875,-0.95361328125,-0.259368896484375,-0.1370697021484375
1773790489742961200,10.187961181640626,-0.9522247314453125,-0.258636474609375,-0.136383056640625
1773790489762924300,10.20792431640625,-0.9521942138671875,-0.25872802734375,-0.1360626220703125
1773790489782888200,10.22788818359375,-0.9524993896484375,-0.2585601806640625,-0.136566162109375
1773790489802851300,10.247851318359375,-0.952972412109375,-0.2596282958984375,-0.1371612548828125
1773790489822814000,10.26781396484375,-0.9525909423828125,-0.2584228515625,-0.1365509033203125
1773790489842777000,10.287777099609375,-0.9524383544921875,-0.2591552734375,-0.137542724609375
1773790489862741000,10.307740966796874,-0.953155517578125,-0.2591094970703125,-0.1365203857421875
1773790489882704100,10.3277041015625,-0.953369140625,-0.258819580078125,-0.1358184814453125
1773790489902667000,10.3476669921875,-0.952484130859375,-0.258697509765625,-0.137420654296875
1773790489922630100,10.367630126953125,-0.95233154296875,-0.258270263671875,-0.13702392578125
1773790489942593000,10.387593017578125,-0.9515533447265625,-0.260467529296875,-0.135498046875
1773790489962557200,10.40755712890625,-0.9511871337890625,-0.259613037109375,-0.1379547119140625
1773790489982520000,10.42752001953125,-0.9526824951171875,-0.258758544921875,-0.1370086669921875
1773790490002483200,10.447483154296876,-0.95269775390625,-0.2592926025390625,-0.136627197265625
1773790490022446000,10.467446044921875,-0.9513092041015625,-0.259765625,-0.1370697021484375
1773790490042410200,10.48741015625,-0.953643798828125,-0.2595062255859375,-0.13763427734375
1773790490062373000,10.507373046875,-0.9532623291015625,-0.257843017578125,-0.1368865966796875
1773790490082336300,10.527336181640624,-0.9526214599609375,-0.2584228515625,-0.136932373046875
1773790490102299100,10.547299072265625,-0.951171875,-0.2589569091796875,-0.1374664306640625
1773790490122263300,10.56726318359375,-0.9538726806640625,-0.25823974609375,-0.13665771484375
1773790490142226200,10.58722607421875,-0.9526214599609375,-0.259246826171875,-0.137542724609375
1773790490162189000,10.60718896484375,-0.95361328125,-0.259246826171875,-0.1365509033203125
1773790490182152000,10.62715185546875,-0.952728271484375,-0.2587738037109375,-0.1372833251953125
1773790490202116000,10.6471162109375,-0.9532012939453125,-0.259674072265625,-0.1368255615234375
1773790490222079000,10.667078857421876,-0.95269775390625,-0.25885009765625,-0.1358795166015625
1773790490242042000,10.6870419921875,-0.9521636962890625,-0.259368896484375,-0.1359405517578125
1773790490262005000,10.7070048828125,-0.95263671875,-0.25750732421875,-0.1374359130859375
1773790490281969200,10.72696923828125,-0.9523162841796875,-0.258880615234375,-0.137237548828125
1773790490301932000,10.74693212890625,-0.9531097412109375,-0.2594757080078125,-0.136474609375
1773790490321895200,10.766895263671875,-0.95306396484375,-0.257843017578125,-0.136962890625
1773790490341858000,10.786858154296874,-0.9523773193359375,-0.2578277587890625,-0.1376495361328125
1773790490361822200,10.806822265625,-0.952545166015625,-0.259063720703125,-0.1355743408203125
1773790490381785000,10.82678515625,-0.95306396484375,-0.258636474609375,-0.1369171142578125
1773790490401748200,10.846748291015626,-0.9533843994140625,-0.258331298828125,-0.13580322265625
1773790490421711000,10.866711181640625,-0.9517059326171875,-0.259857177734375,-0.13836669921875
1773790490441675300,10.88667529296875,-0.952392578125,-0.258087158203125,-0.1368408203125
1773790490461638100,10.90663818359375,-0.952301025390625,-0.2591094970703125,-0.138031005859375
1773790490481601000,10.92660107421875,-0.95233154296875,-0.258636474609375,-0.136993408203125
1773790490501564000,10.94656396484375,-0.952117919921875,-0.2602691650390625,-0.1369171142578125
1773790490521528000,10.966528076171874,-0.953948974609375,-0.2590484619140625,-0.136810302734375
1773790490541491000,10.986490966796875,-0.9524383544921875,-0.2584228515625,-0.1372222900390625
1773790490561454000,11.0064541015625,-0.9529876708984375,-0.258209228515625,-0.1381072998046875
1773790490581417000,11.0264169921875,-0.9539337158203125,-0.258880615234375,-0.13641357421875
1773790490601381000,11.046381103515625,-0.95269775390625,-0.2597198486328125,-0.137664794921875
1773790490621344000,11.066343994140626,-0.952789306640625,-0.2589874267578125,-0.1370391845703125
1773790490641307000,11.086306884765625,-0.9526519775390625,-0.2592926025390625,-0.138275146484375
1773790490661269800,11.106269775390626,-0.9544677734375,-0.258026123046875,-0.1359710693359375
1773790490681234000,11.12623388671875,-0.9519805908203125,-0.258697509765625,-0.1365203857421875
1773790490701196500,11.146196533203126,-0.9534912109375,-0.2579803466796875,-0.138275146484375
1773790490721159700,11.16615966796875,-0.9512176513671875,-0.2594146728515625,-0.13800048828125
1773790490741122800,11.186122802734374,-0.9508819580078125,-0.259796142578125,-0.1372222900390625
1773790490761086700,11.206086669921875,-0.953704833984375,-0.2591400146484375,-0.136688232421875
1773790490781049900,11.2260498046875,-0.9518585205078125,-0.2592620849609375,-0.1361846923828125
1773790490801012700,11.2460126953125,-0.9517974853515625,-0.25921630859375,-0.136566162109375
1773790490820975900,11.265975830078125,-0.9523773193359375,-0.25787353515625,-0.1374053955078125
1773790490840939800,11.285939697265626,-0.95263671875,-0.2582550048828125,-0.137298583984375
1773790490860903000,11.30590283203125,-0.951904296875,-0.258880615234375,-0.1368560791015625
1773790490880865800,11.32586572265625,-0.952728271484375,-0.2595062255859375,-0.137420654296875
1773790490900829000,11.345828857421875,-0.952911376953125,-0.2580108642578125,-0.1375732421875
1773790490920791800,11.365791748046876,-0.9530487060546875,-0.259307861328125,-0.1368865966796875
1773790490940756000,11.385755859375,-0.9528045654296875,-0.257904052734375,-0.1354827880859375
1773790490960718800,11.40571875,-0.952392578125,-0.2577667236328125,-0.1373443603515625
