time,seconds_elapsed,z,y,x
1773790479592881700,0.037881591796875,0.035220950984954834,0.020176234327256678,-0.029007337167114018
1773790479612844800,0.0578447265625,0.03601064005792141,0.019643150363862515,-0.03794847625270486
1773790479632808200,0.07780810546875,0.03652911097407341,0.01570844126343727,-0.0340089448466897
1773790479652772000,0.097772216796875,0.03911445129215717,0.021880992418527603,-0.03376563761010766
1773790479672735200,0.1177353515625,0.04271744422018528,0.021071429601311684,-0.032503070328384634
1773790479692699100,0.13769921875,0.027549101182818413,0.004035246865451336,-0.0324697525806725
1773790479712662300,0.157662353515625,0.025577508848905563,0.014903262360394,-0.030696459297835824
1773790479732625200,0.177625244140625,0.037084406769275664,0.020777707351744175,-0.035167467232048506
1773790479752589300,0.19758935546875,0.02791910353899002,0.0212646140858531,-0.016884937696903943
1773790479772552200,0.21755224609375,0.03925824367702007,0.022303894005715846,-0.02891512883901596
1773790479792515300,0.237515380859375,0.030545360389351843,0.024011282445490358,-0.01609261827543378
1773790479812479200,0.257479248046875,0.034652211186289784,0.01951923172324896,-0.03301204276382923
1773790479832442400,0.2774423828125,0.030696167036890983,0.008922726646065712,-0.024529461100697515
1773790479852405200,0.2974052734375,0.03291968830525875,0.007075345213711262,-0.017109832493960857
1773790479872369400,0.317369384765625,0.030504443857073783,0.021044249333441255,-0.02860007154047489
1773790479892332300,0.337332275390625,0.040481063470244404,0.012367606402933598,-0.031111762100458143
1773790479912295400,0.35729541015625,0.019279285487532615,0.010923252813518046,-0.021056378162652253
1773790479932259300,0.37725927734375,0.034246552994847294,0.017166238856315612,-0.02609846398308873
1773790479952222500,0.397222412109375,0.02481295421719551,0.0195391054674983,-0.026020430310815572
1773790479972185000,0.41718505859375,0.03577916938960552,0.008990238924324512,-0.015829437294602393
1773790479992149000,0.43714892578125,0.03632335926890373,0.012119769121706486,-0.024699118579179048
1773790480012112100,0.457112060546875,0.023862521624565123,0.011619710645079611,-0.01772723373994231
1773790480032075300,0.4770751953125,0.03461012561023235,0.01907353378236294,-0.02153729354739189
1773790480052039200,0.4970390625,0.04545125309824943,0.01240706163048744,-0.013601239851117133
1773790480072002000,0.517001953125,0.033093291306495666,0.024198037189245222,-0.003642448155581951
1773790480091965200,0.536965087890625,0.04727086974084377,0.012084990069270133,-0.01582373820617795
1773790480111929000,0.55692919921875,0.02602759070396423,0.023564123199880122,-0.019379969383031128
1773790480131892200,0.576892333984375,0.0331353768825531,0.022294249394536017,-0.018247896613180638
1773790480151855000,0.596855224609375,0.04734978019595146,0.012912673065066337,-0.013253887718170881
1773790480171819300,0.6168193359375,0.021929507735371587,-0.0010685060143470764,-0.0144664783783257
1773790480191782100,0.6367822265625,0.03407528808116913,0.01698942098468542,-0.012319383347034453
1773790480211745300,0.656745361328125,0.030457682105898855,0.007831132017076015,-0.013718436489999293
1773790480231709200,0.676709228515625,0.03196282597184181,0.009043722677230834,-0.006790975314378738
1773790480251672300,0.69667236328125,0.025690321573615074,0.01056932480931282,-0.01577332319319248
1773790480271635200,0.71663525390625,0.030785598886013028,0.01459258897602558,-0.009820406138151884
1773790480291599400,0.736599365234375,0.026867548659443855,0.024453765515983102,-0.023365678018331525
1773790480311562200,0.756562255859375,0.03850128782987594,0.0011222820281982422,-0.02386953588724136
1773790480331525400,0.776525390625,0.023198504757881162,0.007528641939163207,-0.018894670084118843
1773790480351489300,0.7964892578125,0.03272621155977249,0.01486146904528141,-0.0179532975807786
1773790480371452400,0.816452392578125,0.027633856856822965,0.007798398791253566,-0.007848229282349347
1773790480391415000,0.8364150390625,0.0368476754039526,0.024888649801909923,-0.019579583608359097
1773790480411378200,0.856378173828125,0.03803542388379574,0.0035784430086612698,-0.014005875129252672
1773790480431342000,0.876342041015625,0.03775193076729774,0.012815934692323207,-0.01854205725416541
1773790480451305200,0.89630517578125,0.034137247401475904,0.01929331401288509,-0.009782119954377413
1773790480471268000,0.91626806640625,0.03845218799114227,0.0038648587346076964,-0.0146690152131021
1773790480491232300,0.936232177734375,0.02809679819345474,0.026766134111583233,-0.008481851010769604
1773790480511195100,0.956195068359375,0.017160393637418746,0.0184846279785037,-0.015027181001007556
1773790480531158300,0.976158203125,0.030048516783118245,0.017594693401455877,-0.008158025883883237
1773790480551122200,0.9961220703125,0.03539338494241238,0.014366671265661716,-0.014114596200734375
1773790480571085300,1.016085205078125,0.030002924075722692,0.0029199790999293327,-0.02173442355468869
1773790480591048200,1.036048095703125,0.037488895916938776,0.013964520205557345,-0.02680865807905793
1773790480611012000,1.05601220703125,0.030142624807357785,0.003883563435077667,-0.002958995936065912
1773790480630975200,1.075975341796875,0.03685936584174633,0.013411270236968994,-0.016211422349512575
1773790480650938400,1.0959384765625,0.02959434327483177,0.015261574278771877,-0.020365619419515132
1773790480670902300,1.11590234375,0.024363456884026528,0.014229600882530212,-0.014464140290766954
1773790480690865200,1.135865234375,0.0320984350502491,0.004322539374232292,-0.011975684475898743
1773790480710828300,1.155828369140625,0.036897944286465645,0.0190773331746459,-0.007598346174508333
1773790480730792200,1.175792236328125,0.023245851030945775,0.011787468427419661,-0.007733370731025934
1773790480750755300,1.19575537109375,0.029112112715840337,0.014302958379685878,-0.015534984392672776
1773790480770718500,1.215718505859375,0.027892215532064436,0.013257248719036578,0.0000301028773188591
1773790480790682400,1.235682373046875,0.03429740639925003,0.0024839257702231406,-0.019516162983328103
1773790480810645200,1.255645263671875,0.027854806131124496,0.005623392839729785,-0.013767682459205389
1773790480830608100,1.275608154296875,0.02411269699335098,0.01660597462505102,-0.009245090468227862
1773790480850572300,1.295572265625,0.03131459119617939,0.011123451560735702,-0.003211363261938095
1773790480870535200,1.31553515625,0.029770868885517117,0.0070376435518264766,-0.00532280245795846
1773790480890498000,1.335498046875,0.021839491364359854,0.011683715792000293,-0.013865297614783048
1773790480910462200,1.355462158203125,0.03709668172895908,0.018351941509544847,-0.0003771627493202686
1773790480930425000,1.375425048828125,0.0302291340470314,0.004295359106361866,0.00471475356221199
1773790480950388200,1.39538818359375,0.033195582637190815,0.015818623639643193,-0.008117547743022441
1773790480970352000,1.41535205078125,0.04200783464610577,0.012225275322794913,-0.004112988276779651
1773790480990315300,1.435315185546875,0.02851473134458065,0.0062765960514545435,-0.020460019704699513
1773790481010278100,1.455278076171875,0.03677519468963146,0.01931786393225193,-0.016691753212362527
1773790481030241300,1.4752412109375,0.03351180897951126,0.019161212065815926,-0.009261457081139087
1773790481050205200,1.495205078125,0.033821021059155465,0.010238485419750212,-0.011095540640503167
1773790481070168300,1.515168212890625,0.025890228059887884,0.00732025988548994,-0.0054151569165289395
1773790481090131200,1.535131103515625,0.04833177697062492,0.004115034103393554,0.008950345305353402
1773790481110095400,1.555095458984375,0.03458791377842426,0.010147592265903949,-0.011516396401077508
1773790481130058200,1.575058349609375,0.024069442373514174,0.009324585445225238,-0.013294804250448941
1773790481150021400,1.595021484375,0.03707563894093036,0.006909048736095428,-0.013619798421114682
1773790481169985300,1.6149853515625,0.031106501403450965,0.01554506739526987,0.0004167641073465347
1773790481189948400,1.634948486328125,0.026766426372528074,0.004983633631467819,-0.007796791356056928
1773790481209911300,1.654911376953125,0.021112346133589744,0.015628654025495053,-0.006577478694170713
1773790481229875200,1.674875244140625,0.03621288463175296,0.0014610124632716177,-0.008089198431372641
1773790481249838000,1.694838134765625,0.022458500045537948,0.01098930378705263,-0.013322422909736632
1773790481269801200,1.71480126953125,0.034870822373032566,-0.0023196751192212104,-0.008347264845669269
1773790481289765000,1.73476513671875,0.030245500659942626,0.00009264671951532363,-0.008341565757244825
1773790481309728300,1.754728271484375,0.032331074762344356,0.013595394632220268,-0.010586860466003418
1773790481329691100,1.774691162109375,0.028759646016359327,0.004658347199857235,-0.003336743207275867
1773790481349654300,1.794654296875,0.03846972364783287,0.007072130343317985,-0.005201660296320915
1773790481369618200,1.8146181640625,0.027823826470971105,0.011140694956481456,-0.0009175532363355159
1773790481389581300,1.834581298828125,0.03650456105470657,0.012143442258238792,-0.009073387163132428
1773790481409544200,1.854544189453125,0.032307693886756896,0.010752864682674407,-0.016572949138283728
1773790481429508000,1.874508056640625,0.02648819395303726,0.01442483119368553,-0.00832695271000266
1773790481449471200,1.89447119140625,0.02601706930994987,0.005296645103394985,-0.006224865864217281
1773790481469434400,1.914434326171875,0.044129649105668065,0.015434885019063949,0.00023687749579548835
1773790481489398300,1.934398193359375,0.02869417956471443,0.01383534086793661,-0.006124328099191188
1773790481509361200,1.954361083984375,0.03212649210095406,0.008108195392787456,-0.009124678958952427
1773790481529324300,1.97432421875,0.02744973246157169,0.008784194958209991,0.0007185235328972339
1773790481549288200,1.9942880859375,0.0373182155251503,0.0030021044254302976,-0.013994476952403783
1773790481569251300,2.014251220703125,0.03806932615339756,0.019495850847661495,-0.009903408246487378
1773790481589214200,2.034214111328125,0.03039338469803333,0.007461714182794094,-0.012598200288414954
1773790481611673000,2.056673095703125,0.0244996504843235,0.011019698925316334,0.0004544657692313194
1773790481631637000,2.076636962890625,0.032554362124204636,0.011787760688364506,-0.010477701003104448
1773790481651600100,2.09660009765625,0.02491056937277317,0.01222410627901554,-0.009618161564320325
1773790481671563300,2.116563232421875,0.019658640193939207,0.014467793552577496,-0.013555354882776736
1773790481691527200,2.136527099609375,0.03161386640369892,0.016167583207786083,-0.005619008925557136
1773790481711490000,2.156489990234375,0.0241162041246891,0.015189385825395583,-0.006985767234116792
1773790481731453200,2.176453125,0.027836101430654524,0.02044365309178829,-0.0171951726898551
1773790481751417000,2.1964169921875,0.03217734550535679,0.009447919563949107,-0.0061466860614717
1773790481771380200,2.216380126953125,0.03250993846058845,0.015319734206795691,-0.001073620580881834
1773790481791343000,2.236343017578125,0.026083120283484456,0.013899930536746978,-0.005180325247347355
1773790481811307300,2.256307373046875,0.04209902006089687,0.011280980210006236,-0.006715279729664326
1773790481831270100,2.276270263671875,0.03158171769976616,0.01064560491591692,-0.01501066825762391
1773790481851233300,2.2962333984375,0.015694412738084793,0.01083469774723053,0.008138006009161472
1773790481871196000,2.31619580078125,0.029288053804636,0.018214871126413346,0.0023757892206311224
1773790481891160300,2.336160400390625,0.027602877196669578,0.01691489444375038,-0.0028263094671070574
1773790481911123000,2.356123046875,0.04228139089047909,0.004043430171906948,-0.021640607791393995
1773790481931086000,2.376086181640625,0.04287701869606971,0.01971826142668724,-0.01331774673461914
1773790481951050000,2.396050048828125,0.030296938586235046,0.006988543713092803,-0.006190525203198194
1773790481971013000,2.41601318359375,0.03480243331193924,0.007419044084846973,-0.01584755747318268
1773790481990976000,2.43597607421875,0.038086861810088156,0.003355447907745838,-0.010810878480225801
1773790482010940200,2.455940185546875,0.02447217795550823,0.01780161415040493,-0.02805412809550762
1773790482030902300,2.47590234375,0.03073065382838249,0.004677636422216892,0.007960603615641593
1773790482050865200,2.495865234375,0.04046528137922287,0.0118707627967,-0.007995236537605524
1773790482070829000,2.5158291015625,0.03253273481428623,0.006842997762560844,-0.0028762860886752603
1773790482090792200,2.535792236328125,0.03745265555977821,0.003360708604753017,-0.007311199796199798
1773790482110755300,2.55575537109375,0.031463644278049464,0.007982815447449684,0.0023227438591420647
1773790482130718200,2.57571826171875,0.03126724492311477,0.012163900524377822,-0.009139730397611855
1773790482150682000,2.59568212890625,0.024965514430403707,0.0051715574190020555,0.00032923195436596866
1773790482170645200,2.615645263671875,0.034520109239220616,0.009407003031671047,-0.01187251636236906
1773790482190608400,2.6356083984375,0.03628361178040504,0.004842471595108509,-0.003109802583605051
1773790482210572300,2.655572265625,0.03582476209700108,0.014410802668333052,-0.007362783852964639
1773790482230535000,2.675534912109375,0.027738486275076864,0.012143442258238792,0.001252776540070772
1773790482250498000,2.695498046875,0.04119067304432392,0.013747662584483622,-0.0008089782953262329
1773790482270462000,2.7154619140625,0.026093641677498815,0.012164192785322665,-0.00958396703377366
1773790482290425000,2.735425048828125,0.0245955120742321,0.014951777677237987,-0.007073883908987045
1773790482310388000,2.755387939453125,0.02248889518380165,0.011564765587449073,-0.013680588697642087
1773790482330351000,2.77535107421875,0.030091771402955055,0.0063899932980537415,0.002860796258598566
1773790482350315000,2.79531494140625,0.028111995762586592,0.020191139635443688,-0.010732260286062955
1773790482370278100,2.815278076171875,0.030064298874139785,0.01196224047243595,-0.006443038659542799
1773790482390241000,2.835240966796875,0.02588029118776321,0.004548457084596157,-0.004083177660405636
1773790482410205200,2.855205078125,0.024375731843709943,0.011144202087819575,-0.017214608042687176
1773790482430168000,2.87516796875,0.03229074275195598,0.004955284319818019,0.0012546762362122535
1773790482450131200,2.895131103515625,0.025561726757884023,0.008371230243146418,-0.012350509137660264
1773790482470095000,2.91509521484375,0.02671615749001503,0.010844342358410359,0.005307020366936922
1773790482490058200,2.935058349609375,0.033114334094524384,0.027191958308219907,-0.001395253750681877
1773790482510021000,2.955021240234375,0.028044775745272636,0.011548691235482692,-0.011393646804243325
1773790482529984300,2.974984375,0.029532968476414678,0.0024421324551105496,0.0011960779167711733
1773790482549948200,2.9949482421875,0.02701017200052738,0.012853051832318305,-0.004520546164363623
1773790482569911300,3.014911376953125,0.046503392499685284,0.012869418445229529,-0.0015570201836526392
1773790482589874000,3.0348740234375,0.024967852517962453,0.0064919923678040505,-0.0031090719312429427
1773790482609838300,3.05483837890625,0.033633974054455756,0.007099018350243568,-0.006031389118731021
1773790482629801200,3.07480126953125,0.028534605088829993,0.006792728880047798,0.0006475041233003139
1773790482649764400,3.094764404296875,0.035094109734892846,0.004208849866688251,-0.0010297814391553401
1773790482669727200,3.114727294921875,0.029724107134342193,0.011328618744015693,0.0057039107300341126
1773790482689691400,3.13469140625,0.03674012337625027,0.019903262604773042,-0.007731032643467187
1773790482709654300,3.154654296875,0.03199497467577457,0.01630319228619337,-0.01162482521161437
1773790482729617400,3.174617431640625,0.026755904978513715,0.01553892991542816,0.0018827450066804885
1773790482749581300,3.194581298828125,0.043971243673563004,0.01667611725181341,-0.006282587400823831
1773790482769544400,3.21454443359375,0.029153613770008087,0.005498889677226543,-0.0030520810469985005
1773790482789507300,3.23450732421875,0.022877017718553543,0.005171265158057213,-0.0015584814883768557
1773790482809470500,3.254470458984375,0.018572598522901534,0.01597907489836216,-0.011460428430140017
1773790482829434400,3.274434326171875,0.041301147681474686,0.005645896932482719,0.00019157704934477806
1773790482849397500,3.2943974609375,0.04473696734905243,0.006657704323530197,0.0022474866658449173
1773790482869360400,3.3143603515625,0.027397125491499898,0.009323708662390708,-0.005758125135302544
1773790482889324500,3.334324462890625,0.042667759859561914,0.006735445734858512,0.002350070257484913
1773790482909287400,3.354287353515625,0.03072247052192688,0.01326543202549219,-0.00026990298256278036
1773790482929250300,3.374250244140625,0.029073534271121023,0.009245382729172706,-0.005823153195530176
1773790482949213200,3.394213134765625,0.028628713113069533,0.00936813232600689,-0.004751578441262245
1773790482969177300,3.41417724609375,0.028318331989645958,0.010161620791256426,-0.011195786144584417
1773790482989140200,3.43414013671875,0.024870237362384796,0.016452829889953134,-0.0009853577755391597
1773790483009103400,3.454103271484375,0.03177928609848022,0.005680675984919071,-0.00447509958744049
1773790483029067300,3.4740673828125,0.03797989430427551,0.005916822828352451,0.0008550093941390514
1773790483049030400,3.494030517578125,0.04051788834929466,0.004412848006188869,0.0024079379245638844
1773790483068993300,3.5139931640625,0.02989011135101318,-0.0005082417830824851,-0.013012772438675164
1773790483088957200,3.533957275390625,0.03468552893400192,0.005121580797433853,-0.007865911069512366
1773790483108920300,3.55392041015625,0.024478023174405096,0.013025778050720692,0.0033444881223142144
1773790483128883500,3.573883544921875,0.03795826699435711,0.006242986042797565,-0.012060586280375719
1773790483148846300,3.593846435546875,0.034191607937216754,0.0019391513690352438,-0.004022679644823074
1773790483168810200,3.613810302734375,0.03132569711208343,0.013460077814757823,-0.0038598902985453602
1773790483188773400,3.6337734375,0.028235914403200148,0.007887538379430771,0.001512596520036459
1773790483208736500,3.653736572265625,0.028368600872159002,0.008527882109582424,-0.003982932156324386
1773790483228700400,3.673700439453125,0.03431260396838188,0.002525426824390888,-0.0037983693696558474
1773790483248663600,3.69366357421875,0.016316928550601004,0.019836042587459086,0.004362579123675823
1773790483268626400,3.71362646484375,0.039946810463070866,0.01805734247714281,-0.007103110003471374
1773790483288589300,3.73358935546875,0.030538346126675605,0.007077683301270008,-0.0020376433074474334
1773790483308553500,3.753553466796875,0.03501110762655735,0.013089198675751685,-0.01274418463036418
1773790483328516400,3.773516357421875,0.03736965345144272,0.012952128292620182,-0.01116144548356533
1773790483348479200,3.793479248046875,0.028116087415814398,0.009231354203820229,-0.005393091215193271
1773790483368443100,3.813443115234375,0.017613982623815534,0.015913900707662104,-0.0010515548795461654
1773790483388406300,3.83340625,0.033626959791779515,-0.00208528184145689,0.0038085985027253625
1773790483408369400,3.853369384765625,0.03456044124960899,0.008898176726698875,0.003130406980216503
1773790483428332300,3.873332275390625,0.02722059988081455,0.008905483250319958,0.010800795477628708
1773790483448296200,3.893296142578125,0.028738018706440924,0.01078501338660717,-0.010772153905034065
1773790483468259300,3.91325927734375,0.03698796065747738,0.014602818109095096,-0.00358911053314805
1773790483488222500,3.933222412109375,0.03864332664906978,0.010654665005207061,-0.00025251345634460447
1773790483508185300,3.953185302734375,0.034305005183815955,0.007519289588928222,-0.0005744388870894909
1773790483528149200,3.973149169921875,0.03072247052192688,0.0173018479347229,-0.0007582710213959216
1773790483548112400,3.9931123046875,0.036547231152653695,0.0046925417304039,-0.009581628946214914
1773790483568075500,4.013075439453125,0.03985679409205913,0.012401216411590575,-0.0031339141115546225
1773790483588039400,4.033039306640625,0.02685118204653263,0.0044081718310713764,0.0016832769118249415
1773790483608002300,4.053002197265625,0.027591186758875844,0.013262217155098914,0.0024402327589690682
1773790483627965400,4.07296533203125,0.036493455138802526,-0.003089490447938442,-0.008888385985046625
1773790483647928000,4.092927978515625,0.026752397847175598,0.006218143862485885,-0.004507540552318096
1773790483667892000,4.11289208984375,0.025537176838517188,0.0025198738664388657,-0.007749298952519893
1773790483687855000,4.132855224609375,0.02766074486374855,0.001986497642099857,-0.0039006607003509997
1773790483707817700,4.152817626953125,0.0502758967757225,0.004175824379920959,-0.0036355800233781334
1773790483727782000,4.172781982421875,0.032599954831600185,0.013906652538478373,-0.017878478778898716
1773790483747744800,4.192744873046875,0.038076340416073794,-0.00015928221493959426,0.004556348130106926
1773790483767708000,4.2127080078125,0.027166239345073697,0.005168342548608779,-0.004706424125283957
1773790483787670800,4.2326708984375,0.03551730358302593,0.015088555799424648,0.000950140331685543
1773790483807635000,4.252635009765625,0.03552782497704029,0.008966273526847361,-0.009940963777899742
1773790483827597800,4.272597900390625,0.0350742359906435,0.009609247605502604,0.011709434755146502
1773790483847561000,4.29256103515625,0.03012859628200531,0.009162965142726898,0.0032243688739836216
1773790483867523800,4.31252392578125,0.037917350462079044,0.009157996706664562,0.003180383601784706
1773790483887488000,4.332488037109375,0.02567395496070385,0.009352057974040508,0.006334609849005937
1773790483907451000,4.352450927734375,0.05168050287663936,0.0015375848308205604,-0.0023524083450436593
1773790483927414000,4.3724140625,0.031793899145722386,0.011165537136793136,-0.00631444384381175
1773790483947378000,4.3923779296875,0.03685878131985664,0.0022337504014372823,0.0012425474070012568
1773790483967341000,4.412341064453125,0.031762919485568995,0.008650047184526919,0.005971329494565725
1773790483987304000,4.432303955078125,0.03356441594958305,0.01552285556346178,-0.005870499468594789
1773790484007267000,4.45226708984375,0.0264952082157135,0.024772622206807135,-0.010637860000878572
1773790484027231000,4.47223095703125,0.03602116145193576,0.013734218581020832,-0.005844195983558893
1773790484047194000,4.492194091796875,0.025400398716330527,0.007305062316358089,0.004747194527089596
1773790484067156700,4.51215673828125,0.024777298381924627,0.010221534284949303,-0.0025533377446234225
1773790484087121000,4.532120849609375,0.028627544069290158,0.011061199979484081,-0.0018485504761338234
1773790484107083800,4.552083740234375,0.04252981269359588,-0.0004015665382146835,0.004274754709750413
1773790484127047000,4.572046875,0.03786532801389694,0.0079646952688694,0.000602057546377182
1773790484147009800,4.592009765625,0.016027590215206146,0.0012114216163754462,-0.005856763204187154
1773790484166974000,4.611973876953125,0.03755670045614242,0.006928337958455085,0.007231997080147266
1773790484186936800,4.631936767578125,0.032892800298333164,0.01671411117464304,-0.0006374211207032203
1773790484206900000,4.65189990234375,0.028518822997808453,0.0067947747066617005,-0.00044788989797234533
1773790484226862800,4.67186279296875,0.018919804525375367,0.009431552951037883,0.0031232465870678424
1773790484246827000,4.691826904296875,0.030141455763578413,0.018783903186023233,-0.0034448797568678853
1773790484266790000,4.711789794921875,0.02281388935446739,0.013650924211740493,-0.011922492983937263
1773790484286753000,4.7317529296875,0.03014379385113716,0.007253624390065669,-0.003746493051946163
1773790484306717000,4.751717041015625,0.04166764290630817,0.013536065660417079,0.0016333002902567386
1773790484326680000,4.77168017578125,0.0395534272313118,-0.00016454291194677352,-0.007935469174385071
1773790484346643000,4.791642822265625,0.028593641799688336,0.0035150223836302756,0.0044235155306756495
1773790484366606000,4.811606201171875,0.023952537995576857,0.010858370883762836,-0.0011205284625291825
1773790484386570000,4.831570068359375,0.03918050226569175,0.015765724408626555,-0.005887742864340543
1773790484406533000,4.851533203125,0.028950200152397153,0.017355916209518908,-0.004934095401316881
1773790484426495700,4.871495849609375,0.0325426716864109,0.004933949270844459,0.004789864625036716
1773790484446460000,4.8914599609375,0.026728432449698445,0.004540566039085388,-0.0019213234513998031
1773790484466422800,4.9114228515625,0.03746843765079975,0.0026198271095752715,-0.011606266641616821
1773790484486386000,4.931385986328125,0.020094693523645398,0.016094225710630416,0.000013736264407634734
1773790484506348800,4.951348876953125,0.029641689547896383,0.006771978352963924,0.005860124205052853
1773790484526312700,4.971312744140625,0.042298926547169685,0.014147183296084402,-0.004848170683532953
1773790484546275800,4.99127587890625,0.030631869629025456,0.007410276256501674,-0.0026329788520932196
1773790484566239000,5.011239013671875,0.029426000970602034,0.027628596159815787,0.0035325580403208733
1773790484586201900,5.031201904296875,0.028225977531075475,0.012505845829844474,0.01240077802017331
1773790484606165800,5.051165771484375,0.033711130943894385,0.016002163513004777,0.006834960586577654
1773790484626129000,5.07112890625,0.02889291700720787,0.01844283466339111,-0.0017239011831581591
1773790484646092000,5.091092041015625,0.03833645265698433,0.010920622465014457,-0.000716039314866066
1773790484666056000,5.111055908203125,0.025359482184052467,0.013967735075950621,0.016533493910729884
1773790484686018800,5.131018798828125,0.041105917370319364,0.0032592940568923947,-0.0018031038992106913
1773790484705982000,5.15098193359375,0.03573825285732746,0.010383154587447643,-0.007213292379677295
1773790484725945000,5.170945068359375,0.02509703185558319,0.004041968867182732,0.010239362202584743
1773790484745909000,5.190908935546875,0.026695114701986312,0.010457973389327526,-0.007933861739188433
1773790484765872000,5.2108720703125,0.04477379222810268,0.00944908860772848,0.005352174682915211
1773790484785835000,5.2308349609375,0.031152094110846518,0.015390169094502925,0.0029252397969365116
1773790484805798100,5.250798095703125,0.03669569971263408,0.005667816503345966,0.0012244272284209728
1773790484825762000,5.270761962890625,0.02963876693844795,0.015302490811049937,0.01055792663246393
1773790484845725200,5.29072509765625,0.031117022797465324,0.008347264845669269,-0.0017332535333931445
1773790484865688000,5.31068798828125,0.03426467317342758,0.016221359221637248,0.004923427876830101
1773790484885652000,5.33065185546875,0.023906945288181304,0.019122633621096608,0.009231646464765072
1773790484905615000,5.350614990234375,0.03037175738811493,0.011832768873870372,-0.0021516250759363175
1773790484925578000,5.370577880859375,0.029335400077700614,0.0092608725592494,0.0075495385967195025
1773790484945540900,5.390540771484375,0.03843523685634136,-0.005027765034139156,0.0008683072671294211
1773790484965504800,5.4105048828125,0.033653847798705096,0.0069184010863304135,-0.0009320201531052589
1773790484985468000,5.430468017578125,0.021702713242173193,0.018229191912710666,-0.009631167176365852
1773790485005431000,5.45043115234375,0.033661446583271026,0.002538286305963993,-0.0021036942809820173
1773790485025394000,5.470393798828125,0.025859832921624182,0.004807984803617001,0.0024820260740816592
1773790485045357800,5.49035791015625,0.033192075505852695,0.008296411441266536,0.010907178461551665
1773790485065321000,5.510321044921875,0.031252047353982924,0.0075225044593214985,0.007924217128008603
1773790485085284000,5.5302841796875,0.02076689369678497,0.003788578628003597,0.0008016717717051505
1773790485105248000,5.550248046875,0.02525952894091606,0.011368073971569538,-0.0018162556417286395
1773790485125211000,5.5702109375,0.027207740399241447,0.013698270484805106,-0.0015688567519187926
1773790485145174000,5.590174072265625,0.031544308298826214,0.01738981847912073,-0.001150777470320463
1773790485165137200,5.61013720703125,0.02705634922981262,0.0012283727511763572,0.008114917394518853
1773790485185101000,5.63010107421875,0.03571837911307812,0.004431844967603683,0.008568360250443219
1773790485205064000,5.65006396484375,0.023706454280018805,0.012877894012629985,0.0075287880696356295
1773790485225027000,5.670027099609375,0.027585926061868667,0.013205226270854473,0.0017189327470958232
1773790485244990000,5.689989990234375,0.03879354877471924,0.007435995219647884,0.003492956682294607
1773790485264954000,5.7099541015625,0.015911270359158514,0.01192570785433054,-0.004223462913930416
1773790485284917000,5.7299169921875,0.027263269978761672,0.01300531978458166,0.0024441782817244528
1773790485304879900,5.7498798828125,0.036115269476175306,0.00007394201904535293,0.004046206650882959
1773790485324843000,5.769843017578125,0.03397533483803272,0.008171031495928764,-0.012863865487277507
1773790485344807000,5.789806884765625,0.024672084441781043,0.012385434320569037,-0.011386486411094665
1773790485364770000,5.80977001953125,0.03228723562061787,0.015585691666603087,-0.0007562251947820187
1773790485384733000,5.82973291015625,0.037219431325793265,0.0020081249520182607,-0.007824994537234306
1773790485404696800,5.84969677734375,0.037791093733906746,0.0129252402856946,0.0013534604355692863
1773790485424660000,5.869659912109375,0.03883329626321792,0.011671733093261718,0.006432955656945705
1773790485444623000,5.889623046875,0.03827449333667755,0.007952128048241138,0.00011748889982700347
1773790485464586000,5.9095859375,0.0249310276389122,0.00189443544447422,0.006880114902555942
1773790485484550000,5.9295498046875,0.04542378056943416,0.014507833302021026,-0.002274959194660187
1773790485504513000,5.949512939453125,0.030916531789302825,0.012059563367068767,-0.011057400587201118
1773790485524476200,5.96947607421875,0.028251696494221684,0.010616671082377432,0.0026920155629515646
1773790485544439000,5.98943896484375,0.025537761360406874,0.007566635861992835,0.008047112855315208
1773790485564403000,6.00940283203125,0.04077273989319801,0.008561784379184246,0.0034203298375010487
1773790485584366000,6.029365966796875,0.026713819402456283,0.016618834106624125,-0.015288170024752615
1773790485604329000,6.049328857421875,0.03423193994760513,0.005010813899338245,-0.0016125497631728648
1773790485624291800,6.069291748046875,0.01942716952562332,0.0069207391738891596,0.014999416211247443
1773790485644256300,6.08925634765625,0.030369419300556182,0.020772446654736994,0.007211100422590971
1773790485664219400,6.109219482421875,0.03201601746380329,0.015216566093266009,0.0029034663565456866
1773790485684182300,6.129182373046875,0.03274491626024246,0.016909633746743202,0.00863499574586749
1773790485704145200,6.149145263671875,0.039160043999552724,0.006507774458825588,-0.007976385706663132
1773790485724109000,6.169109130859375,0.02436988662481308,-0.00015694412738084793,0.0026326865911483763
1773790485744072200,6.189072265625,0.03801321205198765,0.0016588731229305266,0.005689589943736791
1773790485764035300,6.209035400390625,0.032815643408894535,0.01888648677766323,-0.001675678127259016
1773790485783999200,6.228999267578125,0.02875263175368309,0.017044073781371117,0.004570522785931825
1773790485803962000,6.248962158203125,0.032684125983715055,0.011735738240182399,0.004571984090656042
1773790485823925200,6.26892529296875,0.02098258227407932,0.014512509477138518,-0.012138766083121299
1773790485843888400,6.288888427734375,0.03551905714869499,0.007808920185267925,-0.0003878302738070488
1773790485863852300,6.308852294921875,0.02553834588229656,0.00497223545461893,0.0039060675278306005
1773790485883815200,6.328815185546875,0.030009353816509245,0.011150339567661285,0.006195201378315687
1773790485903778300,6.3487783203125,0.03497486726939678,0.004908230307698249,0.004709638995677233
1773790485923741400,6.368741455078125,0.028974165549874305,-0.001021159741282463,-0.0024698972448706624
1773790485943705300,6.388705322265625,0.030502690291404722,0.004731120175123215,0.0027012217827141285
1773790485963668200,6.408668212890625,0.03549742983877659,0.00888970115929842,0.00429214423596859
1773790485983631400,6.42863134765625,0.03809972129166126,0.01963233670890331,0.0018359832555055618
1773790486003594200,6.44859423828125,0.03180149793028831,0.0036833646878600117,-0.0008843816190958022
1773790486023558400,6.468558349609375,0.032138182538747784,0.015372341176867484,0.004945201317220926
1773790486043521300,6.488521240234375,0.029431261667609215,0.00942863034158945,0.011691022315621375
1773790486063484200,6.508484130859375,0.02429097616970539,0.010042378325760364,0.00007175006195902824
1773790486083447300,6.528447265625,0.02776654332578182,-0.003916881182789802,-0.004868775080144405
1773790486103411200,6.5484111328125,0.021789807003736495,0.017192250080406663,0.0020813363187015053
1773790486123374300,6.568374267578125,0.033631051445007325,0.012606091333925724,-0.005802987190335989
1773790486143337200,6.588337158203125,0.011640753433108329,0.010943418818712233,0.010641221001744269
1773790486163300400,6.60830029296875,0.02972293809056282,0.0027791093245148656,-0.0072698448725044724
1773790486183264300,6.62826416015625,0.03319149098396301,0.010304244132339954,0.01429156020283699
1773790486203227400,6.648227294921875,0.028820436292886734,0.009786942259967327,-0.006293693316727876
1773790486223190300,6.668190185546875,0.04197451689839363,0.01147387243360281,-0.005973375321179628
1773790486243153400,6.6881533203125,0.018620529317855832,0.0046419805869460104,0.004176262771338224
1773790486263117300,6.708117431640625,0.032706337815523144,0.001075228016078472,0.003995791637897491
1773790486283080400,6.72808056640625,0.025858079355955122,-0.0016734861701726913,0.002659282337129116
1773790486303043300,6.748043212890625,0.034357612153887745,0.009703063368797301,0.019480945539474485
1773790486323007200,6.76800732421875,0.032573066824674604,0.018806115017831325,0.0008984101444482803
1773790486342970400,6.787970458984375,0.03779518538713455,0.01436345639526844,0.004057750958204269
1773790486362933200,6.807933349609375,0.016506313642859458,0.014208558094501495,0.0003235328659415245
1773790486382896000,6.827896240234375,0.03940378962755203,0.006131342361867427,0.00074658058360219
1773790486402860300,6.8478603515625,0.026244448325037955,0.016738368833065034,0.0013183891221880911
1773790486422823200,6.8678232421875,0.03936988735795021,0.012468728689849376,-0.002555237440764904
1773790486442786300,6.887786376953125,0.0239899473965168,0.007681202152371406,-0.01671864121928811
1773790486462749200,6.907749267578125,0.0264952082157135,0.012618074032664298,0.000478577297180891
1773790486482713300,6.92771337890625,0.02736731487512588,0.010268880558013916,0.006706365770846605
1773790486502676200,6.94767626953125,0.032467268362641334,0.016620587672293186,-0.0029340076252818105
1773790486522639400,6.967639404296875,0.04176701162755489,0.010107552516460418,0.0030437516100704667
1773790486542602200,6.987602294921875,0.02394552373290062,0.016269874538481235,0.00324555779248476
1773790486562566400,7.00756640625,0.023349895927309988,0.01045125138759613,-0.005938011746853589
1773790486582529300,7.027529296875,0.029372809478640554,0.01154226149469614,0.0037304186999797817
1773790486602492400,7.047492431640625,0.028289690417051313,0.00897854848653078,-0.0010559387937188148
1773790486622455300,7.067455322265625,0.02847673742175102,0.016836568510532376,0.008846446539461612
1773790486642421800,7.087421875,0.013803484424948692,0.006247954478859901,0.00046001872718334194
1773790486662384600,7.107384521484375,0.03416179732084274,0.005956862577795982,0.007426058347523212
1773790486682347800,7.12734765625,0.027125322812795637,0.017827625374495983,-0.0040315936036407945
1773790486702311000,7.147310791015625,0.03715104226469993,0.005230594129860401,0.001258183367550373
1773790486722274800,7.16727490234375,0.03201894007325172,0.009701017542183398,0.0019205927990376948
1773790486742237700,7.18723779296875,0.031095980009436607,0.005291968928277492,-0.004193506167083978
1773790486762200800,7.207200927734375,0.033356910678744314,0.0123608844012022,0.0026424773328006267
1773790486782164000,7.2271640625,0.02776128262877464,0.0062777650952339165,0.005067950914055108
1773790486802128000,7.2471279296875,0.021311083576083183,0.003924187706410885,-0.00028948446586728096
1773790486822090800,7.2670908203125,0.027886954835057258,0.0017070961788296698,-0.0037269115686416623
1773790486842054000,7.287053955078125,0.03194412127137184,0.01424012227654457,0.0008639233529567718
1773790486862016800,7.307016845703125,0.052878772750496864,0.01769698473215103,-0.009388006070256232
1773790486881980700,7.326980712890625,0.027115970462560653,-0.00036912557333707805,-0.004048544738441706
1773790486901943800,7.34694384765625,0.025633622950315474,0.018824527457356452,0.007285042441636323
1773790486921906700,7.36690673828125,0.025793197426199913,0.0061895022898912425,-0.0005962123274803161
1773790486941869800,7.386869873046875,0.0241337397813797,0.015210136352479456,-0.005669277808070182
1773790486961833700,7.406833740234375,0.03534779223501682,0.014213234269618987,0.010158698181807995
1773790486981796900,7.426796875,0.023091537252068518,0.006641337710618972,-0.004581774832308292
1773790487001759700,7.446759765625,0.04454465964734554,0.008450432959198952,0.007112754614651203
1773790487021723000,7.466722900390625,0.03359364204406738,0.009618307694792747,0.0030348376512527465
1773790487041686800,7.486686767578125,0.038351650226116175,0.00030833529680967327,-0.005951309619843959
1773790487061650000,7.50664990234375,0.03744564129710197,0.02439414428323507,-0.0010932020641863346
1773790487081612800,7.52661279296875,0.027885785791277883,0.008923311167955398,0.02194134430363774
1773790487101576700,7.54657666015625,0.044943888098001476,0.0027820319339632985,-0.008719605289399624
1773790487121539800,7.566539794921875,0.01983458128273487,0.007768003652989864,-0.007835662061721087
1773790487141503000,7.5865029296875,0.023429975426197052,0.012777356247603892,-0.0029269933626055716
1773790487161465900,7.6064658203125,0.024507833790779112,0.006300269187986851,0.0011317805089056492
1773790487181428700,7.6264287109375,0.0279547593742609,0.009546411502361298,0.002525426824390888
1773790487201393000,7.646392822265625,0.022384850287437436,0.008371522504091263,0.004513385771214962
1773790487221355800,7.666355712890625,0.03429389926791191,0.007964403007924557,0.006033727206289768
1773790487241318700,7.686318603515625,0.03844926538169384,0.01014233156889677,-0.0019625322446227074
1773790487261281800,7.70628173828125,0.030983167284727095,0.011259645161032675,-0.005961831013858318
1773790487281245700,7.72624560546875,0.01319616618156433,0.015680384212732313,0.0067528352610766885
1773790487301208800,7.746208740234375,0.033709961900115014,0.006502221500873566,0.01154050792902708
1773790487321171700,7.766171630859375,0.03022270430624485,0.005131809930503368,-0.0003514437861740589
1773790487341134800,7.786134765625,0.03486322358846664,0.007603168480098247,0.001868570350855589
1773790487361098800,7.8060986328125,0.02722235344648361,0.0010454173997044563,0.000987695863097906
1773790487381062000,7.826061767578125,0.021667641928792,0.0184434191852808,0.0034292437963187694
1773790487401024800,7.846024658203125,0.03900748378634453,0.004158580984175205,0.0011612988643348217
1773790487420988000,7.86598779296875,0.033308979883790016,0.007896013946831227,0.00394333079829812
1773790487440951800,7.885951904296875,0.02296294243633747,0.009180208538472652,0.0027272330068051813
1773790487460915000,7.9059150390625,0.029694296517968177,0.019973112970590592,0.010638882914185523
1773790487480877800,7.9258779296875,0.04106558535993099,0.011410159547626971,0.004280892189592123
1773790487500840700,7.9458408203125,0.021809680747985838,0.0165828860104084,-0.003410831356793642
1773790487520804900,7.965804931640625,0.03288403246998787,0.014307926815748214,0.007560498382151126
1773790487540767700,7.985767822265625,0.042784079715609546,0.005722177039086818,-0.0013277414724230765
1773790487560730600,8.005730712890625,0.027267946153879164,0.013672551521658896,0.007873948245495557
1773790487580693800,8.02569384765625,0.019175240591168402,0.013364508485794067,0.010520955622941254
1773790487600657700,8.04565771484375,0.03847498434484005,0.01177314764112234,0.011188625751435756
1773790487620620800,8.065620849609376,0.01032791726887226,0.01046381860822439,0.005690758987516164
1773790487640580900,8.085580810546874,0.0449210917443037,0.0009793664261698721,0.014287906941026449
1773790487660544800,8.105544677734375,0.033276246657967565,-0.005673077200353145,0.008994038316607474
1773790487680508000,8.1255078125,0.02744330272078514,0.00821954681277275,0.005125380189716816
1773790487700471000,8.145470947265625,0.034169396105408666,0.022469605961441992,-0.005060790520906448
1773790487720434000,8.165433837890625,0.03388356490135193,0.015264789149165153,-0.011099924554675816
1773790487740397800,8.185397705078126,0.023110826474428175,0.010464987652003764,-0.0013595979154109954
1773790487760361000,8.20536083984375,0.03717325409650803,-0.00015986673682928085,-0.00013429390415549278
1773790487780324000,8.225323974609376,0.027899229794740674,0.015970891591906546,0.00752615772113204
1773790487800287000,8.245286865234375,0.017155717462301254,0.004592003965377807,0.002076660143584013
1773790487820249900,8.265249755859376,0.037323476222157474,0.013207272097468376,0.0001984451815485954
1773790487840214000,8.285214111328125,0.03193184631168842,0.007770926262438297,0.0061608607172966
1773790487860177000,8.305177001953124,0.019193945291638374,0.008106441827118397,0.008318915534019469
1773790487880139800,8.325139892578125,0.027559038054943082,0.004384790955483913,-0.0040355391263961786
1773790487900103000,8.34510302734375,0.026694530180096626,0.015105214673280715,-0.0025372633926570415
1773790487920066800,8.36506689453125,0.037906244546175,0.018070494219660758,0.007619973484426736
1773790487940030000,8.385030029296875,0.023876550149917602,0.010413841986656189,-0.0029286007978022097
1773790487959992800,8.404992919921876,0.020272388178110123,0.010871230365335941,-0.004652063589543104
1773790487979956000,8.4249560546875,0.037032968842983245,0.006161445239186287,0.012235504455864429
1773790487999919900,8.444919921875,0.03167231859266758,0.019412556478381155,0.010980097567290067
1773790488019883000,8.464883056640625,0.037058103284239766,0.004141629849374294,0.003520283080637455
1773790488039846000,8.484845947265624,0.02675707402229309,0.008989069880545139,0.018641718236356974
1773790488059809000,8.50480908203125,0.03498772675096989,0.019611001659929753,0.008467091833055019
1773790488079773000,8.52477294921875,0.02885024690926075,0.018097966748476028,0.0050723348282277585
1773790488099736000,8.544736083984375,0.04009703258872032,0.012721242146193981,-0.002765080799162388
1773790488119699000,8.564698974609374,0.02827858450114727,0.012938976550102232,0.006814356189966201
1773790488139661800,8.584661865234375,0.01768003359735012,0.011481471218168735,-0.01260842942148447
1773790488159626000,8.6046259765625,0.036272505864500995,0.0027685879305005072,0.0033399580776691433
1773790488179588900,8.6245888671875,0.022325813576579093,0.0034910569861531255,0.007805413053929806
1773790488199551700,8.6445517578125,0.037626258561015126,0.019542028076946733,-0.0001765256106853485
1773790488219516000,8.664515869140626,0.02817220151722431,0.0013794716596603393,0.0011805880866944788
1773790488239478800,8.684478759765625,0.03221475490629673,0.008828618621826172,0.010953501821309327
1773790488259442000,8.70444189453125,0.0292313551813364,0.0025105215162038804,0.0030183249078691004
1773790488279404800,8.72440478515625,0.03727496090531349,0.010206921237707138,0.0004601648576557636
1773790488299368000,8.744367919921874,0.021558920857310294,-0.006721417209506034,0.007111147179454565
1773790488319331800,8.764331787109375,0.03998772699534893,0.0021855273455381394,0.011418635115027427
1773790488339295000,8.784294921875,0.03551087384223938,0.009644903440773487,0.015868161869794128
1773790488359257900,8.8042578125,0.042673020556569095,0.004031447473168373,-0.0077723875671625135
1773790488379221000,8.824220947265625,0.03325871100127697,0.015042086309194564,0.009464286176860333
1773790488399185000,8.844184814453126,0.03594283551871776,0.002943652236461639,-0.000985211645066738
1773790488419148000,8.86414794921875,0.041648353683948515,0.012573065847158432,-0.004378653475642204
1773790488439111000,8.88411083984375,0.04223638270497322,0.0012526304095983505,-0.004851970075815916
1773790488459073800,8.90407373046875,0.02622106744945049,0.0042602877929806705,-0.009342705623805523
1773790488479038000,8.924037841796874,0.03191781778633594,0.00830108761638403,0.0009074702337384223
1773790488499000800,8.944000732421875,0.036091888600587846,0.006314005452394485,0.0033580782562494275
1773790488518963700,8.963963623046874,0.029771453407406806,0.0049020928278565405,0.0034480946272611615
1773790488538926800,8.9839267578125,0.033650925189256664,0.010783844342827796,0.0010446867473423481
1773790488558890800,9.003890869140625,0.02868891886770725,0.008152326795458794,0.004386544521152973
1773790488578854000,9.02385400390625,0.034220834031701085,-0.0014700725525617598,0.005269318705052137
1773790488598816800,9.043816650390625,0.03598725918233395,0.00782177966684103,0.011297346822917461
1773790488618780000,9.06377978515625,0.03750233992040157,0.0055509121254086495,0.0023880641803145407
1773790488638743800,9.083743896484375,0.032298926058411594,0.011902619239687919,0.0038043607190251347
1773790488658707000,9.10370703125,0.030805472630262374,0.01238748014718294,0.0019224924951791761
1773790488678669800,9.123669921875,0.03393909448087215,0.005087678527832031,-0.00047258594781160354
1773790488698633000,9.143633056640626,0.04724924243092537,0.007653729623556137,0.002978869680315256
1773790488718596900,9.163596923828125,0.028724574702978133,-0.0006520341679453849,0.0026110592812299727
1773790488738560000,9.18356005859375,0.03323591464757919,0.0008949030131101608,-0.0028952830500900742
1773790488758523000,9.20352294921875,0.03245850053429603,0.0053641573816537854,-0.009069587770849466
1773790488778486000,9.223486083984374,0.024793080472946167,0.027168869693577288,0.006075958912819624
1773790488798450000,9.243449951171876,0.028652093988656997,0.0066594578891992565,0.0010918868899345397
1773790488818413000,9.2634130859375,0.022049334722757337,0.006158814890682697,0.014058774360269307
1773790488838376000,9.2833759765625,0.042221769657731056,0.00523848517537117,0.000699088180065155
1773790488858339000,9.303339111328125,0.03161561996936798,0.0036982699960470197,0.005893295822292566
1773790488878303000,9.323302978515626,0.024428923335671423,-0.001970423290133476,0.006483662930876016
1773790488898266000,9.34326611328125,0.03655775254666805,0.015536591827869414,0.015407120229303836
1773790488918229000,9.36322900390625,0.03250058611035347,0.01482873581945896,-0.004598725967109203
1773790488938192000,9.38319189453125,0.03577507773637771,0.009638473699986935,0.0021652152098715306
1773790488958155800,9.40315576171875,0.04057400245070457,0.0022846038058400154,0.00019011574462056159
1773790488978119000,9.423118896484375,0.03293020969927311,0.012065700846910476,-0.008509323539584874
1773790488998082000,9.44308203125,0.025878537622094154,0.008526128543913363,0.0036447862431406974
1773790489018045000,9.463044921875,0.033488428103923794,0.012658406043052673,-0.00041983284726738925
1773790489038008800,9.4830087890625,0.025252514678239822,0.010229717591404914,0.010759148292988538
1773790489057972000,9.502971923828126,0.044993572458624835,0.00997545056939125,0.00820785637497902
1773790489077935000,9.52293505859375,0.02765022346973419,0.01665828933417797,-0.005116466230899095
1773790489097898000,9.54289794921875,0.026595161458849905,0.0015209259569644927,-0.0014281331069767474
1773790489117862000,9.56286181640625,0.027799861073493956,0.005106675489246845,-0.006106938572973013
1773790489137825000,9.582824951171874,0.022269114953279493,0.0007335749715566634,-0.01326630880832672
1773790489157788200,9.6027880859375,0.02751169178187847,0.010456219823658465,-0.0013254033848643302
1773790489177751000,9.6227509765625,0.030190555602312086,0.011097440336644648,0.004531505949795246
1773790489197715000,9.64271484375,0.03169628399014473,0.003129530197381973,-0.007583148605376481
1773790489217678000,9.662677978515624,0.008382628419995307,0.004391512957215309,0.010624123736470937
1773790489237641200,9.68264111328125,0.02365092470049858,0.0067272624284029,0.0012741115890443325
1773790489257603800,9.702603759765625,0.03966039473712444,0.0076771104991436,0.006274404094368219
1773790489277567700,9.722567626953126,0.030236732831597328,0.012423428243398666,0.0007896890729665756
1773790489297531000,9.74253076171875,0.027886954835057258,0.010736790330708026,0.0036855566449463363
1773790489317494000,9.762493896484376,0.04404197082221508,0.014006313520669937,0.0028713176526129246
1773790489337457000,9.782456787109375,0.03145253836214542,0.0088861940279603,0.015339169559627771
1773790489357420800,9.8024208984375,0.044774961271882054,0.00971796867698431,0.00630202275365591
1773790489377384000,9.822384033203125,0.022361469411849973,0.0037701661884784695,0.0040457682594656945
1773790489397347000,9.84234716796875,0.028221301355957983,0.009544657936692237,0.008335136016458272
1773790489417310000,9.86231005859375,0.029424831926822662,0.016128712502121924,-0.0081672321036458
1773790489437273900,9.88227392578125,0.039899464190006256,0.008023439718782902,0.0025054069496691224
1773790489457237000,9.902237060546875,0.027480712121725082,0.014108312590420245,0.01201630874723196
1773790489477200100,9.9222001953125,0.03501403023600578,-0.0014499065473675726,-0.0019810908146202563
1773790489497163000,9.9421630859375,0.026613866159319877,0.013598024980723857,-0.0025945465378463266
1773790489517127000,9.962126953125,0.02916998038291931,0.008748246861994265,0.008210340593010186
1773790489537090000,9.982090087890626,0.022732640811800955,0.0029109190106391906,0.0038908699586987492
1773790489557053200,10.00205322265625,0.03364624901413917,0.003305763547122478,0.008104542130976914
1773790489577015800,10.022015869140626,0.04175006049275398,0.011642799259722232,0.0026326865911483763
1773790489596980000,10.04197998046875,0.028625205981731412,0.005340776506066322,0.00250073077455163
1773790489616942800,10.06194287109375,0.012615735945105552,0.006191840377449989,-0.0022150457009673117
1773790489636906200,10.08190625,0.041785131806135176,0.011342939530313014,0.007161123801022767
1773790489656869000,10.101869140625,0.027259178325533866,0.005363280598819255,0.007978577663749455
1773790489676833300,10.121833251953126,0.035846973928809166,0.0012613982379436493,0.0031808219932019707
1773790489696796200,10.141796142578125,0.030958617365360257,0.004570376655459404,0.007725771946460008
1773790489716759300,10.16175927734375,0.032902152648568155,0.005083586874604225,0.0014655425079166888
1773790489736722000,10.181721923828125,0.03232289145588874,0.009383914417028426,-0.0029370763652026653
1773790489756686300,10.201686279296876,0.029482115072011945,-0.005104629662632942,0.00882145822867751
1773790489776649000,10.22164892578125,0.027260931891202926,0.0029021511822938917,-0.003623889585584402
1773790489796612000,10.241612060546874,0.03700608083605766,0.003894669350981712,0.006225450386106967
1773790489816575000,10.261574951171875,0.03459083638787269,0.0088578447163105,-0.004748217440396547
1773790489836538000,10.2815380859375,0.028453356546163558,0.0021925416082143783,-0.0021676994279026984
1773790489856502000,10.301501953125,0.028491350468993187,0.006273965702950954,0.0049558688417077066
1773790489876465200,10.321465087890624,0.030327918246388433,0.0008063479468226432,0.018140344585478304
1773790489896428000,10.341427978515625,0.0452870024472475,0.015645605160295964,-0.0052186114311218255
1773790489916391200,10.36139111328125,0.02610533211529255,0.007808920185267925,0.0027300094857811924
1773790489936355000,10.38135498046875,0.03783025670051574,0.014846855998039244,0.005329378329217434
1773790489956318200,10.401318115234375,0.033169279152154924,-0.003147650375962257,0.013500117564201355
1773790489976281000,10.421281005859376,0.032744331738352776,0.007208908465504646,-0.0003615267887711525
1773790489996244200,10.441244140625,0.02272854915857315,0.010030687887966632,0.0015570201836526392
1773790490016208100,10.4612080078125,0.02441197220087051,0.006379471904039383,0.0014091361455619335
1773790490036171300,10.481171142578125,0.03605097206830978,0.009953823259472847,0.012310761649161577
1773790490056134100,10.501134033203124,0.03842939163744449,0.007206570377945899,0.0010147300004959105
1773790490076097000,10.521096923828125,0.02971592382788658,0.007490648016333579,0.001451806243509054
1773790490096061000,10.54106103515625,0.040810733816027636,0.005643851105868816,0.0002028290957212448
1773790490116024000,10.561024169921875,0.02631166834235191,0.004378068953752518,0.004110796319693326
1773790490135987000,10.580987060546875,0.03272913416922092,-0.0021574702948331833,0.006683131025731563
1773790490155950000,10.6009501953125,0.04649754728078842,0.005927344222366809,0.00875394595041871
1773790490175914000,10.6209140625,0.021935352954268454,0.005604980400204658,-0.000012274959683418274
1773790490195877000,10.640877197265626,0.03855155671238899,0.0015934066712856292,0.017395225306600332
1773790490215840000,10.660840087890625,0.03225917856991291,0.007937807261943817,0.0013245266020298003
1773790490235803100,10.68080322265625,0.02222059963643551,0.0025502690047025677,0.0005208090037107468
1773790490255767000,10.70076708984375,0.02118658041357994,0.00699000501781702,0.007849836717545985
1773790490275730200,10.720730224609374,0.0283773687005043,0.0007063947036862373,0.01138341767117381
1773790490295693000,10.740693115234375,0.029216742134094236,0.01312514677196741,0.006120382576435804
1773790490315656200,10.76065625,0.03787877201735973,0.014060674056410788,0.0006320142932236194
1773790490335620000,10.7806201171875,0.03868307413756847,0.009129939655959606,-0.002781593542546034
1773790490355583200,10.800583251953125,0.02357084520161152,0.007444178526103496,0.013296850077062845
1773790490375546000,10.820546142578126,0.024182255098223686,0.013395780406892299,-0.00094721772223711
1773790490395509000,10.840509033203125,0.031394086173176766,0.005354512770473957,0.01447363877147436
1773790490415473200,10.86047314453125,0.025521979269385337,-0.004111526972055435,0.0017963818974792956
1773790490435436000,10.88043603515625,0.02537935592830181,0.006014145722985267,0.009023118280619382
1773790490455399000,10.90039892578125,0.030893735435605047,0.006061491996049881,-0.0016853227384388445
1773790490475362000,10.920362060546875,0.03686170392930507,-0.003479658809304237,0.007646715360879897
1773790490495326000,10.940325927734374,0.03355681716501713,-0.0007584171518683433,0.007387772163748741
1773790490515289000,10.9602890625,0.027284897288680075,-0.001075228016078472,-0.0010522855319082735
1773790490535252000,10.980251953125,0.032194296640157695,0.008404840251803398,0.01760375349074602
1773790490555215000,11.000215087890625,0.027087328889966008,0.008449848437309265,0.008823650185763835
1773790490575179000,11.020178955078125,0.025612580162286756,0.006796236011385917,0.005547697255015373
1773790490595142100,11.04014208984375,0.011525602620840071,0.005310089106857777,-0.001960048026591539
1773790490615105300,11.060105224609375,0.03007365122437477,0.004745733222365379,0.005206774862855672
1773790490635068200,11.080068115234376,0.026918986585736274,0.008453355568647384,-0.0004803308628499508
1773790490655030800,11.10003076171875,0.027962358158826826,0.009772036951780319,0.015913754577189684
1773790490674994700,11.11999462890625,0.031281273448467255,0.008007657627761363,-0.0011097148075699806
1773790490694957800,11.139957763671875,0.01648234824538231,0.006885375599563121,-0.0018229776434600352
1773790490714920700,11.159920654296876,0.0400894338041544,-0.0004924596920609474,-0.013293050684779881
1773790490734883800,11.1798837890625,0.031714404168725015,0.004549918389320374,0.012199994751065969
1773790490754847700,11.19984765625,0.017951251754164694,0.012264730550348758,0.012599661593139171
1773790490774811000,11.219810791015625,0.029466917502880094,-0.0014843933388590813,0.008124269744753837
1773790490794773800,11.239773681640624,0.033228315863013266,0.014775252066552638,0.007479542100429534
1773790490814737000,11.25973681640625,0.03234627233147621,0.002446516369283199,0.009273878171294927
1773790490834700800,11.27970068359375,0.03259527865648269,0.008751461732387542,-0.009848901580274105
1773790490854664000,11.299663818359376,0.025974399212002754,0.0004892448216676712,0.011280980210006236
1773790490874626800,11.319626708984375,0.03747720547914505,0.0038230654194951054,0.004002513639628887
1773790490894589700,11.339589599609376,0.032092589831352235,0.007980477359890938,0.0004576806396245956
1773790490914553900,11.359553955078125,0.03432137179672718,0.009055120854079723,0.005304682279378176
1773790490934516700,11.379516845703124,0.03539046233296394,0.01707709926813841,0.010054361024498939
1773790490954479600,11.399479736328125,0.02995674684643745,0.01544394510835409,0.005734013607352971
