time,seconds_elapsed,z,y,x
1773790479586642700,0.031642578125,-0.0005941512063145638,-0.004551608581095934,-0.006077866069972515
1773790479606605800,0.051605712890625,-0.00037470675306394696,-0.003162237349897623,-0.007251787465065718
1773790479626570200,0.0715703125,-0.001954493811354041,-0.0025808694772422314,-0.006515157409012318
1773790479646533400,0.091533447265625,-0.0006056028068996966,-0.002724680118262768,-0.004157460760325193
1773790479666496300,0.111496337890625,-0.0005432848702184856,-0.0031497206073254347,-0.005216067191213369
1773790479686460200,0.131460205078125,-0.0009614011505618691,-0.0025995115283876657,-0.005628590937703848
1773790479706423300,0.15142333984375,-0.0006135923322290182,-0.002808036981150508,-0.005665342323482037
1773790479726386400,0.171386474609375,-0.00033103092573583126,-0.0026967169251292944,-0.005036303773522377
1773790479746350300,0.191350341796875,0.0007717840489931405,-0.003069559345021844,-0.0070832096971571445
1773790479766313200,0.211313232421875,0.0005118595436215401,-0.0018224010709673166,-0.005263737868517637
1773790479786276400,0.2312763671875,-0.00005326322207110934,-0.003719637170433998,-0.006185191683471203
1773790479806240300,0.251240234375,-0.0009084042394533753,-0.00339126936160028,-0.003968376200646162
1773790479826203400,0.271203369140625,-0.0006474144756793976,-0.0027513117529451847,-0.005578789860010147
1773790479846166000,0.291166015625,-0.0009534116834402084,-0.0026077672373503447,-0.007153517100960016
1773790479866130200,0.311130126953125,-0.0005539375124499202,-0.003695668652653694,-0.005134840961545706
1773790479886093000,0.331093017578125,-0.001127316034398973,-0.002555036684498191,-0.006453904323279858
1773790479906056200,0.35105615234375,-0.0005083974683657289,-0.0040943436324596405,-0.004541754722595215
1773790479926020000,0.37102001953125,-0.00044554684427566826,-0.0023425165563821793,-0.007466438226401806
1773790479945983200,0.390983154296875,-0.0010966897243633866,-0.0029885992407798767,-0.0052118063904345036
1773790479965946000,0.410946044921875,-0.0008543420699425042,-0.0038075214251875877,-0.004203266929835081
1773790479985910300,0.43091015625,0.00046685212873853743,-0.003191798459738493,-0.005720470100641251
1773790480005873200,0.450873046875,-0.001184574095532298,-0.0020562265999615192,-0.005198223982006311
1773790480025836300,0.470836181640625,-0.00009933590627042577,-0.0029470541048794985,-0.005094626918435097
1773790480045800200,0.49080029296875,-0.000731836655177176,-0.0019409117521718144,-0.005225654691457748
1773790480065763300,0.510763427734375,-0.00152306177187711,-0.0037207023706287146,-0.0051867724396288395
1773790480085726200,0.530726318359375,0.0000351537273672875,-0.0029057750944048166,-0.005566006526350975
1773790480105690400,0.5506904296875,-0.0008679241873323917,-0.0017350494163110852,-0.006477074231952429
1773790480125653200,0.5706533203125,-0.001404284848831594,-0.0027244137600064278,-0.005664010997861624
1773790480145616400,0.590616455078125,-0.001252750982530415,-0.002037318190559745,-0.00586721021682024
1773790480165580300,0.610580322265625,-0.00020266656065359712,-0.003037601476535201,-0.00814953912049532
1773790480185543400,0.63054345703125,-0.0007355650886893272,-0.0018524948973208666,-0.005884787067770958
1773790480205506300,0.65050634765625,-0.0016042882343754172,-0.0029790119733661413,-0.004832572303712368
1773790480225470200,0.67047021484375,-0.00030599720776081085,-0.0027262780349701643,-0.0065170214511454105
1773790480245433300,0.690433349609375,-0.00001997370782191865,-0.0018953717080876231,-0.0054906392470002174
1773790480265396200,0.710396240234375,-0.0002716424351092428,-0.005085838492959738,-0.0067910607904195786
1773790480285360400,0.7303603515625,-0.0004468784318305552,-0.0021054951939731836,-0.00478516798466444
1773790480305323000,0.750322998046875,0.0004732437082566321,-0.002180862706154585,-0.0065439194440841675
1773790480325286100,0.7702861328125,0.0005451490869745612,-0.0032410670537501574,-0.0051873051561415195
1773790480345250000,0.79025,-0.0009606021922081709,-0.003605920122936368,-0.0051843756809830666
1773790480365213200,0.810213134765625,0.000014381069377122913,-0.0030567762441933155,-0.00686136819422245
1773790480385176000,0.830176025390625,0.0007736482657492161,-0.0025531724095344543,-0.004327370319515467
1773790480405140200,0.85014013671875,-0.0008578042034059763,-0.0030716899782419205,-0.007417702581733465
1773790480425103000,0.87010302734375,0.00025007082149386406,-0.0022951122373342514,-0.006651510950177908
1773790480445066200,0.890066162109375,-0.0009166600648313761,-0.002692455891519785,-0.00430100504308939
1773790480465030100,0.910030029296875,-0.0005882922559976578,-0.003932423423975706,-0.005309544038027525
1773790480484993300,0.9299931640625,-0.00005512743518920615,-0.0029755497816950083,-0.005688778590410948
1773790480504956200,0.9499560546875,0.0002777676854748279,-0.0025917883031070232,-0.005882923025637865
1773790480524920300,0.96992041015625,-0.0003885551996063441,-0.0030892668291926384,-0.0059753344394266605
1773790480544883200,0.98988330078125,-0.00017070861940737814,-0.003120692213997245,-0.005768406670540571
1773790480564846300,1.009846435546875,-0.0005174521938897669,-0.0026043052785098553,-0.005453088786453009
1773790480584810200,1.029810302734375,-0.0011893677292391658,-0.002698581200093031,-0.005802761763334274
1773790480604773400,1.0497734375,-0.0021315941121429205,-0.0035979305393993855,-0.005568936001509428
1773790480624736300,1.069736328125,-0.0005608617211692035,-0.0041555967181921005,-0.004716458264738321
1773790480644700400,1.089700439453125,-0.001876995898783207,-0.0030216225422918797,-0.004823251161724329
1773790480664663300,1.109663330078125,-0.001466869143769145,-0.0026072347536683083,-0.006573746912181377
1773790480684626400,1.12962646484375,-0.0003171824791934341,-0.002576608443632722,-0.00507039250805974
1773790480704590300,1.14959033203125,-0.0010775149567052722,-0.0017480988753959537,-0.00686003640294075
1773790480724553500,1.169553466796875,0.00009081379539566115,-0.0038626487366855145,-0.005032575689256191
1773790480744516000,1.18951611328125,-0.0007832356495782733,-0.0036932716611772776,-0.007163636852055788
1773790480764480000,1.20947998046875,-0.0006479470757767558,-0.002034655073657632,-0.005033374298363924
1773790480784443100,1.229443115234375,0.0008514125947840512,-0.0036972665693610907,-0.004413124173879623
1773790480804406300,1.24940625,-0.0006093312404118478,-0.0029555761720985174,-0.004510329570621252
1773790480824369200,1.269369140625,0.0007936219917610288,-0.002487925114110112,-0.006383064668625593
1773790480844333000,1.2893330078125,-0.00014381069922819734,-0.0036719664931297302,-0.006393717136234045
1773790480864296200,1.309296142578125,-0.0007502124644815922,-0.0030746194534003735,-0.006614759564399719
1773790480884259300,1.32925927734375,-0.0008636631537228823,-0.002828543307259679,-0.005374525208026171
1773790480904223200,1.34922314453125,-0.0011195929255336523,-0.0024804682470858097,-0.005525792948901653
1773790480924186000,1.36918603515625,-0.0006777744856663048,-0.00310604483820498,-0.005664010997861624
1773790480944149200,1.389149169921875,-0.0001776328426785767,-0.0043739755637943745,-0.004835767671465874
1773790480964113200,1.409113037109375,-0.000749679864384234,-0.0027023095171898603,-0.006072007119655609
1773790480984076300,1.429076171875,0.00013395700079854578,-0.0017784589435905218,-0.005054146982729435
1773790481004039200,1.4490390625,0.000022903184799361043,-0.0036035231314599514,-0.0057015614584088326
1773790481024003300,1.46900341796875,-0.0008333030855283141,-0.003947869874536991,-0.005997438915073872
1773790481043966200,1.48896630859375,-0.000015180017726379447,-0.003165433183312416,-0.005997172556817532
1773790481063929300,1.508929443359375,-0.0003299656673334539,-0.002832005498930812,-0.0054626758210361
1773790481083893200,1.528893310546875,0.0002721750643104315,-0.0029438582714647055,-0.005827262531965971
1773790481103856400,1.5488564453125,0.00023808660625945777,-0.002065015025436878,-0.00663340138271451
1773790481123819000,1.568819091796875,-0.0005496764206327498,-0.003783819265663624,-0.004295678809285164
1773790481143783400,1.588783447265625,-0.0010258496040478349,-0.0025590313598513603,-0.0054703992791473866
1773790481163746000,1.60874609375,-0.0007134608458727598,-0.0031649006996303797,-0.005816610064357519
1773790481183709200,1.628709228515625,-0.00025726135936565697,-0.003594468580558896,-0.005306348204612732
1773790481203672000,1.648672119140625,-0.0005842975224368274,-0.002668221015483141,-0.005586246494203806
1773790481223636200,1.66863623046875,-0.0003278351214248687,-0.00321896281093359,-0.006330067757517099
1773790481243599000,1.68859912109375,-0.0018413095967844129,-0.002004561247304082,-0.004929244983941317
1773790481263562200,1.708562255859375,0.00011424961121520028,-0.002980609890073538,-0.006477872841060162
1773790481283526100,1.728526123046875,-0.0005214469274505973,-0.0041183121502399445,-0.00560994865372777
1773790481303489300,1.7484892578125,-0.0004548678989522159,-0.0028045750223100185,-0.006184925325214863
1773790481323452200,1.7684521484375,-0.0007483482477255166,-0.0027806065045297146,-0.006247776094824076
1773790481343416300,1.788416259765625,0.000031691615731688216,-0.0031486554071307182,-0.005571332760155201
1773790481363379200,1.808379150390625,-0.0008482168195769191,-0.0026706180069595575,-0.005684517323970795
1773790481383342300,1.82834228515625,-0.0004918858758173883,-0.00358860963024199,-0.0054240599274635315
1773790481403306200,1.84830615234375,0.001630120910704136,-0.003715642262250185,-0.006113552488386631
1773790481423269400,1.868269287109375,-0.001163002452813089,-0.0026820695493370295,-0.0062885223887860775
1773790481443232300,1.888232177734375,-0.0004719121498055756,-0.003945206757634878,-0.0054549528285861015
1773790481463195400,1.9081953125,-0.0004993426846340299,-0.003275954397395253,-0.005011270288378
1773790481483159300,1.9281591796875,-0.0000881506348378025,-0.0028727517928928137,-0.005654956214129925
1773790481503122400,1.948122314453125,0.000185888638952747,-0.0022913836874067783,-0.00571833923459053
1773790481523085000,1.9680849609375,-0.000550475378986448,-0.0025561018846929073,-0.00589730404317379
1773790481543049200,1.98804931640625,-0.0005768407136201859,-0.002508964156731963,-0.0054762582294642925
1773790481563012000,2.00801220703125,0.0010351707460358739,-0.003798999357968569,-0.005945240613073111
1773790481582975200,2.027975341796875,0.001466336427256465,-0.0024804682470858097,-0.005695968866348267
1773790481606683100,2.05168310546875,-0.0010138654615730047,-0.002977414056658745,-0.005311674904078245
1773790481626646300,2.071646240234375,-0.0016998957144096494,-0.0016820525052025914,-0.00640836451202631
1773790481646609200,2.091609130859375,-0.0006026733317412436,-0.0028751487843692303,-0.005783853121101856
1773790481666573000,2.111572998046875,-0.0004900216590613127,-0.00315930787473917,-0.005774531979113817
1773790481686536200,2.1315361328125,-0.0004881574132014066,-0.0018879148410633206,-0.005828061606734991
1773790481706499000,2.1514990234375,-0.00013901700731366873,-0.002370745874941349,-0.005123123060911894
1773790481726463000,2.171462890625,-0.00040187101694755256,-0.003163569141179323,-0.006009423173964024
1773790481746426000,2.191426025390625,0.00014674017438665032,-0.003254382871091366,-0.00509968725964427
1773790481766389200,2.21138916015625,-0.001270594191737473,-0.0024746092967689037,-0.006608101539313793
1773790481786352000,2.23135205078125,0.00012117382721044123,-0.0020839234348386526,-0.00635004136711359
1773790481806316000,2.25131591796875,-0.0015339808305725455,-0.002171541564166546,-0.005579056218266487
1773790481826279200,2.271279052734375,-0.002095375210046768,-0.002251702593639493,-0.005197691265493631
1773790481846242300,2.2912421875,0.00019201391842216253,-0.0022772690281271935,-0.00410552928224206
1773790481866206200,2.311206298828125,-0.00013022858183830976,-0.0028660940006375313,-0.005005411338061094
1773790481886169000,2.331169189453125,-0.00040240364614874125,-0.0037622477393597364,-0.004854143597185612
1773790481906132200,2.35113232421875,0.00022210762836039066,-0.003762513864785433,-0.006156429648399353
1773790481926096100,2.37109619140625,-0.0005305017111822963,-0.002968092914670706,-0.005120193585753441
1773790481946059300,2.391059326171875,0.0011563445441424847,-0.0033276197500526905,-0.004175570327788591
1773790481966022100,2.411022216796875,0.00011664645717246458,-0.0021105550695210695,-0.00570049649104476
1773790481985985000,2.430985107421875,-0.0008040083339437842,-0.0028474517166614532,-0.005923402961343527
1773790482005949200,2.45094921875,-0.00017736652807798237,-0.002653573639690876,-0.006421147845685482
1773790482025911000,2.4709111328125,-0.0008671252289786935,-0.003278617514297366,-0.006304501090198755
1773790482045874200,2.490874267578125,0.0006258428329601884,-0.003430417738854885,-0.006846720818430185
1773790482065838000,2.510838134765625,0.00012410330236889422,-0.0032056469935923815,-0.0057249972596764565
1773790482085801200,2.53080126953125,-0.000336090917699039,-0.0034437335561960936,-0.005166266113519669
1773790482105764000,2.55076416015625,-0.0002889529860112816,-0.002435993403196335,-0.0057164751924574375
1773790482125728300,2.570728271484375,-0.0006974819116294384,-0.0035926043055951595,-0.004308462142944336
1773790482145691100,2.590691162109375,0.00023542344570159912,-0.00273133791051805,-0.005437109619379044
1773790482165654300,2.610654296875,0.00018029600323643535,-0.0035952674224972725,-0.004995291121304035
1773790482185618200,2.6306181640625,-0.0011656655697152019,-0.00224930583499372,-0.005633384454995394
1773790482205581300,2.650581298828125,-0.0010612696642056108,-0.0031318773981183767,-0.005533782299607992
1773790482225544200,2.670544189453125,-0.0006372944335453212,-0.0021044297609478235,-0.006000102031975985
1773790482245507300,2.69050732421875,-0.00020666129421442747,-0.003990214318037033,-0.00646695401519537
1773790482265471200,2.71047119140625,0.0009741843095980585,-0.0031441280152648687,-0.005194495897740126
1773790482285434400,2.730434326171875,-0.0002972087822854519,-0.003518834710121155,-0.00627094553783536
1773790482305397000,2.75039697265625,-0.0016977651976048946,-0.0018716695485636592,-0.00512711750343442
1773790482325361200,2.770361083984375,-0.0003283677506260574,-0.0036543896421790123,-0.0062453788705170155
1773790482345324000,2.790323974609375,-0.0006671218434348702,-0.003969974350184202,-0.005475192796438932
1773790482365287200,2.810287109375,-0.0001675128296483308,-0.0018852517241612077,-0.006185191683471203
1773790482385251000,2.8302509765625,0.000597879639826715,-0.0021046961192041636,-0.007143396884202957
1773790482405214000,2.8502138671875,-0.0015688681742176414,-0.0033537186682224274,-0.005848301574587822
1773790482425177000,2.870177001953125,0.00021358551748562604,-0.0026589001063257456,-0.0062485747039318085
1773790482445140200,2.89014013671875,-0.00018668759730644524,-0.002008023438975215,-0.006458431947976351
1773790482465104100,2.910104248046875,-0.0015992282424122095,-0.0030365362763404846,-0.003754790872335434
1773790482485067000,2.93006689453125,0.0009440905996598303,-0.003147589974105358,-0.004308728501200676
1773790482505030100,2.950030029296875,-0.0005672533297911286,-0.002769687445834279,-0.006136988289654255
1773790482524994000,2.969994140625,-0.00008974852971732616,-0.0017385114915668964,-0.006051500793546438
1773790482544957200,2.989957275390625,-0.0007984156836755574,-0.0015430354978889227,-0.006623281631618738
1773790482564920000,3.009920166015625,0.0006687197601422668,-0.002406165935099125,-0.0065468489192426205
1773790482584883200,3.02988330078125,0.0016911072889342904,-0.0027771443128585815,-0.006396912969648838
1773790482604847000,3.04984716796875,-0.00001757686368364375,-0.0026522420812398195,-0.005689843557775021
1773790482624810200,3.069810302734375,0.00020000340009573847,-0.00336144189350307,-0.005390504375100136
1773790482644773000,3.089773193359375,-0.0007398261222988367,-0.001796834752894938,-0.005017129238694906
1773790482664737500,3.109737548828125,-0.00122558674775064,-0.0025784724857658148,-0.004758003633469343
1773790482684700200,3.1297001953125,-0.0014652712270617485,-0.0033779535442590714,-0.00618226220831275
1773790482704663300,3.149663330078125,0.00005379585491027683,-0.0024445154704153538,-0.0076025258749723434
1773790482724627200,3.169627197265625,0.000029294771593413316,-0.0018751317402347922,-0.006192914675921202
1773790482744590300,3.18959033203125,0.00007669904152862728,-0.003599262097850442,-0.005648031830787659
1773790482764553200,3.20955322265625,-0.0006775081856176257,-0.002919357270002365,-0.0054389736615121365
1773790482784516400,3.229516357421875,0.00041092574247159064,-0.002292981604114175,-0.004778243601322174
1773790482804480300,3.249480224609375,-0.000355532014509663,-0.0027273432351648808,-0.006469617132097483
1773790482824443400,3.269443359375,-0.0007502124644815922,-0.003719370812177658,-0.005142031237483025
1773790482844406300,3.28940625,0.0006005428149364889,-0.0035294874105602503,-0.006457899231463671
1773790482864370400,3.309370361328125,-0.0016282566357403994,-0.0022101574577391148,-0.006019276566803455
1773790482884333300,3.329333251953125,0.00008175904804375023,-0.003483148291707039,-0.0046120621263980865
1773790482904296400,3.34929638671875,-0.000434361572843045,-0.001784850494004786,-0.006871754303574562
1773790482924259300,3.36925927734375,-0.000547279603779316,-0.004111654590815306,-0.0047060721553862095
1773790482944223500,3.389223388671875,0.00020959076937288046,-0.003022954100742936,-0.006281065288931131
1773790482964186400,3.409186279296875,-0.000045806369598722085,-0.002228266792371869,-0.005577458068728447
1773790482984149500,3.4291494140625,-0.00011930961773032323,-0.002439721953123808,-0.004841094370931387
1773790483004113400,3.449113525390625,-0.00004820321555598639,-0.003245061729103327,-0.0062554990872740746
1773790483024076500,3.46907666015625,0.00022157499915920198,-0.0028879318851977587,-0.005826463922858238
1773790483044039200,3.4890390625,0.0006436860421672463,-0.0020570256747305393,-0.004849083721637726
1773790483064002300,3.509002197265625,-0.0003158508916385472,-0.0020836573094129562,-0.005234443116933107
1773790483083966200,3.52896630859375,0.0008474178612232208,-0.004113784991204739,-0.00771624268963933
1773790483103929300,3.548929443359375,-0.0025132251903414726,-0.002694852650165558,-0.00490314606577158
1773790483123892200,3.568892333984375,-0.0007033408619463444,-0.003787281457334757,-0.007573497481644154
1773790483143856400,3.5888564453125,-0.000544350128620863,-0.00321922916918993,-0.00552206439897418
1773790483163819300,3.6088193359375,0.00044554684427566826,-0.003177151083946228,-0.0060086240991950035
1773790483183782400,3.628782470703125,0.0002407497668173164,-0.0025715483352541924,-0.0065567027777433395
1773790483203745300,3.648745361328125,-0.0006058691651560366,-0.002118011936545372,-0.006006759591400623
1773790483223709400,3.66870947265625,-0.00007270430069183931,-0.004052532371133566,-0.005318598821759224
1773790483243672300,3.68867236328125,-0.000916393706575036,-0.0034194989129900932,-0.004702343605458736
1773790483263635500,3.708635498046875,-0.0002567287301644683,-0.002433596644550562,-0.0067716194316744804
1773790483283599400,3.728599365234375,-0.0011635350529104471,-0.002412557601928711,-0.005241899751126766
1773790483303562500,3.7485625,0.0012258529895916581,-0.0029878003988415003,-0.007472563534975052
1773790483323525400,3.768525390625,-0.0009198558400385082,-0.0019598202779889107,-0.0027318706270307302
1773790483343488500,3.788488525390625,-0.00004793690095539205,-0.0026498453225940466,-0.006366819143295288
1773790483363452400,3.808452392578125,-0.00155262288171798,-0.002523345174267888,-0.004220045171678066
1773790483383415600,3.82841552734375,-0.0006841660942882299,-0.00315930787473917,-0.005391569808125496
1773790483403378200,3.848378173828125,-0.0003680488734971732,-0.0018825886072590947,-0.0067905280739068985
1773790483423341300,3.86834130859375,-0.0006362291751429439,-0.0033771544694900513,-0.005687713157385588
1773790483443305200,3.88830517578125,-0.0008876316132955253,-0.002944923471659422,-0.0054640076123178005
1773790483463268400,3.908268310546875,-0.001916410750709474,-0.0033715618774294853,-0.007095992565155029
1773790483483231200,3.928231201171875,0.00005273058923194185,-0.004093012306839228,-0.0059625511057674885
1773790483503195400,3.9481953125,0.00006338323146337643,-0.0034698324743658304,-0.006421413738280535
1773790483523158300,3.968158203125,-0.0017267935909330845,-0.0036759611684828997,-0.0057564228773117065
1773790483543121400,3.988121337890625,-0.0011835087789222598,-0.0025270734913647175,-0.0062829297967255116
1773790483563085300,4.008085205078125,0.00007137271313695237,-0.003230947069823742,-0.005627791862934828
1773790483583048400,4.02804833984375,-0.0006740460521541536,-0.002892459277063608,-0.006896788254380226
1773790483603011300,4.04801123046875,0.00003808320252574049,-0.004159324802458286,-0.005841909907758236
1773790483622974500,4.067974365234375,-0.0003424825263209641,-0.0022088258992880583,-0.005548429675400257
1773790483642937900,4.087937744140625,0.0009017463307827711,-0.001942776027135551,-0.005563609767705202
1773790483662901000,4.10790087890625,0.00026258768048137426,-0.002055694116279483,-0.0062605589628219604
1773790483682863900,4.12786376953125,0.0004319647268857807,-0.0032314795535057783,-0.006863232236355543
1773790483702827000,4.147826904296875,0.0006655239267274737,-0.001412806916050613,-0.0070283482782542706
1773790483722791000,4.167791015625,-0.0014468954177573323,-0.002980343531817198,-0.006785201840102673
1773790483742754000,4.187754150390625,0.000004793690095539205,-0.003041330026462674,-0.0046578687615692616
1773790483762717000,4.207717041015625,-0.00009400958515470847,-0.003207511268556118,-0.005770004820078611
1773790483782681000,4.22768115234375,-0.000011451592399680521,-0.0030186930671334267,-0.005810218397527933
1773790483802644000,4.24764404296875,0.0004809668753296137,-0.0030282805673778057,-0.006539658177644014
1773790483822606800,4.26760693359375,-0.0017366473330184817,-0.0025190841406583786,-0.0057590859942138195
1773790483842569700,4.28756982421875,-0.0011656655697152019,-0.003020024625584483,-0.005233644042164087
1773790483862534000,4.307533935546875,-0.00007190534961409867,-0.0020213392563164234,-0.005821403581649065
1773790483882496800,4.327496826171875,-0.0009084042394533753,-0.0025806031189858913,-0.006024336442351341
1773790483902460000,4.3474599609375,-0.0009171926649287343,-0.0023813985753804445,-0.004680239129811525
1773790483922423800,4.367423828125,-0.0002772350562736392,-0.0034815503749996424,-0.005683451890945435
1773790483942387000,4.387386962890625,-0.00007723167072981596,-0.002665824256837368,-0.005539641249924898
1773790483962349800,4.407349853515625,-0.0008322378271259367,-0.002968891989439726,-0.006483998149633408
1773790483982313000,4.42731298828125,-0.0007145261042751372,-0.0027084348257631063,-0.005790777504444122
1773790484002276900,4.44727685546875,-0.000284159294096753,-0.0023992417845875025,-0.005825132131576538
1773790484022240000,4.467239990234375,-0.0005030711181461811,-0.00264824740588665,-0.005952964071184397
1773790484042203000,4.487202880859375,-0.0008767126128077507,-0.0029667613562196493,-0.00723394425585866
1773790484062166000,4.507166015625,-0.0009962886106222868,-0.0029254823457449675,-0.005513542331755161
1773790484082130000,4.5271298828125,0.000007723167072981596,-0.003948402591049671,-0.005872270092368126
1773790484102093000,4.547093017578125,-0.0011142665753141046,-0.00392762990668416,-0.006036587059497833
1773790484122056000,4.567055908203125,-0.0006202502408996224,-0.0019654128700494766,-0.004049336537718773
1773790484142020000,4.58702001953125,-0.0009606021922081709,-0.0017843178939074278,-0.006337790749967098
1773790484161983000,4.60698291015625,-0.0007366303470917046,-0.0027861990965902805,-0.005274390336126089
1773790484181945900,4.62694580078125,-0.00019654128118418157,-0.0034554514568299055,-0.005657619331032038
1773790484201908700,4.64690869140625,0.00042876892257481813,-0.0026405241806060076,-0.004986236337572336
1773790484221873000,4.666872802734375,-0.0008881642133928835,-0.0022184131667017937,-0.0054674698039889336
1773790484241835800,4.686835693359375,-0.0016554208705201745,-0.002522812457755208,-0.004844822455197573
1773790484261799000,4.706798828125,-0.0006591323763132095,-0.0031180288642644882,-0.006397179327905178
1773790484281762800,4.7267626953125,0.000958205375354737,-0.0024194817524403334,-0.006049636751413345
1773790484301726000,4.746725830078125,-0.00029401297797448933,-0.001967010786756873,-0.006368417292833328
1773790484321688800,4.766688720703125,-0.0001525991247035563,-0.0026991136837750673,-0.006888798903673887
1773790484341652000,4.78665185546875,-0.0002567287301644683,-0.00336144189350307,-0.005658152047544718
1773790484361616000,4.806615966796875,0.0002085255109705031,-0.0027055053506046534,-0.005363606382161379
1773790484381579000,4.8265791015625,-0.0014261227333918214,-0.0029795446898788214,-0.005364938173443079
1773790484401542000,4.8465419921875,-0.0012247877893969417,-0.005332979839295149,-0.005631254054605961
1773790484421505000,4.866505126953125,-0.001056209672242403,-0.002785133896395564,-0.0049193911254405975
1773790484441469000,4.886468994140625,-0.0014306501252576709,-0.0023819312918931246,-0.007303719408810139
1773790484461432000,4.90643212890625,0.00017496968212071806,-0.003707386553287506,-0.0052048820070922375
1773790484481395000,4.92639501953125,-0.0013462279457598925,-0.002379534300416708,-0.0062493737787008286
1773790484501359000,4.946359130859375,-0.0003539340978022665,-0.002942260354757309,-0.004785700235515833
1773790484521322000,4.966322021484375,-0.0005081311101093888,-0.0027712853625416756,-0.005583583377301693
1773790484541284900,4.986284912109375,-0.0008295746520161629,-0.0023840616922825575,-0.005578257143497467
1773790484561247700,5.006247802734375,-0.00018109494703821838,-0.003261040663346648,-0.004524177871644497
1773790484581212000,5.0262119140625,-0.0009201221400871873,-0.003876497270539403,-0.007309578359127045
1773790484601174800,5.0461748046875,0.0006125270738266408,-0.0021752698812633753,-0.004735366906970739
1773790484621138000,5.066137939453125,-0.0009704558760859072,-0.0026098978705704212,-0.0057257963344454765
1773790484641100800,5.086100830078125,0.0008306399104185402,-0.002546514617279172,-0.0054698665626347065
1773790484661065000,5.10606494140625,0.0001805623178370297,-0.001919073867611587,-0.006841660942882299
1773790484681027800,5.12602783203125,0.0001882854849100113,-0.0028578380588442087,-0.00552126532420516
1773790484700991000,5.145990966796875,-0.000070307454734575,-0.0029965888243168592,-0.0058094197884202
1773790484720955000,5.165954833984375,-0.001130778226070106,-0.0027055053506046534,-0.005322327371686697
1773790484740918000,5.18591796875,-0.00027031084755435586,-0.0033009881153702736,-0.004606469534337521
1773790484760881000,5.205880859375,-0.0010540791554376483,-0.004799549002200365,-0.005859753116965294
1773790484780844000,5.225843994140625,-0.0004569984448608011,-0.004043477587401867,-0.0062464443035423756
1773790484800808000,5.245807861328125,-0.00020106865849811584,-0.002701244316995144,-0.005617139395326376
1773790484820771000,5.26577099609375,-0.0008327704854309559,-0.0034373418893665075,-0.0038045919500291348
1773790484840734000,5.28573388671875,-0.001859419047832489,-0.0015872439835220575,-0.006444317288696766
1773790484860697000,5.305697021484375,-0.00007430219557136297,-0.002947586588561535,-0.005440571811050177
1773790484880661000,5.325660888671875,0.00009747169679030776,-0.0036464000586420298,-0.005447496194392443
1773790484900624100,5.3456240234375,0.00004340952364145778,-0.0030985879711806774,-0.006229400169104338
1773790484920587000,5.3655869140625,-0.0008833705214783549,-0.003183010034263134,-0.006500510033220053
1773790484940551200,5.38555126953125,-0.0002641855680849403,-0.0032682311721146107,-0.004867991898208857
1773790484960514000,5.40551416015625,0.00009374327055411413,-0.0020841897930949926,-0.004603007808327675
1773790484980477200,5.425477294921875,-0.0009755159262567759,-0.002656503114849329,-0.005505552981048822
1773790485000439800,5.445439697265625,0.00011185276525793597,-0.002831206424161792,-0.004515389446169138
1773790485020404200,5.465404296875,-0.0015954998089000583,-0.0038341530598700047,-0.004985703621059656
1773790485040366800,5.485366943359375,0.00039254993316717446,-0.004110855516046286,-0.006314088590443134
1773790485060330000,5.505330078125,-0.0002844255941454321,-0.002939863596111536,-0.005630987696349621
1773790485080292900,5.52529296875,0.00008388957212446257,-0.0036495958920568228,-0.006725546903908253
1773790485100257000,5.545257080078125,0.0007398261222988367,-0.0030445256270468235,-0.0051750545389950275
1773790485120220000,5.565219970703125,0.0007384945638477802,-0.0031071100383996964,-0.006841660942882299
1773790485140183000,5.58518310546875,0.0007483482477255166,-0.0030043120495975018,-0.006263222079724073
1773790485160147000,5.60514697265625,-0.0002079928817693144,-0.002769953804090619,-0.0065252771601080894
1773790485180110000,5.625110107421875,-0.00007909588020993397,-0.0025843314360827208,-0.005844040773808956
1773790485200073000,5.645072998046875,0.0002540655550546944,-0.004211523104459047,-0.007110639940947294
1773790485220036000,5.6650361328125,-0.001580053474754095,-0.003224289044737816,-0.006068012677133083
1773790485240000000,5.685,-0.0010607370641082525,-0.002487925114110112,-0.005200354848057032
1773790485259963100,5.704963134765625,-0.0003225088003091514,-0.003340402850881219,-0.004860268905758858
1773790485279926000,5.724926025390625,0.000059921123465755954,-0.0029324067290872335,-0.005430984310805798
1773790485299889200,5.74488916015625,-0.0009933591354638338,-0.0019651465117931366,-0.004378769546747208
1773790485319853000,5.76485302734375,0.00026498452643863857,-0.002938798163086176,-0.004250138532370329
1773790485339816200,5.784816162109375,-0.0004809668753296137,-0.003972104750573635,-0.0057130130007863045
1773790485359778800,5.80477880859375,-0.00039015308720991015,-0.0034551850985735655,-0.0052022188901901245
1773790485379742000,5.824741943359375,-0.0012564794160425663,-0.0022144184913486242,-0.005144162103533745
1773790485399705900,5.844705810546875,0.0004069310089107603,-0.004040281753987074,-0.00520754512399435
1773790485419669000,5.8646689453125,0.00002210423735959921,-0.0037377465050667524,-0.006031793542206287
1773790485439632000,5.8846318359375,0.0009068063227459788,-0.002597380895167589,-0.006961503066122532
1773790485459596000,5.904595947265625,0.0004956142511218786,-0.003290868131443858,-0.005817409139126539
1773790485479559000,5.924558837890625,-0.0009984191274270415,-0.0030743530951440334,-0.0065106297843158245
1773790485499522000,5.94452197265625,-0.001793905277736485,-0.0025592977181077003,-0.005688245873898268
1773790485519485000,5.96448486328125,0.00018375810759607702,-0.0031486554071307182,-0.006095709279179573
1773790485539449000,5.984448974609375,-0.001347559504210949,-0.0034013893455266953,-0.0059689427725970745
1773790485559412000,6.004411865234375,0.0002388855500612408,-0.003955060616135597,-0.0054152715019881725
1773790485579375000,6.024375,-0.00018695391190703958,-0.003059173235669732,-0.006066414527595043
1773790485599338000,6.044337890625,-0.001136104459874332,-0.0030948594212532043,-0.007178550586104393
1773790485619302100,6.06430224609375,-0.0005603290628641844,-0.003013632958754897,-0.006406500469893217
1773790485639265300,6.084265380859375,-0.0007486145477741957,-0.001645567244850099,-0.006110623013228178
1773790485659228400,6.104228515625,-0.0009187905816361308,-0.00250550196506083,-0.00561048137024045
1773790485679191300,6.12419140625,0.00034221619716845453,-0.0024197481106966734,-0.005585181526839733
1773790485699155500,6.144155517578125,-0.001511610229499638,-0.0031577101908624172,-0.005820338614284992
1773790485719118300,6.164118408203125,0.0010159959783777595,-0.003320162883028388,-0.004720453172922134
1773790485739081500,6.18408154296875,-0.0003685815026983619,-0.003891677362844348,-0.006499178241938353
1773790485759044000,6.204044189453125,-0.0003504719934426248,-0.0026487798895686865,-0.006413424387574196
1773790485779008500,6.224008544921875,-0.0002740392810665071,-0.0028242822736501694,-0.0036820864770561457
1773790485798971100,6.24397119140625,-0.00045300371129997075,-0.0029726203065365553,-0.005390238016843796
1773790485818934300,6.263934326171875,0.0002479403046891093,-0.0030181603506207466,-0.005101551301777363
1773790485838897200,6.283897216796875,0.0014631407102569938,-0.002779541304334998,-0.00549170421436429
1773790485858861300,6.303861328125,-0.000023968450477696024,-0.001886050682514906,-0.005871471017599106
1773790485878824200,6.32382421875,-0.0007073355955071747,-0.0035920715890824795,-0.005761216394603252
1773790485898787300,6.343787353515625,0.00013688647595699877,-0.003020024625584483,-0.005769738461822271
1773790485918751200,6.363751220703125,-0.000401604687795043,-0.0018809906905516982,-0.005349225364625454
1773790485938714400,6.38371435546875,-0.0011720572365447879,-0.002784867538139224,-0.005833654198795557
1773790485958677200,6.40367724609375,-0.00003728425508597866,-0.002457032445818186,-0.0064975805580616
1773790485978640400,6.423640380859375,0.00006178533658385277,-0.002490055514499545,-0.0057255299761891365
1773790485998604300,6.443604248046875,-0.000520647969096899,-0.003372893435880542,-0.00392736354842782
1773790486018567400,6.4635673828125,0.0003230414295103401,-0.0022509037517011166,-0.005953230429440737
1773790486038530300,6.4835302734375,-0.000523843802511692,-0.0034911378752440214,-0.005268531385809183
1773790486058493400,6.503493408203125,0.00003834952076431364,-0.002645584288984537,-0.00436172541230917
1773790486078457300,6.523457275390625,-0.0003810983616858721,-0.002129463478922844,-0.0060355220921337605
1773790486098420500,6.54342041015625,-0.0003382214636076242,-0.002555835759267211,-0.005256281234323978
1773790486118383000,6.563383056640625,0.0006029396899975836,-0.0035952674224972725,-0.005314604379236698
1773790486138346200,6.58334619140625,-0.0010913633741438389,-0.002112152986228466,-0.006685599684715271
1773790486158310100,6.60331005859375,-0.000007190534688561456,-0.003023220458999276,-0.005690109916031361
1773790486178273300,6.623273193359375,-0.00038642468280158937,-0.003296727081760764,-0.005628857295960188
1773790486198236200,6.643236083984375,0.00044368262751959264,-0.0032115059439092875,-0.004054130055010319
1773790486218199300,6.66319921875,-0.0007893609581515193,-0.0034442662727087736,-0.005363606382161379
1773790486238163200,6.6831630859375,0.00016698020044714212,-0.0019116170005872846,-0.0044410875998437405
1773790486258126300,6.703126220703125,-0.0007491472060792148,-0.0022397185675799847,-0.005477589555084705
1773790486278089200,6.723089111328125,-0.0008346347021870315,-0.0015483618481084704,-0.006464823614805937
1773790486298052400,6.74305224609375,-0.0006562029011547565,-0.0035723643377423286,-0.004762797150760889
1773790486318016300,6.763016357421875,-0.0001715075777610764,-0.004277036525309086,-0.0070424629375338554
1773790486337979400,6.7829794921875,0.0006343649583868682,-0.002403502818197012,-0.005216333549469709
1773790486357942300,6.8029423828125,-0.0014982944121584296,-0.003772367723286152,-0.004550010897219181
1773790486377906400,6.822906494140625,0.0006490123341791332,-0.0028581044171005487,-0.005401156842708588
1773790486397869300,6.842869384765625,0.00022556974727194756,-0.002531600883230567,-0.005374258849769831
1773790486417832400,6.86283251953125,-0.00014434332842938602,-0.00392683083191514,-0.0062461779452860355
1773790486437795000,6.882795166015625,0.0005811017472296953,-0.0032839439809322357,-0.005484247580170631
1773790486457758200,6.90275830078125,-0.0017710020765662193,-0.0028602350503206253,-0.004180363845080137
1773790486477722000,6.92272216796875,-0.0012929646763950586,-0.0037406759802252054,-0.005852296482771635
1773790486497685200,6.942685302734375,-0.00037230990710668266,-0.0014900385867804289,-0.006443784572184086
1773790486517648100,6.962648193359375,0.0005936186062172055,-0.002372077666223049,-0.005075186025351286
1773790486537612300,6.9826123046875,-0.0011885687708854675,-0.0037742317654192448,-0.004864530172199011
1773790486557575200,7.0025751953125,-0.0008085357258096337,-0.0030597057193517685,-0.004988633096218109
1773790486577538300,7.022538330078125,0.0003914846747647971,-0.0018303906545042992,-0.006433132104575634
1773790486597501200,7.042501220703125,-0.0007478156476281583,-0.0037380128633230925,-0.004485029727220535
1773790486617465300,7.06246533203125,-0.0006261091912165284,-0.0024471788201481104,-0.006250172853469849
1773790486637430800,7.0824306640625,0.0012261193478479981,-0.0035665053874254227,-0.005144428461790085
1773790486657393700,7.1023935546875,0.00043888893560506403,-0.0027087011840194464,-0.005826463922858238
1773790486677356800,7.122356689453125,0.0010135991033166647,-0.0037702370900660753,-0.0073500582948327065
1773790486697320700,7.14232080078125,0.00004926848123432137,-0.0029609024059027433,-0.006393717136234045
1773790486717283800,7.162283935546875,-0.0004141215467825532,-0.0027771443128585815,-0.0044378917664289474
1773790486737246700,7.182246826171875,-0.00013848437811248004,-0.0031465247739106417,-0.0049092709086835384
1773790486757209900,7.2022099609375,-0.000336090917699039,-0.003739078063517809,-0.006525010801851749
1773790486777173800,7.222173828125,-0.0009331716573797166,-0.0031380027066916227,-0.005927131045609713
1773790486797137000,7.242136962890625,0.00043516053119674325,-0.003388339886441827,-0.005604888778179884
1773790486817099800,7.262099853515625,-0.0010266485624015331,-0.0020042951218783855,-0.006482666824012995
1773790486837063000,7.28206298828125,-0.0003046656202059239,-0.001461010193452239,-0.0057652113027870655
1773790486857026800,7.30202685546875,-0.0017222663154825568,-0.0026988473255187273,-0.004727909807115793
1773790486876990000,7.321989990234375,-0.0008937568636611104,-0.003865312086418271,-0.006085589528083801
1773790486896952800,7.341952880859375,0.000016777914424892515,-0.004010720644146204,-0.006138053722679615
1773790486916915700,7.361915771484375,-0.0001675128296483308,-0.003028813051059842,-0.006306897848844528
1773790486936879900,7.3818798828125,0.0005318332696333528,-0.00270710326731205,-0.0062914518639445305
1773790486956842800,7.4018427734375,-0.0014018879737704992,-0.0024580976460129023,-0.0049004824832081795
1773790486976805600,7.4218056640625,-0.001999501371756196,-0.0030890004709362984,-0.005147091578692198
1773790486996768800,7.441768798828125,-0.001814944320358336,-0.0022040321491658688,-0.006846188101917505
1773790487016732700,7.461732666015625,-0.0007446198142133653,-0.0020032296888530254,-0.004775846842676401
1773790487036695800,7.48169580078125,0.0009030779474414885,-0.0037910097744315863,-0.0054123420268297195
1773790487056658700,7.50165869140625,-0.0009829727932810783,-0.0030626351945102215,-0.005801163613796234
1773790487076621800,7.521621826171875,-0.0002926813904196024,-0.0023499734234064817,-0.006637662649154663
1773790487096585700,7.541585693359375,0.0008519452530890703,-0.0036280243657529354,-0.0057681407779455185
1773790487116548900,7.561548828125,-0.0014375743921846151,-0.0025808694772422314,-0.005825664848089218
1773790487136511700,7.58151171875,0.0004892227007076144,-0.003707386553287506,-0.005179049447178841
1773790487156475000,7.601474853515625,0.0000045273736759554595,-0.002403769176453352,-0.00640756543725729
1773790487176438800,7.621438720703125,-0.0007603325066156685,-0.0036099147982895374,-0.006056294776499271
1773790487196402000,7.64140185546875,-0.0003299656673334539,-0.003433613572269678,-0.003816842334344983
1773790487216364800,7.66136474609375,-0.0008892294717952609,-0.002728408435359597,-0.007979895919561386
1773790487236328000,7.681327880859375,-0.0006615291931666434,-0.002679938916116953,-0.0057036918587982655
1773790487256291800,7.701291748046875,-0.00011717908637365326,-0.004275705199688673,-0.006815827917307615
1773790487276255000,7.7212548828125,-0.0002897519152611494,-0.0016908409306779504,-0.004351605195552111
1773790487296217600,7.741217529296875,0.0010703244479373097,-0.0018658105982467532,-0.0052325790748000145
1773790487316180700,7.7611806640625,0.00038003307417966425,-0.0027254789602011442,-0.004030960611999035
1773790487336144600,7.78114453125,-0.0009307747823186219,-0.0028450549580156803,-0.0059998356737196445
1773790487356107800,7.801107666015625,0.000580036488827318,-0.0033515882678329945,-0.006262157112360001
1773790487376070700,7.821070556640625,-0.0010277138790115714,-0.0033518546260893345,-0.005036037415266037
1773790487396033800,7.84103369140625,-0.0010607370641082525,-0.001862082164734602,-0.005755091086030006
1773790487415997700,7.860997802734375,-0.0006617955514229834,-0.002891660202294588,-0.005061870440840721
1773790487435960800,7.8809609375,-0.00038482676609419286,-0.0020967067684978247,-0.005533249583095312
1773790487455923700,7.900923828125,0.0003680488734971732,-0.0019094864837825298,-0.004998486954718828
1773790487475886800,7.920886962890625,-0.0010607370641082525,-0.002843723399564624,-0.006846720818430185
1773790487495850800,7.940850830078125,-0.0004348942020442337,-0.0025867284275591373,-0.006250971462577581
1773790487515814000,7.96081396484375,-0.0010186590952798724,-0.0025369273498654366,-0.006193181034177542
1773790487535776800,7.98077685546875,0.0003203782835043967,-0.0019409117521718144,-0.005662945564836264
1773790487555740000,8.000739990234376,-0.0003709783486556262,-0.0032783513888716698,-0.00788428820669651
1773790487575703800,8.020703857421875,-0.000006125270374468528,-0.002341717481613159,-0.005375324282795191
1773790487595667000,8.0406669921875,-0.00012516857532318681,-0.0019835224375128746,-0.006193181034177542
1773790487615629600,8.060629638671875,-0.0009289105655625463,-0.005016596522182226,-0.0051987566985189915
1773790487635590000,8.08058984375,-0.0008045409340411425,-0.002871153876185417,-0.005596366710960865
1773790487655553800,8.1005537109375,-0.0006583334179595113,-0.003052515210583806,-0.004791293293237686
1773790487675517000,8.120516845703126,0.00006258428766159341,-0.0023971113841980696,-0.005675196181982756
1773790487695479800,8.140479736328125,-0.0002508697798475623,-0.001415736391209066,-0.004865328781306744
1773790487715443000,8.16044287109375,0.0005046690348535776,-0.0017339842161163688,-0.005082643125206232
1773790487735406800,8.18040673828125,-0.0007422229973599315,-0.002983539365231991,-0.0046512107364833355
1773790487755370000,8.200369873046874,0.0010490191634744406,-0.0031531827989965677,-0.0059633501805365086
1773790487775332900,8.220332763671875,0.0007416903390549123,-0.0030131004750728607,-0.006038983818143606
1773790487795296000,8.2402958984375,0.0001459412305848673,-0.0030272151343524456,-0.006508499383926392
1773790487815260000,8.260260009765625,-0.00023808660625945777,-0.0026194851379841566,-0.004036286845803261
1773790487835223000,8.28022314453125,-0.0003880225704051554,-0.0025891251862049103,-0.005659483373165131
1773790487855186000,8.30018603515625,0.0003968109958805144,-0.0024319987278431654,-0.004218180663883686
1773790487875149000,8.320149169921875,-0.0011659319279715419,-0.003373692510649562,-0.0051534827798604965
1773790487895113000,8.340113037109376,-0.00030866035376675427,-0.003516171593219042,-0.007137804292142391
1773790487915076000,8.360076171875,-0.002062085550278425,-0.003751595038920641,-0.005666674114763737
1773790487935038700,8.380038818359376,0.0004058657505083829,-0.0030146983917802572,-0.006857639644294977
1773790487955001900,8.400001953125,-0.0012932310346513987,-0.0031561122741550207,-0.005082110408693552
1773790487974965800,8.4199658203125,0.00005858954318682663,-0.0037404096219688654,-0.0054094125516712666
1773790487994929000,8.439928955078125,-0.0006884271278977394,-0.002600310370326042,-0.005246161017566919
1773790488014891800,8.459891845703124,-0.0005315669695846736,-0.001716673607006669,-0.006353503558784723
1773790488034855000,8.47985498046875,-0.000040480048483004794,-0.0026671558152884245,-0.0062552327290177345
1773790488054818800,8.49981884765625,-0.00020346550445538014,-0.0036253612488508224,-0.00618039770051837
1773790488074782000,8.519781982421875,0.00018615495355334133,-0.0018929748330265284,-0.00618172949180007
1773790488094744800,8.539744873046875,-0.0001131843455368653,-0.0032892702147364616,-0.0065228804014623165
1773790488114708000,8.5597080078125,-0.00023675501870457083,-0.0022184131667017937,-0.0052293832413852215
1773790488134672000,8.579671875,-0.0008974852971732616,-0.003055711043998599,-0.006943127140402794
1773790488154635000,8.599635009765626,-0.0012279836228117347,-0.003472229465842247,-0.006906109396368265
1773790488174598000,8.619597900390625,0.000045540054998127744,-0.002150236163288355,-0.004565456882119179
1773790488194561000,8.63956103515625,-0.0006735134520567954,-0.0022216090001165867,-0.005089833401143551
1773790488214525000,8.65952490234375,0.00028522455249913037,-0.0025007082149386406,-0.005149754695594311
1773790488234488000,8.679488037109374,-0.0013243899447843432,-0.003454652614891529,-0.0046639940701425076
1773790488254450700,8.69945068359375,0.000022370553779182956,-0.003323358716443181,-0.005026716738939285
1773790488274413800,8.719413818359374,-0.0003605920064728707,-0.003935885615646839,-0.004948153160512447
1773790488294377700,8.739377685546875,0.0006972155533730984,-0.0034107104875147343,-0.004216316621750593
1773790488314340900,8.7593408203125,-0.0004548678989522159,-0.003430684097111225,-0.005840844940394163
1773790488334303700,8.7793037109375,0.0011416971683502197,-0.0033340114168822765,-0.0054450989700853825
1773790488354267000,8.799266845703125,0.00035952674807049334,-0.0026823359075933695,-0.006116215605288744
1773790488374230800,8.819230712890626,-0.00004021373388241045,-0.0032594427466392517,-0.006946855690330267
1773790488394194000,8.83919384765625,-0.0012229235144332051,-0.003340935567393899,-0.005505552981048822
1773790488414156800,8.85915673828125,0.00015872440417297184,-0.0038253646343946457,-0.005626194179058075
1773790488434120000,8.879119873046875,-0.00034408041392453015,-0.0024735440965741873,-0.0044996771030128
1773790488454083800,8.899083740234374,0.0013941648649051785,-0.002519350266084075,-0.0059625511057674885
1773790488474047000,8.919046875,0.000550475378986448,-0.0015158712631091475,-0.006446181330829859
1773790488494009900,8.939009765625,0.0003456783015280962,-0.00221974472515285,-0.004539091605693102
1773790488513973000,8.958972900390625,-0.0014306501252576709,-0.0031555795576423407,-0.0059929112903773785
1773790488533937000,8.97893701171875,0.000150202278746292,-0.002039981307461858,-0.006286391522735357
1773790488553900000,8.998900146484376,-0.00019654128118418157,-0.002769953804090619,-0.00555082643404603
1773790488573863000,9.01886279296875,-0.00025353292585350573,-0.0024498419370502234,-0.005305016878992319
1773790488593825800,9.03882568359375,0.00007856325100874528,-0.00324852392077446,-0.004629373084753752
1773790488613789700,9.058789794921875,-0.0012282498646527529,-0.0016913736471906304,-0.007187339011579752
1773790488633752800,9.0787529296875,-0.0011550129856914282,-0.00170788518153131,-0.006653641816228628
1773790488653716000,9.098716064453125,-0.0007179882377386093,-0.0019680759869515896,-0.006455768831074238
1773790488673678800,9.118678955078124,-0.0013342436868697405,-0.0030599720776081085,-0.005786516238003969
1773790488693643000,9.13864306640625,0.000401604687795043,-0.002008289797231555,-0.005408880300819874
1773790488713606000,9.15860595703125,-0.0007084008539095521,-0.002770752878859639,-0.005616073962301016
1773790488733569000,9.178569091796875,0.000690291344653815,-0.0023406522814184427,-0.0059811933897435665
1773790488753532000,9.198531982421875,0.0012370382901281118,-0.002151035238057375,-0.005802495405077934
1773790488773495800,9.218495849609376,-0.00012117382721044123,-0.004376638680696487,-0.005532184615731239
1773790488793459000,9.238458984375,0.000029827404432580806,-0.0026770094409585,-0.005711148958653212
1773790488813422000,9.258422119140626,-0.0010367685463279486,-0.002360093407332897,-0.006253900937736034
1773790488833385000,9.278385009765625,-0.00017949705943465233,-0.002341983839869499,-0.005820338614284992
1773790488853348900,9.298348876953124,0.0012713931500911713,-0.002547047333791852,-0.0054885088466107845
1773790488873312000,9.31831201171875,0.0009177253232337534,-0.0020394488237798214,-0.004733768757432699
1773790488893275100,9.338275146484374,0.00004820321555598639,-0.0025872609112411737,-0.006088252644985914
1773790488913238000,9.358238037109375,-0.00011398329661460593,-0.002174471039324999,-0.005284776911139488
1773790488933202000,9.378201904296875,0.000598145998083055,-0.0023790018167346716,-0.005357747431844473
1773790488953165000,9.3981650390625,-0.0002519350382499397,-0.0029606360476464033,-0.006356166675686836
1773790488973128200,9.418128173828125,0.001130511867813766,-0.002956641372293234,-0.005446430761367083
1773790488993090800,9.4380908203125,-0.0004540689697023481,-0.0031396006233990192,-0.00603365758433938
1773790489013055000,9.458054931640625,0.0004918858758173883,-0.002513757674023509,-0.0054970309138298035
1773790489033017900,9.478017822265626,-0.0016932378057390451,-0.004097007215023041,-0.007754592224955559
1773790489052981000,9.49798095703125,-0.0014442323008552194,-0.0024951156228780746,-0.004966529086232185
1773790489072943900,9.51794384765625,-0.0010468886466696858,-0.0028445222415030003,-0.007012635935097933
1773790489092908000,9.537907958984375,-0.001062334980815649,-0.00410473020747304,-0.006439789664000273
1773790489112871000,9.557870849609374,0.0009893643436953425,-0.0018658105982467532,-0.006283462047576904
1773790489132834000,9.577833984375,0.0007925567333586514,-0.0027832696214318275,-0.00577852688729763
1773790489152797000,9.597796875,-0.0013677994720637798,-0.0019651465117931366,-0.006160690449178219
1773790489172761000,9.617760986328125,-0.0012128035305067897,-0.0022208099253475666,-0.0064776064828038216
1773790489192724000,9.637723876953125,-0.0010556770721450448,-0.0033156354911625385,-0.0054240599274635315
1773790489212687000,9.65768701171875,-0.00039308256236836314,-0.002669020090252161,-0.005804359447211027
1773790489232650000,9.67764990234375,-0.0001954760227818042,-0.0032487902790308,-0.005889314226806164
1773790489252614100,9.6976142578125,0.0008583368035033345,-0.002746784361079335,-0.006836334243416786
1773790489272577000,9.717576904296875,-0.0015552861150354147,-0.0029800771735608578,-0.004773183725774288
1773790489292540200,9.7375400390625,0.0003398193512111902,-0.0019089538836851716,-0.006142847239971161
1773790489312503000,9.7575029296875,0.00007962851668708026,-0.0026959178503602743,-0.006594519596546888
1773790489332467200,9.77746728515625,0.0008609999786131084,-0.0031284152064472437,-0.004911401774734259
1773790489352429800,9.797429931640625,-0.0011486213188618422,-0.00327275856398046,-0.0059713395312428474
1773790489372393000,9.81739306640625,0.00013369068619795144,-0.00270736962556839,-0.006432333029806614
1773790489392355800,9.83735595703125,-0.001419198582880199,-0.002554770326241851,-0.005559614859521389
1773790489412320000,9.857320068359375,-0.0013044163351878524,-0.002466087229549885,-0.004632036201655865
1773790489432283000,9.877282958984376,-0.00044767739018425345,-0.002822417998686433,-0.005901564843952656
1773790489452246000,9.89724609375,-0.0008364989189431071,-0.0031939290929585695,-0.005535114090889692
1773790489472209000,9.917208984375,-0.0020599551498889923,-0.0030011162161827087,-0.006903712637722492
1773790489492172000,9.937172119140625,-0.0009004147723317146,-0.001734516816213727,-0.004603273700922728
1773790489512136000,9.957135986328124,-0.0009917612187564373,-0.002781938062980771,-0.006421413738280535
1773790489532099000,9.97709912109375,0.00004846953015658073,-0.002906840294599533,-0.005006476305425167
1773790489552062000,9.99706201171875,0.0018309232546016574,-0.004424309358000755,-0.005390504375100136
1773790489572025000,10.017025146484375,-0.0007038734620437026,-0.0013659353135153651,-0.005455485545098782
1773790489591989000,10.036989013671874,0.00042796999332495034,-0.004186222795397043,-0.006322610657662153
1773790489611952000,10.0569521484375,0.0005906891310587525,-0.003323891432955861,-0.005150287412106991
1773790489631915000,10.0769150390625,-0.0007563377148471773,-0.0018375811632722616,-0.004288222175091505
1773790489651878100,10.096878173828125,-0.0009472863748669624,-0.003628823207691312,-0.005419000051915646
1773790489671842000,10.116842041015625,-0.0018431737553328276,-0.0036107138730585575,-0.006991863250732422
1773790489691805200,10.13680517578125,0.0002300971100339666,-0.002870887517929077,-0.005273325368762016
1773790489711768000,10.15676806640625,-0.0008591357618570328,-0.0041249701753258705,-0.0062696137465536594
1773790489731731200,10.176731201171876,0.0001699096756055951,-0.0023209447972476482,-0.005539108533412218
1773790489751695000,10.196695068359375,-0.0008346347021870315,-0.0024810009635984898,-0.004337490536272526
1773790489771658200,10.216658203125,-0.0011265170760452747,-0.002712429501116276,-0.005450159311294556
1773790489791621000,10.23662109375,-0.001091896090656519,-0.002689260058104992,-0.006661364808678627
1773790489811584000,10.256583984375,0.0007717840489931405,-0.00336197461001575,-0.005882656667381525
1773790489831548200,10.276548095703125,-0.0016921724891290069,-0.0014223942998796701,-0.005242432467639446
1773790489851511000,10.296510986328125,-0.00022423815971706063,-0.0018775284988805652,-0.006654440425336361
1773790489871474000,10.316473876953125,0.00017710021347738802,-0.003323891432955861,-0.00675377668812871
1773790489891437000,10.33643701171875,-0.0006775081856176257,-0.0033566481433808804,-0.005585980135947466
1773790489911401000,10.35640087890625,-0.0004040015337523073,-0.003739877138286829,-0.004441619850695133
1773790489931364000,10.376364013671875,-0.0004410194815136492,-0.003278617514297366,-0.006776679772883654
1773790489951327000,10.396326904296876,0.0008024104172363877,-0.0035145736765116453,-0.006478938274085522
1773790489971290000,10.4162900390625,-0.0008396946941502392,-0.0043777041137218475,-0.004990763962268829
1773790489991254000,10.43625390625,0.000598145998083055,-0.003065032185986638,-0.004736964590847492
1773790490011217200,10.456217041015625,0.0002884203568100929,-0.0016580841038376093,-0.005450159311294556
1773790490031180000,10.476179931640624,-0.0013550163712352514,-0.004311923868954182,-0.005852296482771635
1773790490051143200,10.49614306640625,-0.0013584784464910626,-0.0024285365361720324,-0.004967061802744865
1773790490071107000,10.516107177734375,0.00016058860637713224,-0.0033417344093322754,-0.0055090151727199554
1773790490091070200,10.5360703125,0.00008388957212446257,-0.002974750939756632,-0.00640916358679533
1773790490111033000,10.556033203125,-0.0005339637864381075,-0.0025997778866440058,-0.007017962168902159
1773790490130996000,10.575995849609376,-0.0011494202772155404,-0.002907106652855873,-0.0054520233534276485
1773790490150960000,10.595960205078125,-0.00044554684427566826,-0.002889263443648815,-0.006582002621144056
1773790490170923000,10.615923095703126,-0.00004234426160110161,-0.002597114769741893,-0.005094094667583704
1773790490190886100,10.63588623046875,-0.0007555388147011399,-0.0025513083674013615,-0.005046423990279436
1773790490210849000,10.65584912109375,-0.0017158746486529708,-0.0032522522378712893,-0.00501020485535264
1773790490230813000,10.67581298828125,-0.0007659250986762345,-0.0024106933269649744,-0.005768673028796911
1773790490250776000,10.695776123046874,0.0007488809060305357,-0.00267674308270216,-0.006780674215406179
1773790490270739200,10.7157392578125,-0.0007131945458240807,-0.002168612089008093,-0.005702893249690533
1773790490290702000,10.7357021484375,0.0005613943794742227,-0.004321777727454901,-0.003513508476316929
1773790490310666000,10.755666015625,-0.0009084042394533753,-0.0025092302821576595,-0.005073321983218193
1773790490330629000,10.775629150390625,-0.0011731224367395043,-0.0030269487760961056,-0.007348726503551006
1773790490350592300,10.79559228515625,-0.000222373942960985,-0.003644536016508937,-0.00637747161090374
1773790490370555100,10.81555517578125,-0.0002490055630914867,-0.0019478360190987587,-0.00637906976044178
1773790490390519000,10.83551904296875,-0.0000010652644277797663,-0.0035329493694007397,-0.006905843038111925
1773790490410482200,10.855482177734375,-0.0003081277245655656,-0.003041063668206334,-0.004309793468564749
1773790490430445300,10.8754453125,-0.0015273229219019413,-0.0029409287963062525,-0.005550294183194637
1773790490450408200,10.895408203125,0.001023452845402062,-0.0035441347863525152,-0.004751611966639757
1773790490470372000,10.9153720703125,-0.00003435477628954686,-0.0030072415247559547,-0.005653890781104565
1773790490490335000,10.9353349609375,-0.0003171824791934341,-0.003834951901808381,-0.004626177251338959
1773790490510298000,10.955298095703125,-0.0008972189389169216,-0.0028399948496371508,-0.006052033510059118
1773790490530261000,10.975260986328125,0.00024101608141791075,-0.0031132353469729424,-0.0051902346312999725
1773790490550224100,10.99522412109375,-0.0020663465838879347,-0.002808569697663188,-0.005077050067484379
1773790490570188000,11.01518798828125,0.00027377295191399753,-0.0019004317000508308,-0.005519933998584747
1773790490590151200,11.035151123046875,-0.000023435817638528533,-0.003284742822870612,-0.006726612336933613
1773790490610114000,11.055114013671876,-0.00043116576853208244,-0.0025928535033017397,-0.006133526097983122
1773790490630077200,11.0750771484375,-0.0007787083159200847,-0.005000617355108261,-0.00475534051656723
1773790490650040800,11.095040771484374,0.0005773733137175441,-0.0018250643042847514,-0.005064000841230154
1773790490670004000,11.11500390625,-0.0000852211524033919,-0.0029997846577316523,-0.006588127929717302
1773790490689966600,11.134966552734374,-0.0011462245602160692,-0.002490055514499545,-0.006798517424613237
1773790490709929700,11.1549296875,-0.0007009439868852496,-0.003584614722058177,-0.00427357479929924
1773790490729893600,11.1748935546875,0.00008841694943839684,-0.004266117699444294,-0.005058674607425928
1773790490749856800,11.194856689453125,-0.0007060039788484573,-0.0034019220620393753,-0.006481068674474955
1773790490769819600,11.214819580078125,-0.00048070057528093457,-0.003154247999191284,-0.00570049649104476
1773790490789782800,11.23478271484375,-0.00043809000635519624,-0.0030660973861813545,-0.005772401578724384
1773790490809746700,11.25474658203125,-0.000621848099399358,-0.0033185649663209915,-0.006165218073874712
1773790490829709800,11.274709716796876,0.000028495824153651483,-0.0033566481433808804,-0.004808071069419384
1773790490849672700,11.294672607421875,-0.0013379721203818917,-0.0028642297256737947,-0.004564391914755106
1773790490869635800,11.3146357421875,-0.0007747135823592544,-0.002817091764882207,-0.006082393694669008
1773790490889599700,11.334599853515625,-0.0004021373169962317,-0.0027808728627860546,-0.006048304960131645
1773790490909563000,11.35456298828125,-0.00019361180602572858,-0.0030751521699130535,-0.0046576024033129215
1773790490929525800,11.37452587890625,0.00013528858835343271,-0.0023012375459074974,-0.0067540425807237625
1773790490949489000,11.394489013671874,-0.0024562333710491657,-0.002499376656487584,-0.0036096484400331974
1773790490969452800,11.414452880859375,0.00007669904152862728,-0.003007774008437991,-0.006261890754103661
