time,seconds_elapsed,z,y,x
1773790479592881700,0.037881591796875,-0.00022351735970005393,0.0006338730454444885,0.0012707319110631943
1773790479612844800,0.0578447265625,0.00044288503704592586,-0.0007414231076836586,0.00013139285147190094
1773790479632808200,0.07780810546875,0.00011762657959479839,-0.0006540613248944283,-0.001682742964476347
1773790479652772000,0.097772216796875,-0.00006839673733338714,0.001013514818623662,0.002069286536425352
1773790479672735200,0.1177353515625,-0.000804086506832391,0.000674353213980794,-0.00013967789709568024
1773790479692699100,0.13769921875,0.0013237076345831156,0.0002757483161985874,-0.00036198366433382034
1773790479712662300,0.157662353515625,-0.0006351254996843636,0.00030801305547356606,0.0005390038713812828
1773790479732625200,0.177625244140625,0.001401896239258349,0.0006189492996782064,-0.0003767097368836403
1773790479752589300,0.19758935546875,-0.0011625682236626744,-0.00044719339348375797,-0.00039596064016222954
1773790479772552200,0.21755224609375,-0.0005080144619569182,0.0023490190505981445,0.0005325721576809883
1773790479792515300,0.237515380859375,-0.0017753340071067214,-0.0002156449481844902,-0.000017410144209861755
1773790479812479200,0.257479248046875,-0.0006060890154913068,0.00023640436120331287,-0.0008215750567615032
1773790479832442400,0.2774423828125,0.00039720983477309346,-0.0005726742092519999,-0.0007597999647259712
1773790479852405200,0.2974052734375,-0.0001291328517254442,-0.0003594057634472847,-0.00045758066698908806
1773790479872369400,0.317369384765625,0.0013003231724724174,-0.0010277624242007732,-0.0004819808527827263
1773790479892332300,0.337332275390625,-0.0006084231426939368,-0.0006185714155435562,-0.00016440637409687042
1773790479912295400,0.35729541015625,-0.001168298302218318,0.000024355947971343994,0.0006175371818244457
1773790479932259300,0.37725927734375,-0.0012388870818540454,0.0002599854487925768,0.0005828570574522018
1773790479952222500,0.397222412109375,0.00009617854084353894,0.0006606155075132847,-0.0009595570154488087
1773790479972185000,0.41718505859375,-0.0015052231028676033,0.0001766167115420103,0.0008065495640039444
1773790479992149000,0.43714892578125,0.00006127555388957262,-0.0009756912477314472,0.00044546741992235184
1773790480012112100,0.457112060546875,-0.0004677929973695427,-0.0007194448262453079,0.0011264868080615997
1773790480032075300,0.4770751953125,0.000834470265544951,0.00014146463945508003,-0.00048641255125403404
1773790480052039200,0.4970390625,0.0008703365456312895,-0.00013815704733133316,-0.0003737504594027996
1773790480072002000,0.517001953125,-0.00026424898533150554,-0.0011924623977392912,0.000004191882908344269
1773790480091965200,0.536965087890625,0.0006313646445050836,-0.00018208916299045086,-0.00017347140237689018
1773790480111929000,0.55692919921875,-0.0007405437645502388,0.00018371944315731525,0.00013987673446536064
1773790480131892200,0.576892333984375,-0.00040600766078568995,0.00034395535476505756,0.001305451150983572
1773790480151855000,0.596855224609375,-0.0006385314045473933,0.00004263152368366718,-0.000500289723277092
1773790480171819300,0.6168193359375,0.00004746636841446161,0.0009020920842885971,-0.0011568502523005009
1773790480191782100,0.6367822265625,0.00012227921979501843,0.0009861451108008623,-0.00015655159950256348
1773790480211745300,0.656745361328125,-0.001322125201113522,0.0012395299272611737,0.0005422388203442097
1773790480231709200,0.676709228515625,-0.0004940775688737631,0.0009589488618075848,-0.0003293445333838463
1773790480251672300,0.69667236328125,0.0006219809874892235,-0.0000018496066331863403,-0.0016810977831482887
1773790480271635200,0.71663525390625,-0.0010442414786666632,0.00011144578456878662,0.0004391544498503208
1773790480291599400,0.736599365234375,0.0003346914309076965,0.0005413356702774763,0.0005436106584966183
1773790480311562200,0.756562255859375,0.0004904944798909128,-0.00001565227285027504,-0.00026153214275836945
1773790480331525400,0.776525390625,0.00004285047180019319,0.00007841060869395733,-0.00024739746004343033
1773790480351489300,0.7964892578125,0.0006876455736346543,-0.0013296848628669977,0.0002883817069232464
1773790480371452400,0.816452392578125,0.0008349584531970322,0.0003346600569784641,-0.0003253505565226078
1773790480391415000,0.8364150390625,0.0009482141467742622,-0.00018482538871467113,-0.00009355833753943443
1773790480411378200,0.856378173828125,0.00022341523435898125,0.00041787908412516117,0.0003350549377501011
1773790480431342000,0.876342041015625,-0.0006282313843257725,0.0004682522267103195,-0.0008687898516654968
1773790480451305200,0.89630517578125,0.0004772001411765814,0.00007539964281022549,0.00045773619785904884
1773790480471268000,0.91626806640625,-0.0004242539289407432,0.00010154116898775101,0.0017497274093329906
1773790480491232300,0.936232177734375,-0.0005127210170030594,0.00013467390090227127,-0.00010500708594918251
1773790480511195100,0.956195068359375,-0.0005133035592734814,0.0009879833087325096,0.000053394120186567307
1773790480531158300,0.976158203125,0.0016140298685058951,-0.0001660352572798729,-0.0010255314409732819
1773790480551122200,0.9961220703125,-0.0013930259738117456,0.000626618042588234,0.00011452380567789078
1773790480571085300,1.016085205078125,-0.000048476329538971186,-0.0002738253679126501,0.0006216508336365223
1773790480591048200,1.036048095703125,-0.00016712112119421363,0.00040289340540766716,-0.0008233813568949699
1773790480611012000,1.05601220703125,0.00010081654181703925,-0.0012331991456449032,-0.00023307837545871735
1773790480630975200,1.075975341796875,0.0007765773916617036,0.00151369150262326,0.0004443386569619179
1773790480650938400,1.0959384765625,0.0011236576829105616,0.0011684836354106665,0.000601732637733221
1773790480670902300,1.11590234375,-0.00012003027950413525,0.000675693154335022,-0.00032008858397603035
1773790480690865200,1.135865234375,-0.000901258084923029,0.0007402300834655762,0.0008106566965579987
1773790480710828300,1.155828369140625,-0.00008724030340090394,0.0002858417574316263,0.0007496718317270279
1773790480730792200,1.175792236328125,0.00022703371359966695,0.0012864975724369287,0.0012634960003197193
1773790480750755300,1.19575537109375,-0.00043567168177105486,-0.0006775287911295891,0.00044611329212784767
1773790480770718500,1.215718505859375,0.0004964345716871321,0.000796453095972538,-0.0002684020437300205
1773790480790682400,1.235682373046875,0.00020585634047165513,-0.000035597942769527435,0.0006662853993475437
1773790480810645200,1.255645263671875,0.0012983784545212984,0.0012959791347384453,-0.0014812527224421501
1773790480830608100,1.275608154296875,0.0017991091590374708,-0.0004830337129533291,-0.0007069776766002178
1773790480850572300,1.295572265625,-0.0009567004162818193,0.00017308793030679226,-0.0002795378677546978
1773790480870535200,1.31553515625,-0.00040409230859950185,0.0005358562339097261,0.0005679032765328884
1773790480890498000,1.335498046875,-0.00025932828430086374,-0.0005905632860958576,-0.0003196899779140949
1773790480910462200,1.355462158203125,-0.0006811819621361792,0.0001711435616016388,-0.001024377066642046
1773790480930425000,1.375425048828125,0.000357353244908154,0.000995404552668333,-0.00008608773350715637
1773790480950388200,1.39538818359375,0.0003751720068976283,0.001012916211038828,-0.0006152605637907982
1773790480970352000,1.41535205078125,0.0006858377018943429,0.0003261747770011425,0.00018084188923239708
1773790480990315300,1.435315185546875,0.0008484530844725668,-0.0008272535633295774,0.00009461445733904839
1773790481010278100,1.455278076171875,0.0007709861383773386,0.0010022781789302826,-0.00016041425988078117
1773790481030241300,1.4752412109375,-0.0009417399414815009,0.0003978570457547903,-0.0006499532610177994
1773790481050205200,1.495205078125,0.0005446465220302343,-0.00017864652909338474,0.00036155665293335915
1773790481070168300,1.515168212890625,-0.0007144158007577062,0.0014071877812966704,-0.00009887246415019035
1773790481090131200,1.535131103515625,-0.0014171558432281017,0.0001340676099061966,-0.0004044291563332081
1773790481110095400,1.555095458984375,0.0009994222782552242,0.00019142567180097103,0.0002669128589332104
1773790481130058200,1.575058349609375,0.0010412523988634348,-0.0007029350381344557,0.000498342327773571
1773790481150021400,1.595021484375,-0.00010784761980175972,0.0008630752563476562,-0.0002712360583245754
1773790481169985300,1.6149853515625,-0.0007270994246937335,-0.0005778772756457329,-0.00028333812952041626
1773790481189948400,1.634948486328125,-0.0007405440555885434,0.0009272708557546139,-0.0008423510007560253
1773790481209911300,1.654911376953125,0.001700085587799549,-0.00004810327664017677,-0.00035414937883615494
1773790481229875200,1.674875244140625,-0.0010336211416870356,-0.00015824846923351288,-0.00003232760354876518
1773790481249838000,1.694838134765625,0.00012521598546300083,-0.00009535509161651134,-0.00014052586629986763
1773790481269801200,1.71480126953125,-0.0010291326325386763,-0.000060064252465963364,0.0006267367862164974
1773790481289765000,1.73476513671875,-0.00002771784784272313,0.0002974485978484154,-0.00021635554730892181
1773790481309728300,1.754728271484375,-0.0008870671153999865,0.0002683713100850582,0.00042606471106410027
1773790481329691100,1.774691162109375,-0.0015927167842164636,-0.0006314639467746019,0.0008994005620479584
1773790481349654300,1.794654296875,-0.0003825369058176875,0.000448472099378705,0.00034564221277832985
1773790481369618200,1.8146181640625,0.00013629058958031237,-0.000015635741874575615,0.000006613787263631821
1773790481389581300,1.834581298828125,-0.000426712678745389,0.0012431511422619224,-0.0006832834333181381
1773790481409544200,1.854544189453125,0.0007872143178246915,-0.0005005109123885632,-0.0007045441307127476
1773790481429508000,1.874508056640625,0.0007999177323654294,-0.0006951335817575455,0.0008093565702438354
1773790481449471200,1.89447119140625,0.00012034026440232992,-0.000303223030641675,-0.00023507559671998024
1773790481469434400,1.914434326171875,-0.00018190857372246683,-0.00021523982286453247,0.00026924489066004753
1773790481489398300,1.934398193359375,0.002065599663183093,0.00005968380719423294,0.00004439009353518486
1773790481509361200,1.954361083984375,0.0002279946202179417,-0.00007929140701889992,-0.00002996111288666725
1773790481529324300,1.97432421875,0.0006080452585592866,-0.0006721473764628172,-0.000284719280898571
1773790481549288200,1.9942880859375,0.000010876130545511842,0.0010799589799717069,0.00018271710723638535
1773790481569251300,2.014251220703125,-0.0003569125256035477,-0.0005460057873278856,-0.0001790141686797142
1773790481589214200,2.034214111328125,0.0008773797890171409,-0.000582617474719882,0.00023562880232930183
1773790481611673000,2.056673095703125,-0.0000744786811992526,-0.0004306978080421686,0.0012331628240644932
1773790481631637000,2.076636962890625,0.00035910081351175904,-0.0007156329229474068,0.0005815005861222744
1773790481651600100,2.09660009765625,-0.0011518379906192422,0.001271301181986928,0.0006127557717263699
1773790481671563300,2.116563232421875,0.00035602800198830664,-0.0006436756812036037,-0.000051198992878198624
1773790481691527200,2.136527099609375,0.00017999588453676552,0.0000241696834564209,0.000843806192278862
1773790481711490000,2.156489990234375,0.00016555287584196776,-0.00015438394621014595,0.0008689793758094311
1773790481731453200,2.176453125,-0.0012563851196318865,-0.0008132727816700935,-0.0002398388460278511
1773790481751417000,2.1964169921875,-0.001090771285817027,0.0003151404671370983,-0.00009108567610383034
1773790481771380200,2.216380126953125,0.00018116661522071809,0.0009640746284276247,-0.0016962168738245964
1773790481791343000,2.236343017578125,-0.0005547701730392873,-0.0000664624385535717,-0.0004946794360876083
1773790481811307300,2.256307373046875,-0.0007686084136366844,-0.000577493803575635,-0.0008019451051950455
1773790481831270100,2.276270263671875,-0.0005480708787217736,-0.0007713972590863705,-0.00011255545541644096
1773790481851233300,2.2962333984375,-0.0019252371275797486,-0.0001887436956167221,0.0008475822396576405
1773790481871196000,2.31619580078125,0.0002250474935863167,0.000174997141584754,0.0002446174621582031
1773790481891160300,2.336160400390625,0.0002547161129768938,-0.0003151451237499714,0.00015454087406396866
1773790481911123000,2.356123046875,-0.001011401298455894,-0.0005352743901312351,-0.0007680547423660755
1773790481931086000,2.376086181640625,-0.0008706782246008515,-0.0006962735205888748,-0.0001503792591392994
1773790481951050000,2.396050048828125,-0.00033134620753116906,0.000422521959990263,-0.0009837714023888111
1773790481971013000,2.41601318359375,-0.0003640010254457593,0.0014672582037746906,-0.0007370295934379101
1773790481990976000,2.43597607421875,0.0006523480988107622,-0.0006993184797465801,-0.0008682049810886383
1773790482010940200,2.455940185546875,0.00011556260869838297,0.0005730798002332449,0.0013324134051799774
1773790482030902300,2.47590234375,0.0003798808029387146,-0.0005388816352933645,0.00034559424966573715
1773790482050865200,2.495865234375,-0.0005554447416216135,0.0008219701703637838,-0.0008949493058025837
1773790482070829000,2.5158291015625,0.0006865098839625716,-0.00012681283988058567,-0.0005953428335487843
1773790482090792200,2.535792236328125,0.0014589985366910696,0.00016756542026996613,-0.0006617158651351929
1773790482110755300,2.55575537109375,-0.001293023582547903,0.0004646212328225374,0.00130738178268075
1773790482130718200,2.57571826171875,0.00037120573688298464,0.00021344074048101902,0.0006284192204475403
1773790482150682000,2.59568212890625,-0.00003277580253779888,-0.0005659228190779686,0.0008713589049875736
1773790482170645200,2.615645263671875,0.00044828717363998294,-0.0002700011245906353,0.0005952147766947746
1773790482190608400,2.6356083984375,-0.0003161310451105237,-0.00026317033916711807,0.000314272940158844
1773790482210572300,2.655572265625,-0.0006889736978337169,-0.0005242347251623869,-0.0008005592972040176
1773790482230535000,2.675534912109375,-0.0006114249117672443,-0.0015085127670317888,0.00011313240975141525
1773790482250498000,2.695498046875,0.0005494197830557823,-0.00007668021135032177,-0.0001670527271926403
1773790482270462000,2.7154619140625,0.0008134779054671526,-0.0007248024921864271,0.00008084811270236969
1773790482290425000,2.735425048828125,-0.0003363235737197101,-0.0005240850150585175,-0.0001353668048977852
1773790482310388000,2.755387939453125,-0.0009425596799701452,0.0006704307161271572,0.00274492590688169
1773790482330351000,2.77535107421875,0.00027496227994561195,0.000012347707524895668,-0.00028892187401652336
1773790482350315000,2.79531494140625,-0.0003379469853825867,-0.000019055558368563652,0.0008050212636590004
1773790482370278100,2.815278076171875,0.000968272564932704,0.0007909447886049747,0.0004318542778491974
1773790482390241000,2.835240966796875,-0.00010634312639012933,0.00014099804684519768,-0.00040179677307605743
1773790482410205200,2.855205078125,0.00039606605423614383,-0.000998833915218711,0.00003137020394206047
1773790482430168000,2.87516796875,0.00004571754834614694,0.0003356384113430977,0.0005806800909340382
1773790482450131200,2.895131103515625,0.0006996770389378071,-0.00020125415176153183,0.0005116774700582027
1773790482470095000,2.91509521484375,0.0009596910676918924,-0.0012999880127608776,0.000030024442821741104
1773790482490058200,2.935058349609375,0.0006652945303358138,0.00022466271184384823,-0.00016094045713543892
1773790482510021000,2.955021240234375,-0.00012832082575187087,-0.00011051679030060768,0.0006822273135185242
1773790482529984300,2.974984375,0.00010199120151810348,0.0005506451707333326,0.0005988082848489285
1773790482549948200,2.9949482421875,0.0008606332121416926,0.0003504655323922634,-0.000143381766974926
1773790482569911300,3.014911376953125,0.0009409051854163408,-0.0008839527145028114,-0.0014767847023904324
1773790482589874000,3.0348740234375,0.0003981456102337688,-0.00030207610689103603,0.0001581595279276371
1773790482609838300,3.05483837890625,0.0003924958873540163,0.0006697822827845812,0.00014544185250997543
1773790482629801200,3.07480126953125,0.0004613224300555885,-0.0004473521839827299,0.0011640195734798908
1773790482649764400,3.094764404296875,-0.0005212854011915624,-0.00043068197555840015,0.0010288674384355545
1773790482669727200,3.114727294921875,0.00005564963794313371,0.0005182141903787851,0.000021599698811769485
1773790482689691400,3.13469140625,0.0005479783867485821,-0.0004424604121595621,0.0005156528204679489
1773790482709654300,3.154654296875,0.0001993200567085296,-0.00014866748824715614,0.0011728606186807156
1773790482729617400,3.174617431640625,0.00011810680734924972,-0.00028509506955742836,-0.000251072458922863
1773790482749581300,3.194581298828125,-0.00004101122613064945,0.0016456492012366652,-0.0006282944232225418
1773790482769544400,3.21454443359375,-0.00033238987089134753,0.000014108838513493538,-0.00011574244126677513
1773790482789507300,3.23450732421875,-0.0005090573104098439,-0.00045051868073642254,-0.0017536585219204426
1773790482809470500,3.254470458984375,0.0005718350876122713,0.0010552164167165756,0.00021580513566732407
1773790482829434400,3.274434326171875,-0.0001890957064460963,0.0001495080068707466,-0.0012746076099574566
1773790482849397500,3.2943974609375,0.0010863435454666615,-0.0007829321548342705,-0.00037204520776867867
1773790482869360400,3.3143603515625,0.00004103616811335087,0.00034955795854330063,-0.001226114109158516
1773790482889324500,3.334324462890625,-0.00015890991198830307,0.0008087728638201952,-0.0007912921719253063
1773790482909287400,3.354287353515625,-0.000839865067973733,0.00005025183781981468,0.0010341284796595573
1773790482929250300,3.374250244140625,-0.00008983773295767605,0.001207180437631905,0.0015269541181623936
1773790482949213200,3.394213134765625,-0.0007425977382808924,0.00015875883400440216,-0.0006445790641009808
1773790482969177300,3.41417724609375,-0.0001442018838133663,0.001310060964897275,-0.00018433108925819397
1773790482989140200,3.43414013671875,0.0001525320840300992,-0.001087268115952611,-0.001180790364742279
1773790483009103400,3.454103271484375,0.0004893569275736809,0.0003422365989536047,0.0006423746235668659
1773790483029067300,3.4740673828125,-0.0006806544261053205,0.0010109019931405783,-0.0011298558674752712
1773790483049030400,3.494030517578125,-0.0005717879394069314,0.000026461435481905937,-0.0008795405738055706
1773790483068993300,3.5139931640625,-0.0008749915868975222,0.0005260161124169827,-0.0008397991769015789
1773790483088957200,3.533957275390625,0.0012009009951725602,0.0009316112846136093,0.0005055731162428856
1773790483108920300,3.55392041015625,0.00012822503049392253,-0.0009228980634361506,0.001016493421047926
1773790483128883500,3.573883544921875,-0.0005465771537274122,-0.0013192298356443644,0.0004883916117250919
1773790483148846300,3.593846435546875,-0.0007860037731006742,-0.0013901230413466692,-0.0005506477318704128
1773790483168810200,3.613810302734375,0.00009690485603641719,-0.0009360313415527344,-0.0002132076770067215
1773790483188773400,3.6337734375,-0.0014470883179455996,0.0004891108255833387,-0.0013821185566484928
1773790483208736500,3.653736572265625,0.000056120072258636355,0.0005098425317555666,-0.000056867022067308426
1773790483228700400,3.673700439453125,-0.0003968066012021154,-0.0012373856734484434,-0.00012659188359975815
1773790483248663600,3.69366357421875,-0.00035404597292654216,-0.000008445465937256813,0.00008053146302700043
1773790483268626400,3.71362646484375,-0.000607452355325222,-0.0007690505590289831,-0.001239757053554058
1773790483288589300,3.73358935546875,-0.000995988491922617,0.00006078719161450863,0.0003280523233115673
1773790483308553500,3.753553466796875,0.0008832099847495556,-0.00034673651680350304,-0.00009782472625374794
1773790483328516400,3.773516357421875,0.0003588812833186239,-0.0003958875313401222,0.0014106635935604572
1773790483348479200,3.793479248046875,-0.00019234040519222617,0.0014206075575202703,-0.00006810575723648071
1773790483368443100,3.813443115234375,-0.0011693720007315278,0.00014743651263415813,-0.000816631130874157
1773790483388406300,3.83340625,0.00042423742706887424,-0.0004745412152260542,-0.0010070158168673515
1773790483408369400,3.853369384765625,-0.0004831374390050769,0.00023999251425266266,-0.00001125037670135498
1773790483428332300,3.873332275390625,0.00043672608444467187,-0.0011430326849222183,-0.0007431516423821449
1773790483448296200,3.893296142578125,-0.00120067922398448,0.00027934671379625797,-0.00020360713824629784
1773790483468259300,3.91325927734375,0.000045236258301883936,0.0002313600853085518,-0.0015392238274216652
1773790483488222500,3.933222412109375,0.0009809996699914336,-0.0008081139530986547,0.00015737628564238548
1773790483508185300,3.953185302734375,-0.00009306191350333393,0.0007085723336786032,-0.0003158850595355034
1773790483528149200,3.973149169921875,0.00005814092583023012,0.0005036545917391777,-0.0007365541532635689
1773790483548112400,3.9931123046875,-0.001917974092066288,0.0002277875319123268,-0.0009267204441130161
1773790483568075500,4.013075439453125,-0.0009347596205770969,0.00012344634160399437,-0.0004211212508380413
1773790483588039400,4.033039306640625,-0.0009375474764965475,0.0010936441831290722,0.00003894418478012085
1773790483608002300,4.053002197265625,0.00000793643994256854,0.0008246232755482197,0.0017449459992349148
1773790483627965400,4.07296533203125,-0.0004287734627723694,0.00034474139101803303,0.00048576900735497475
1773790483647928000,4.092927978515625,0.0003374420921318233,0.0002189362421631813,-0.000018313061445951462
1773790483667892000,4.11289208984375,0.002028197515755892,-0.00001806137152016163,-0.000039081089198589325
1773790483687855000,4.132855224609375,0.0009058205760084093,-0.00043262774124741554,-0.0001898691989481449
1773790483707817700,4.152817626953125,-0.00014463858678936958,0.00018784892745316029,-0.00007014768198132515
1773790483727782000,4.172781982421875,0.0017197311390191317,-0.0010300211142748594,0.0011503640562295914
1773790483747744800,4.192744873046875,0.0010582574177533388,-0.0000486674252897501,0.0009092832915484905
1773790483767708000,4.2127080078125,0.00003609072882682085,-0.0004718787968158722,-0.00010832725092768669
1773790483787670800,4.2326708984375,0.0002430591848678887,-0.0007357080467045307,-0.0002670274116098881
1773790483807635000,4.252635009765625,-0.0005519600817933679,0.0004998452495783567,-0.0006161178462207317
1773790483827597800,4.272597900390625,0.00020703405607491732,0.00008753989823162556,-0.001590235624462366
1773790483847561000,4.29256103515625,0.0004044933011755347,-0.0005058103706687689,-0.00043016066774725914
1773790483867523800,4.31252392578125,0.00017542796558700502,0.000023298896849155426,-0.0011845524422824383
1773790483887488000,4.332488037109375,0.00011431050370447338,-0.0012010862119495869,-0.0007061734795570374
1773790483907451000,4.352450927734375,-0.0008937660604715347,0.00006224354729056358,-0.0004542022943496704
1773790483927414000,4.3724140625,0.0007968051359057426,-0.0005940934643149376,-0.0003970288671553135
1773790483947378000,4.3923779296875,0.0008095011580735445,-0.0007634535431861877,-0.0002247965894639492
1773790483967341000,4.412341064453125,-0.0001380102476105094,0.0000015972182154655457,-0.0003391895443201065
1773790483987304000,4.432303955078125,-0.0007226257002912462,0.000695450697094202,-0.0003702240064740181
1773790484007267000,4.45226708984375,-0.0003199803177267313,-0.0004059781786054373,0.001316945068538189
1773790484027231000,4.47223095703125,0.0010690954513847828,0.00009042792953550816,-0.0004801880568265915
1773790484047194000,4.492194091796875,-0.00008490125765092671,0.0005193569231778383,0.0012554125860333443
1773790484067156700,4.51215673828125,-0.0004022745415568352,0.0006481390446424484,0.0006096153520047665
1773790484087121000,4.532120849609375,0.0006099814199842513,-0.000033039599657058716,0.0004462762735784054
1773790484107083800,4.552083740234375,-0.0008468051673844457,0.0004432704299688339,0.0001167096197605133
1773790484127047000,4.572046875,0.00029383579385466874,-0.000519132474437356,-0.000912519171833992
1773790484147009800,4.592009765625,0.00040472077671438456,-0.0009707279969006777,0.0005129668861627579
1773790484166974000,4.611973876953125,-0.0007028580876067281,0.0000020007137209177017,-0.00019359029829502106
1773790484186936800,4.631936767578125,-0.0013325137551873922,-0.0015298081561923027,-0.000053723808377981186
1773790484206900000,4.65189990234375,0.0004959778743796051,0.00018636509776115417,0.0006151497364044189
1773790484226862800,4.67186279296875,-0.0004628045135177672,0.0005894612986594439,-0.00020659947767853737
1773790484246827000,4.691826904296875,-0.000307834823615849,0.0007611594628542662,-0.00033492594957351685
1773790484266790000,4.711789794921875,0.0005245627253316343,0.0014821378281340003,-0.0002336837351322174
1773790484286753000,4.7317529296875,0.000014239340089261532,-0.00021148170344531536,0.0013143033720552921
1773790484306717000,4.751717041015625,0.0018343914998695254,0.00023682136088609695,0.000924963504076004
1773790484326680000,4.77168017578125,-0.0009008207125589252,-0.00021377112716436386,0.0015067537315189838
1773790484346643000,4.791642822265625,-0.0004222719289828092,0.0009086644276976585,-0.0006380751729011536
1773790484366606000,4.811606201171875,0.0016939049819484353,0.0013020412297919393,-0.00046604080125689507
1773790484386570000,4.831570068359375,-0.0003290169988758862,0.0008408369030803442,0.0013117208145558834
1773790484406533000,4.851533203125,-0.000558455940335989,-0.0008547899778932333,0.00031299423426389694
1773790484426495700,4.871495849609375,0.0010901939822360873,0.0006391550414264202,0.00010793935507535934
1773790484446460000,4.8914599609375,0.000006488757207989693,-0.0008471098262816668,-0.000050652772188186646
1773790484466422800,4.9114228515625,0.00024907683837227523,0.00007861992344260216,0.0006729364395141602
1773790484486386000,4.931385986328125,-0.0012789402389898896,-0.0003170871641486883,0.00017168372869491577
1773790484506348800,4.951348876953125,0.00022697103850077838,0.00029248790815472603,0.0005489066243171692
1773790484526312700,4.971312744140625,-0.0011046023573726416,-0.001005262602120638,0.00016825227066874504
1773790484546275800,4.99127587890625,0.00008736722520552576,0.00037504592910408974,-0.0009739454835653305
1773790484566239000,5.011239013671875,0.0002553093363530934,0.00105685752350837,0.0002565416507422924
1773790484586201900,5.031201904296875,-0.0012544747442007065,0.0002708781976252794,0.0006272299215197563
1773790484606165800,5.051165771484375,0.0010734371608123183,0.0005925362929701805,0.0013122064992785454
1773790484626129000,5.07112890625,-0.0006007509073242545,-0.0004749908111989498,-0.00011121667921543121
1773790484646092000,5.091092041015625,-0.0005476411897689104,-0.0005290498957037926,-0.00014664744958281517
1773790484666056000,5.111055908203125,0.0005067537422291934,0.0004143363330513239,-0.0021015284582972527
1773790484686018800,5.131018798828125,0.00010034895967692137,0.0008033730555325747,-0.00006331177428364754
1773790484705982000,5.15098193359375,-0.0011727371020242572,-0.0006533102132380009,-0.00036322372034192085
1773790484725945000,5.170945068359375,-0.0009817060781642795,0.00007046456448733807,-0.00031475815922021866
1773790484745909000,5.190908935546875,0.0005493927747011185,-0.0009632699657231569,0.0016430397517979145
1773790484765872000,5.2108720703125,-0.0006154390284791589,-0.0005638084840029478,-0.00030091870576143265
1773790484785835000,5.2308349609375,-0.0018171615665778518,0.00015847361646592617,-0.0000937427394092083
1773790484805798100,5.250798095703125,-0.0015867524780333042,0.0003582574427127838,-0.000938731711357832
1773790484825762000,5.270761962890625,0.0007352519314736128,-0.0017012308817356825,-0.00010755239054560661
1773790484845725200,5.29072509765625,0.0010224804282188416,0.0006274671759456396,0.0005686841905117035
1773790484865688000,5.31068798828125,0.0010765288025140762,-0.0000769223552197218,-0.00044783391058444977
1773790484885652000,5.33065185546875,0.0009620237397029996,0.00013044290244579315,0.00033718813210725784
1773790484905615000,5.350614990234375,0.000770768616348505,-0.00009667081758379936,-0.0007899925112724304
1773790484925578000,5.370577880859375,0.000685201259329915,0.001162842265330255,0.00041003990918397903
1773790484945540900,5.390540771484375,-0.0001937439083121717,0.00006584287621080875,-0.000684062484651804
1773790484965504800,5.4105048828125,-0.0005511413910426199,-0.0016639127861708403,-0.0007315119728446007
1773790484985468000,5.430468017578125,-0.0007141473470255733,0.0005029407329857349,-0.00003955233842134476
1773790485005431000,5.45043115234375,-0.0006937843281775713,0.000018256250768899918,0.0003426368348300457
1773790485025394000,5.470393798828125,0.00045239151222631335,-0.0008067423477768898,-0.0008520008996129036
1773790485045357800,5.49035791015625,0.000547880947124213,0.0004106902051717043,0.00030395621433854103
1773790485065321000,5.510321044921875,0.00029982306296005845,-0.00019615399651229382,0.0005792630836367607
1773790485085284000,5.5302841796875,0.0013318359851837158,0.0003053639084100723,0.0006754845380783081
1773790485105248000,5.550248046875,-0.0005722712376154959,-0.0016417447477579117,0.0004525710828602314
1773790485125211000,5.5702109375,0.0020457133650779724,-0.00004552071914076805,0.00011440319940447807
1773790485145174000,5.590174072265625,0.0006455229595303535,0.00016253767535090446,0.00020249607041478157
1773790485165137200,5.61013720703125,0.0007611883338540792,-0.0005874428898096085,0.000802318099886179
1773790485185101000,5.63010107421875,0.0006822426221333444,0.00028885435312986374,0.00038185156881809235
1773790485205064000,5.65006396484375,0.00046804366866126657,-0.0002928576432168484,0.00043328339233994484
1773790485225027000,5.670027099609375,-0.000772570725530386,-0.0005790195427834988,-0.0011695311404764652
1773790485244990000,5.689989990234375,-0.0004533581668511033,-0.0001715386752039194,0.00027854694053530693
1773790485264954000,5.7099541015625,0.0005271438858471811,-0.0012844570446759462,-0.00003902008756995201
1773790485284917000,5.7299169921875,-0.0005148407653905451,-0.0004483333323150873,0.000004686880856752396
1773790485304879900,5.7498798828125,-0.0009689987637102604,0.0005245320498943329,0.00117866275832057
1773790485324843000,5.769843017578125,-0.0003539740573614836,-0.0009442814625799656,0.0006278320215642452
1773790485344807000,5.789806884765625,-0.0002476978988852352,0.000478856498375535,0.002147921361029148
1773790485364770000,5.80977001953125,0.0004306466435082257,-0.0010824594646692276,0.0013724630698561668
1773790485384733000,5.82973291015625,0.0003430488577578217,0.0018319209339097142,0.0006483877077698708
1773790485404696800,5.84969677734375,0.00016038492321968079,-0.0011704580392688513,-0.0004948759451508522
1773790485424660000,5.869659912109375,-0.00010085932444781065,0.0010083382949233055,-0.0013291514478623867
1773790485444623000,5.889623046875,0.0003995129663962871,-0.00034781801514327526,0.00039626099169254303
1773790485464586000,5.9095859375,-0.0016796286217868328,-0.0008166518528014421,0.0012538810260593891
1773790485484550000,5.9295498046875,0.0006388870533555746,-0.001017322763800621,0.0005369954742491245
1773790485504513000,5.949512939453125,-0.00016207469161599874,-0.0001549171283841133,-0.0017201108857989311
1773790485524476200,5.96947607421875,-0.00034275048528797925,0.0006734307389706373,0.00022342102602124214
1773790485544439000,5.98943896484375,-0.00010222566197626293,-0.00008638482540845871,0.0009689312428236008
1773790485564403000,6.00940283203125,-0.0013323822058737278,-0.00023287045769393444,0.0018969865050166845
1773790485584366000,6.029365966796875,-0.0003485226188786328,0.00040542520582675934,-0.0007298644632101059
1773790485604329000,6.049328857421875,0.00008540158160030842,0.00011402647942304611,-0.00019307713955640793
1773790485624291800,6.069291748046875,-0.00042681838385760784,0.000849010655656457,0.0008155782707035542
1773790485644256300,6.08925634765625,-0.00014601257862523198,-0.0012763186823576689,-0.0003096400760114193
1773790485664219400,6.109219482421875,0.0004630826006177813,0.00005012820474803448,0.000033597927540540695
1773790485684182300,6.129182373046875,0.0008849521400406957,0.0006180261261761189,0.0006354460492730141
1773790485704145200,6.149145263671875,0.00048167200293391943,0.0003440454602241516,-0.0010043680667877197
1773790485724109000,6.169109130859375,0.0007104315445758402,-0.000417937058955431,-0.001030470710247755
1773790485744072200,6.189072265625,-0.0013620241079479456,-0.0009010224603116512,-0.0018529295921325684
1773790485764035300,6.209035400390625,0.000656146788969636,-0.0004987702704966068,0.00014227675274014473
1773790485783999200,6.228999267578125,0.0011725805234164,0.0009285027626901865,-0.00005482323467731476
1773790485803962000,6.248962158203125,-0.00018363638082519174,-0.0004708557389676571,0.00022895121946930885
1773790485823925200,6.26892529296875,0.0005789566785097122,-0.0005554361268877983,-0.0004146532155573368
1773790485843888400,6.288888427734375,-0.00010623942944221199,0.0003436373081058264,-0.00009862799197435379
1773790485863852300,6.308852294921875,-0.00048117846017703414,-0.00006809132173657417,0.000039769336581230164
1773790485883815200,6.328815185546875,0.00024227783433161676,-0.0004136059433221817,-0.0013053915463387966
1773790485903778300,6.3487783203125,0.00004926876863464713,0.0003333080094307661,-0.0012668226845562458
1773790485923741400,6.368741455078125,0.0008981054998002946,-0.00039810524322092533,-0.00007675215601921082
1773790485943705300,6.388705322265625,-0.000694102724082768,0.000796913867816329,-0.00017344346269965172
1773790485963668200,6.408668212890625,-0.0005146971670910716,-0.00004153093323111534,-0.0010474231094121933
1773790485983631400,6.42863134765625,0.00027001695707440376,0.0004066366236656904,-0.0007540867663919926
1773790486003594200,6.44859423828125,-0.00034281465923413634,-0.00006620562635362148,-0.0011210031807422638
1773790486023558400,6.468558349609375,-0.0009779829997569323,0.0001992632169276476,0.0004947022534906864
1773790486043521300,6.488521240234375,0.00007250977796502411,-0.0006247390992939472,0.0007927250117063522
1773790486063484200,6.508484130859375,0.0007419062894769013,0.0011935561196878552,0.0007323580794036388
1773790486083447300,6.528447265625,-0.0009668297716416419,0.001473500276915729,-0.0006150295957922935
1773790486103411200,6.5484111328125,0.0007159702945500612,0.0006068216171115637,-0.0007827742956578732
1773790486123374300,6.568374267578125,0.0002631513634696603,0.0005603514146059752,0.0001908787526190281
1773790486143337200,6.588337158203125,-0.00006648601265624166,-0.0007547114510089159,-0.0011965655721724033
1773790486163300400,6.60830029296875,0.0005332109867595136,0.00044531351886689663,-0.00007998105138540268
1773790486183264300,6.62826416015625,0.001501783262938261,0.000024721957743167877,-0.0016732029616832733
1773790486203227400,6.648227294921875,0.0004200025286991149,0.0005453885532915592,0.0005556712858378887
1773790486223190300,6.668190185546875,-0.0009136906592175364,-0.00068432348780334,0.0008403095416724682
1773790486243153400,6.6881533203125,0.0007506750407628715,0.0001952743623405695,-0.0003683888353407383
1773790486263117300,6.708117431640625,-0.0010633217170834541,0.0011803798843175173,0.0002267695963382721
1773790486283080400,6.72808056640625,0.0002845191047526896,0.0012250301660969853,0.00005857134237885475
1773790486303043300,6.748043212890625,-0.00023200397845357656,-0.0005815296899527311,0.002382467035204172
1773790486323007200,6.76800732421875,-0.0009230149444192648,0.0001360536552965641,0.0007002893835306168
1773790486342970400,6.787970458984375,-0.0003246837295591831,0.0007054940797388554,-0.0006570667028427124
1773790486362933200,6.807933349609375,0.0016203057020902634,0.00025461125187575817,0.0004954240284860134
1773790486382896000,6.827896240234375,-0.00007424005889333785,-0.0006953172851353884,0.0003011398948729038
1773790486402860300,6.8478603515625,0.00036722104414366186,-0.0004974107723683119,0.0002143271267414093
1773790486422823200,6.8678232421875,-0.00021041848231106997,-0.00036614155396819115,-0.001191931776702404
1773790486442786300,6.887786376953125,0.0006505677010864019,0.0010223579593002796,-0.0007285727187991142
1773790486462749200,6.907749267578125,0.0006302639376372099,0.00017063692212104797,0.0008531669154763222
1773790486482713300,6.92771337890625,-0.0004090912116225809,-0.000055562471970915794,0.0012997081503272057
1773790486502676200,6.94767626953125,-0.0008001448004506528,0.000724415760487318,-0.0009228228591382504
1773790486522639400,6.967639404296875,0.0010075444588437676,-0.0008780739735811949,-0.0010406961664557457
1773790486542602200,6.987602294921875,-0.0010085687972605228,0.0006076081190258265,-0.00006958935409784317
1773790486562566400,7.00756640625,0.0004356291319709271,0.00008560158312320709,-0.0001769508235156536
1773790486582529300,7.027529296875,-0.001033890526741743,0.0009036567062139511,0.00047297636047005653
1773790486602492400,7.047492431640625,-0.0001102400419767946,0.0004740913864225149,0.001871359534561634
1773790486622455300,7.067455322265625,0.0002860981330741197,0.0005292543210089207,-0.000371735543012619
1773790486642421800,7.087421875,0.0001959219662239775,0.0014742224011570215,0.0006744223646819592
1773790486662384600,7.107384521484375,-0.0001236945972777903,-0.0003529114183038473,-0.0013809297233819962
1773790486682347800,7.12734765625,0.00036923892912454903,-0.0006368241738528013,0.0007434440776705742
1773790486702311000,7.147310791015625,-0.0010057124309241772,0.000325328903272748,-0.0002091764472424984
1773790486722274800,7.16727490234375,0.0003212103038094938,0.0004853084683418274,0.0012780777178704739
1773790486742237700,7.18723779296875,0.0008962037973105907,0.00020840135402977467,-0.000621359795331955
1773790486762200800,7.207200927734375,-0.00021711751469410956,0.00018524541519582272,0.001000328455120325
1773790486782164000,7.2271640625,0.0005379511276260018,0.0005244249477982521,-0.00009413249790668488
1773790486802128000,7.2471279296875,0.0016200763639062643,0.00015421980060636997,0.0016144709661602974
1773790486822090800,7.2670908203125,-0.00044626969611272216,-0.0010134628973901272,0.0004222327843308449
1773790486842054000,7.287053955078125,0.0004674522206187248,-0.0003690873272716999,-0.001344598364084959
1773790486862016800,7.307016845703125,0.00002243428025394678,-0.0007839773315936327,0.0004771011881530285
1773790486881980700,7.326980712890625,0.0006383291911333799,0.0005425561685115099,-0.0002444474957883358
1773790486901943800,7.34694384765625,0.0001703731541056186,0.00021916581317782402,0.0007242178544402122
1773790486921906700,7.36690673828125,-0.0009125666110776365,0.00021382654085755348,-0.00004377588629722595
1773790486941869800,7.386869873046875,-0.00002690640394575894,0.00008679646998643875,0.0007455712184309959
1773790486961833700,7.406833740234375,-0.0003082298790104687,-0.0004096485208719969,-0.001690007746219635
1773790486981796900,7.426796875,0.0007719199638813734,-0.0005311567801982164,-0.0002836831845343113
1773790487001759700,7.446759765625,0.00005972827784717083,-0.0007904309313744307,-0.00070902518928051
1773790487021723000,7.466722900390625,-0.0009337124065496027,-0.00007816869765520096,-0.000027674250304698944
1773790487041686800,7.486686767578125,-0.0012117935111746192,-0.0002868063747882843,0.0010610083118081093
1773790487061650000,7.50664990234375,0.0004061277722939849,-0.0003424035385251045,-0.000030512455850839615
1773790487081612800,7.52661279296875,-0.0010347971692681313,0.0003034083638340235,-0.00036845123395323753
1773790487101576700,7.54657666015625,-0.0007795850979164243,-0.00006962614133954048,-0.0006358390673995018
1773790487121539800,7.566539794921875,-0.000737431924790144,-0.0007337091956287622,0.0004883469082415104
1773790487141503000,7.5865029296875,0.00009491731179878116,0.0005589995998889208,-0.0008834744803607464
1773790487161465900,7.6064658203125,0.00047211875789798796,0.0008174153044819832,0.0016392646357417107
1773790487181428700,7.6264287109375,-0.0007582020480185747,-0.0003456471022218466,-0.001338061410933733
1773790487201393000,7.646392822265625,-0.0012261016527190804,0.00002329680137336254,-0.0008479682728648186
1773790487221355800,7.666355712890625,0.0003882920427713543,0.0010237707756459713,0.00032261619344353676
1773790487241318700,7.686318603515625,0.0007674741791561246,-0.00007325294427573681,0.0005367165431380272
1773790487261281800,7.70628173828125,-0.0001628805184736848,0.00014686142094433308,-0.00009472016245126724
1773790487281245700,7.72624560546875,0.00006529100937768817,-0.0007222581189125776,0.0002178647555410862
1773790487301208800,7.746208740234375,0.00014605042815674096,-0.000648347195237875,0.0012777014635503292
1773790487321171700,7.766171630859375,-0.000045130494982004166,0.0002463115379214287,-0.0004106820560991764
1773790487341134800,7.786134765625,0.0010975721525028348,0.0007960784714668989,0.0007084724493324757
1773790487361098800,7.8060986328125,-0.0009672740125097334,-0.000028728274628520012,-0.0003790101036429405
1773790487381062000,7.826061767578125,-0.00010871572885662317,-0.00048351846635341644,0.0008828556165099144
1773790487401024800,7.846024658203125,-0.0010056756436824799,-0.0012302880641072989,-0.0004804842174053192
1773790487420988000,7.86598779296875,0.00021190779807511717,0.0002740267664194107,0.00047122081741690636
1773790487440951800,7.885951904296875,-0.0002802485541906208,-0.0003655266482383013,0.0006431257352232933
1773790487460915000,7.9059150390625,0.0003383099101483822,-0.0009875388350337744,0.0004120669327676296
1773790487480877800,7.9258779296875,-0.000206278869882226,0.002205311320722103,0.0005495911464095116
1773790487500840700,7.9458408203125,-0.0008761420613154769,0.00031558237969875336,-0.0007400684989988804
1773790487520804900,7.965804931640625,0.00036121669108979404,0.00011354195885360241,0.00039658742025494576
1773790487540767700,7.985767822265625,-0.0002545209426898509,0.0007014877628535032,0.0005529397167265415
1773790487560730600,8.005730712890625,0.000024544046027585864,-0.0009411207865923643,0.0003832448273897171
1773790487580693800,8.02569384765625,-0.0010135676711797714,-0.0012350310571491718,0.0007911426946520805
1773790487600657700,8.04565771484375,-0.001397862215526402,0.0010279505513608456,0.000800024252384901
1773790487620620800,8.065620849609376,-0.000980139127932489,0.0002837665379047394,0.00017835665494203568
1773790487640580900,8.085580810546874,0.0004112491733394563,0.0011186249321326613,-0.000920906662940979
1773790487660544800,8.105544677734375,-0.0003647221892606467,0.001097127329558134,-0.0003361157141625881
1773790487680508000,8.1255078125,-0.0002633925760164857,-0.0007652444764971733,0.0004403200000524521
1773790487700471000,8.145470947265625,0.0005905345315113664,0.0003774678334593773,0.00009972695261240005
1773790487720434000,8.165433837890625,0.0004067402915097773,0.0002995177637785673,-0.00024396134540438652
1773790487740397800,8.185397705078126,0.0001958801003638655,-0.00007554725743830204,0.0008696168661117554
1773790487760361000,8.20536083984375,-0.00231312308460474,-0.00044067203998565674,0.0001332680694758892
1773790487780324000,8.225323974609376,0.00001219648402184248,-0.000008893897756934166,0.00009713461622595787
1773790487800287000,8.245286865234375,-0.00034314929507672787,-0.0008489738684147596,-0.000510568730533123
1773790487820249900,8.265249755859376,-0.0004987397696822882,-0.0006179488264024258,0.0006720330566167831
1773790487840214000,8.285214111328125,-0.0019520616624504328,-0.001942801522091031,-0.0006306185387074947
1773790487860177000,8.305177001953124,0.000043008156353607774,0.000642798375338316,0.0004681847058236599
1773790487880139800,8.325139892578125,0.0009310223395004869,-0.0016346019692718983,0.000599429477006197
1773790487900103000,8.34510302734375,0.000708555628079921,0.00017245346680283546,-0.0008371896110475063
1773790487920066800,8.36506689453125,-0.000568332732655108,0.00044958083890378475,0.00019983062520623207
1773790487940030000,8.385030029296875,0.0005741638015024364,0.0004314705729484558,-0.0022462201304733753
1773790487959992800,8.404992919921876,-0.0004386908549349755,-0.0002646262291818857,-0.0010650306940078735
1773790487979956000,8.4249560546875,-0.0007389406091533601,-0.000841513043269515,-0.0015240372158586979
1773790487999919900,8.444919921875,-0.001085969852283597,0.00028214440681040287,-0.00048707611858844757
1773790488019883000,8.464883056640625,0.00009106667130254209,0.0004948822315782309,0.0009226282127201557
1773790488039846000,8.484845947265624,0.0010571922175586224,0.00037597096525132656,0.0004051993601024151
1773790488059809000,8.50480908203125,-0.00048063730355352163,-0.0002640408929437399,-0.00008702371269464493
1773790488079773000,8.52477294921875,0.0000631406728643924,-0.000336973462253809,-0.0007499996572732925
1773790488099736000,8.544736083984375,0.00113908969797194,-0.000029884744435548782,-0.0008358927443623543
1773790488119699000,8.564698974609374,-0.0009928278159350157,0.000594855984672904,-0.0003384985029697418
1773790488139661800,8.584661865234375,0.0006610917043872178,-0.0019202365074306726,-0.0008399039506912231
1773790488159626000,8.6046259765625,0.0008252912666648626,0.0006998288445174694,-0.0005247029475867748
1773790488179588900,8.6245888671875,-0.0004989659646525979,-0.0007446978706866503,0.0006571188569068909
1773790488199551700,8.6445517578125,0.0006727072177454829,0.0008125584572553635,-0.00028477655723690987
1773790488219516000,8.664515869140626,-0.0008361611398868263,0.0007360989693552256,-0.00005347141996026039
1773790488239478800,8.684478759765625,0.0005062417476437986,0.0005518102552741766,-0.0009621302597224712
1773790488259442000,8.70444189453125,0.0008448255248367786,-0.0008743037469685078,-0.00026295939460396767
1773790488279404800,8.72440478515625,0.0006147456588223577,-0.0001667554024606943,-0.0003102892078459263
1773790488299368000,8.744367919921874,-0.000030453025829046965,-0.0007664130534976721,-0.000135709997266531
1773790488319331800,8.764331787109375,0.0005574296810664237,-0.0003679562360048294,-0.0016378983855247498
1773790488339295000,8.784294921875,-0.00020945962751284242,-0.00022639543749392033,0.00012526940554380417
1773790488359257900,8.8042578125,0.0008780271746218204,0.0005489131435751915,0.0007155369967222214
1773790488379221000,8.824220947265625,0.0007145052077248693,-0.0005304361693561077,-0.0018167155794799328
1773790488399185000,8.844184814453126,0.00006383433355949819,-0.0006001763977110386,-0.0011815479956567287
1773790488419148000,8.86414794921875,0.0004099536454305053,-0.000950265908613801,-0.0014254148118197918
1773790488439111000,8.88411083984375,-0.00025506637757644057,0.0004871117416769266,0.001825044397264719
1773790488459073800,8.90407373046875,0.00014467729488387704,-0.0002109454944729805,0.0009932653047144413
1773790488479038000,8.924037841796874,-0.0007236042292788625,0.0003255540505051613,-0.0008940021507441998
1773790488499000800,8.944000732421875,0.000044590880861505866,0.0005324471276253462,-0.0005812114104628563
1773790488518963700,8.963963623046874,0.00013057549949735403,-0.0002235539723187685,0.0013084257952868938
1773790488538926800,8.9839267578125,0.001189705333672464,-0.00023088441230356693,0.00011768052354454994
1773790488558890800,9.003890869140625,0.000027049711206927896,0.00035969028249382973,0.0007763220928609371
1773790488578854000,9.02385400390625,-0.00044867530232295394,0.0009425436146557331,0.00037011923268437386
1773790488598816800,9.043816650390625,-0.00022442324552685022,0.002162449061870575,0.0002559344284236431
1773790488618780000,9.06377978515625,-0.000832505349535495,0.0003228699788451195,0.00016033882275223732
1773790488638743800,9.083743896484375,0.00004088602145202458,0.00011508772149682045,0.0010579703375697136
1773790488658707000,9.10370703125,0.0002625304623506963,0.00013525690883398056,0.00013202102854847908
1773790488678669800,9.123669921875,-0.0005573356756940484,0.0006774610374122858,-0.00031553488224744797
1773790488698633000,9.143633056640626,0.000006026180926710367,-0.000003348570317029953,-0.0013046814128756523
1773790488718596900,9.163596923828125,-0.0005631413660012186,-0.0007930572610348463,-0.0011899708770215511
1773790488738560000,9.18356005859375,-0.0006540700560435653,0.00024004257284104824,0.000018358230590820312
1773790488758523000,9.20352294921875,-0.00030382859404198825,0.00022989651188254356,0.0011930102482438087
1773790488778486000,9.223486083984374,0.0002442473196424544,-0.00004978920333087444,0.0019772653467953205
1773790488798450000,9.243449951171876,-0.00017335836309939623,0.0010396003490313888,0.0018059881404042244
1773790488818413000,9.2634130859375,-0.0007723287562839687,-0.00033935531973838806,0.00031331973150372505
1773790488838376000,9.2833759765625,0.00022978227934800088,0.0005631381645798683,0.00045704375952482224
1773790488858339000,9.303339111328125,-0.0007017557509243488,-0.0004327078349888325,0.0008668601512908936
1773790488878303000,9.323302978515626,0.0011067925952374935,0.0002022970002144575,-0.0002616248093545437
1773790488898266000,9.34326611328125,-0.00008363579399883747,0.000245723407715559,0.0013318611308932304
1773790488918229000,9.36322900390625,0.0010279582347720861,0.0011134897358715534,0.000052492134273052216
1773790488938192000,9.38319189453125,0.0010435323929414153,-0.0004803289193660021,-0.0003292988985776901
1773790488958155800,9.40315576171875,-0.0011790081625804305,-0.00017347466200590134,0.0014669960364699364
1773790488978119000,9.423118896484375,-0.0008574221865274012,0.0007145653944462538,-0.00038763415068387985
1773790488998082000,9.44308203125,0.0010180361568927765,-0.0006851358339190483,0.0009296545758843422
1773790489018045000,9.463044921875,-0.000016647943994030356,0.00047770910896360874,0.00030224118381738663
1773790489038008800,9.4830087890625,-0.00013445576769299805,-0.001327588688582182,0.00008626282215118408
1773790489057972000,9.502971923828126,0.00007228480535559356,0.000589235220104456,-0.00007881177589297295
1773790489077935000,9.52293505859375,0.0005523237050510943,0.00003605615347623825,-0.00027248915284872055
1773790489097898000,9.54289794921875,-0.00013068615226075053,-0.0005194700788706541,-0.00011288141831755638
1773790489117862000,9.56286181640625,0.00026661145966500044,0.0007570942398160696,0.00004211859777569771
1773790489137825000,9.582824951171874,0.00036716574686579406,-0.000026280293241143227,0.0009205811657011509
1773790489157788200,9.6027880859375,0.0004771325911860913,-0.0003404307644814253,0.0008299592882394791
1773790489177751000,9.6227509765625,0.00005344802048057318,-0.000006654299795627594,0.00044956477358937263
1773790489197715000,9.64271484375,-0.00017626251792535186,0.0007497861515730619,-0.0009582848288118839
1773790489217678000,9.662677978515624,-0.0007913196459412575,-0.0007296288385987282,0.000047476962208747864
1773790489237641200,9.68264111328125,-0.0010194263886660337,0.0006583381909877062,0.0014593093656003475
1773790489257603800,9.702603759765625,-0.0003693416656460613,-0.00008069071918725967,0.000008542090654373169
1773790489277567700,9.722567626953126,0.000010266609024256468,-0.000026582740247249603,-0.00013454072177410126
1773790489297531000,9.74253076171875,-0.0008827073033899069,-0.0010859055910259485,-0.0006290413439273834
1773790489317494000,9.762493896484376,0.0003603020159061998,-0.0010640807449817657,0.0009415354579687119
1773790489337457000,9.782456787109375,-0.0001902274088934064,-0.001867975341156125,-0.0009548086673021317
1773790489357420800,9.8024208984375,0.0008544778102077544,-0.0002318576443940401,-0.0006644600071012974
1773790489377384000,9.822384033203125,-0.0007437692256644368,-0.000026532914489507675,0.0005575194954872131
1773790489397347000,9.84234716796875,0.001894458313472569,0.000009740935638546944,-0.0003121001645922661
1773790489417310000,9.86231005859375,0.00001806207001209259,-0.001027944264933467,0.0006228284910321236
1773790489437273900,9.88227392578125,-0.0017498154193162918,-0.0012911767698824406,-0.0006601880304515362
1773790489457237000,9.902237060546875,-0.00022625987185165286,0.00032690796069800854,-0.0009846840985119343
1773790489477200100,9.9222001953125,0.0003201160579919815,0.001616989029571414,-0.0011878586374223232
1773790489497163000,9.9421630859375,0.00138304743450135,0.0002625272609293461,-0.000013145152479410172
1773790489517127000,9.962126953125,0.0015187254175543785,-0.00048047187738120556,0.00024234596639871597
1773790489537090000,9.982090087890626,0.0011110244086012244,-0.0003066530916839838,-0.0004874099977314472
1773790489557053200,10.00205322265625,0.0011554614175111055,0.000019186176359653473,-0.0000827498733997345
1773790489577015800,10.022015869140626,-0.0009081470780074596,0.0006218340713530779,-0.00010318541899323463
1773790489596980000,10.04197998046875,0.0016759407008066773,-0.0010439108591526747,-0.0007829423993825912
1773790489616942800,10.06194287109375,-0.0004234709485899657,-0.0009269185829907656,0.0008212798275053501
1773790489636906200,10.08190625,0.0005503579741343856,0.000903998501598835,0.0014440957456827164
1773790489656869000,10.101869140625,0.0008265861542895436,0.0003886159975081682,-0.0005552405491471291
1773790489676833300,10.121833251953126,0.000887008267454803,0.0004680473357439041,-0.0004929187707602978
1773790489696796200,10.141796142578125,0.0010134030599147081,-0.0002661298494786024,-0.0003038332797586918
1773790489716759300,10.16175927734375,-0.00023670177324675024,-0.00002292008139193058,-0.0002678651362657547
1773790489736722000,10.181721923828125,0.0010835140710696578,-0.00025482941418886185,-0.0014007682912051678
1773790489756686300,10.201686279296876,0.00020086130825802684,0.0000467242207378149,-0.000007647555321455002
1773790489776649000,10.22164892578125,-0.0002629533701110631,-0.000014679040759801865,-0.0007092808373272419
1773790489796612000,10.241612060546874,-0.0012593948049470782,0.0004994517657905817,0.00011694664135575294
1773790489816575000,10.261574951171875,0.0006590778939425945,-0.000256100669503212,-0.000045384280383586884
1773790489836538000,10.2815380859375,0.001335843000560999,-0.00003506033681333065,-0.00014334311708807945
1773790489856502000,10.301501953125,-0.0017326605739071965,0.00024275528267025948,-0.0011060750111937523
1773790489876465200,10.321465087890624,-0.000135990499984473,0.0012328174198046327,0.000812979880720377
1773790489896428000,10.341427978515625,0.0003173309378325939,-0.0005487618036568165,-0.0005700923502445221
1773790489916391200,10.36139111328125,-0.0001540642697364092,0.00016432534903287888,-0.0006306823343038559
1773790489936355000,10.38135498046875,-0.001126107177697122,0.000008678296580910683,-0.0012491350062191486
1773790489956318200,10.401318115234375,-0.00008275965228676796,0.0004084305837750435,-0.000059489626437425613
1773790489976281000,10.421281005859376,0.000862551445607096,-0.000995805487036705,0.0008085519075393677
1773790489996244200,10.441244140625,0.00006327970186248422,0.0005395691841840744,0.00044173141941428185
1773790490016208100,10.4612080078125,-0.0004265618626959622,0.0007165514398366213,0.0006154444999992847
1773790490036171300,10.481171142578125,-0.00032674786052666605,0.0012163029750809073,0.000287084374576807
1773790490056134100,10.501134033203124,-0.0002890417817980051,-0.0004745679907500744,3.306195139884949e-8
1773790490076097000,10.521096923828125,0.0016029338585212827,-0.000034150201827287674,0.000586559996008873
1773790490096061000,10.54106103515625,-0.0012941817985847592,0.0007640228141099215,0.0003172229044139385
1773790490116024000,10.561024169921875,-0.001757039804942906,0.00003068731166422367,-0.001434804406017065
1773790490135987000,10.580987060546875,-0.0008804158424027264,-0.0006100600585341454,-0.0006450247019529343
1773790490155950000,10.6009501953125,-0.0005309984553605318,0.000409106258302927,0.00028627505525946617
1773790490175914000,10.6209140625,-0.0006874197861179709,-0.00023741694167256355,-0.00010771676898002625
1773790490195877000,10.640877197265626,-0.002556461840867996,0.0013709706254303455,0.00031875865533947945
1773790490215840000,10.660840087890625,-0.0005437162471935153,-0.0009638352785259485,0.0005431929603219032
1773790490235803100,10.68080322265625,0.0005080418777652085,0.00009491760283708572,0.0005610226653516293
1773790490255767000,10.70076708984375,0.00026060815434902906,0.0005281113553792238,-0.0008654864504933357
1773790490275730200,10.720730224609374,-0.0001091625599656254,0.00021591084077954292,0.0008557108230888844
1773790490295693000,10.740693115234375,-0.0007271445356309414,-0.0008281224872916937,0.0015170597471296787
1773790490315656200,10.76065625,0.000050975242629647255,-0.000029192771762609482,-0.00019967323169112206
1773790490335620000,10.7806201171875,0.0004358314326964319,0.0010606860741972923,-0.0005065980367362499
1773790490355583200,10.800583251953125,-0.0011426060227677226,-0.0006537458393722773,-0.00002648681402206421
1773790490375546000,10.820546142578126,-0.00044092023745179176,-0.0000978556927293539,-0.0003476245328783989
1773790490395509000,10.840509033203125,0.0005947063327766955,-0.00023759319446980953,0.0009000971913337708
1773790490415473200,10.86047314453125,-0.0002287768293172121,0.0007036975584924221,0.0005837632343173027
1773790490435436000,10.88043603515625,0.001185324159450829,-0.00021957093849778175,0.00040664616972208023
1773790490455399000,10.90039892578125,-0.0002716722374316305,0.00028652092441916466,0.00031680893152952194
1773790490475362000,10.920362060546875,0.00026371952844783664,0.0002942264545708895,-0.0012477608397603035
1773790490495326000,10.940325927734374,0.0013541907537728548,0.000611521303653717,-0.0006233560852706432
1773790490515289000,10.9602890625,0.00083552161231637,0.000326292822137475,0.000009683892130851746
1773790490535252000,10.980251953125,0.0000938635494094342,-0.00018133060075342655,0.0010740356519818306
1773790490555215000,11.000215087890625,0.0005796744953840971,0.0001323504839092493,0.0003370479680597782
1773790490575179000,11.020178955078125,0.0008319023763760924,0.0005049123428761959,0.0002645323984324932
1773790490595142100,11.04014208984375,-0.0009242850355803967,-0.0009340457618236542,0.000520679634064436
1773790490615105300,11.060105224609375,-0.0008103998843580484,-0.000572883291170001,-0.0008731232956051826
1773790490635068200,11.080068115234376,0.0006770623149350286,-0.0001730967778712511,-0.0007556267082691193
1773790490655030800,11.10003076171875,0.0019869613461196423,-0.0007538562640547752,-0.0005967901088297367
1773790490674994700,11.11999462890625,0.0018199521582573652,-0.0006431955844163895,-0.0021629445254802704
1773790490694957800,11.139957763671875,-0.0007201651460491121,0.0010629770113155246,0.00023852894082665443
1773790490714920700,11.159920654296876,-0.0002757305046543479,-0.0007208182942122221,-0.0011153020896017551
1773790490734883800,11.1798837890625,0.0009280593949370086,-0.00006559095345437527,-0.0005104411393404007
1773790490754847700,11.19984765625,-0.0017100697150453925,-0.0013896229211241007,-0.00016634957864880562
1773790490774811000,11.219810791015625,-0.000057587516494095325,0.0005414399784058332,0.0004647062160074711
1773790490794773800,11.239773681640624,0.00004503433592617512,0.00029310607351362705,-0.0013698567636311054
1773790490814737000,11.25973681640625,0.00015438851551152766,0.0009895346593111753,-0.0012030452489852905
1773790490834700800,11.27970068359375,-0.00012650821008719504,-0.0002126989420503378,0.0015800432302057743
1773790490854664000,11.299663818359376,0.0006065777852199972,-0.0002461452968418598,0.0004800320602953434
1773790490874626800,11.319626708984375,-0.00008920227992348373,-0.0008559767156839371,0.0007523065432906151
1773790490894589700,11.339589599609376,0.0010523018427193165,-0.0011312214192003012,-0.00032070931047201157
1773790490914553900,11.359553955078125,0.0008315358427353203,-0.0005146036855876446,-0.0007050074636936188
1773790490934516700,11.379516845703124,-0.000057639466831460595,-0.00015886500477790833,-0.00036147376522421837
1773790490954479600,11.399479736328125,-0.00022852278198115528,-0.0011556032113730907,0.0013911514542996883
