time,seconds_elapsed,z,y,x
1773798175565159000,0.031158935546875,-0.9960174560546875,0.008941650390625,-0.01806640625
1773798175585125600,0.051125732421875,-0.9959869384765625,0.009429931640625,-0.0173187255859375
1773798175605092900,0.0710927734375,-0.99517822265625,0.008697509765625,-0.017578125
1773798175625059800,0.091059814453125,-0.9958648681640625,0.0098419189453125,-0.01812744140625
1773798175645027600,0.111027587890625,-0.99542236328125,0.01031494140625,-0.01824951171875
1773798175664994800,0.130994873046875,-0.996124267578125,0.009918212890625,-0.0183868408203125
1773798175684961800,0.1509619140625,-0.995941162109375,0.009002685546875,-0.0180206298828125
1773798175704928500,0.170928466796875,-0.9948577880859375,0.0089569091796875,-0.0172576904296875
1773798175724895700,0.190895751953125,-0.9956512451171875,0.0087127685546875,-0.01812744140625
1773798175744862700,0.21086279296875,-0.99517822265625,0.0092010498046875,-0.0176544189453125
1773798175764829700,0.23082958984375,-0.9961700439453125,0.0091400146484375,-0.0178680419921875
1773798175784797700,0.250797607421875,-0.9965972900390625,0.0081634521484375,-0.01788330078125
1773798175804764700,0.2707646484375,-0.9944000244140625,0.0094451904296875,-0.017669677734375
1773798175824732000,0.29073193359375,-0.9948577880859375,0.0087890625,-0.0185394287109375
1773798175844698600,0.31069873046875,-0.995574951171875,0.0086669921875,-0.01849365234375
1773798175864665900,0.330665771484375,-0.9951171875,0.0087432861328125,-0.0173492431640625
1773798175884632800,0.3506328125,-0.994842529296875,0.00885009765625,-0.017059326171875
1773798175904599600,0.370599609375,-0.995941162109375,0.008941650390625,-0.0179443359375
1773798175924566800,0.39056689453125,-0.9969024658203125,0.0086822509765625,-0.0184326171875
1773798175944534800,0.41053466796875,-0.995086669921875,0.0084381103515625,-0.0182342529296875
1773798175964501500,0.43050146484375,-0.996429443359375,0.009124755859375,-0.0192718505859375
1773798175984468700,0.45046875,-0.996368408203125,0.008514404296875,-0.0179595947265625
1773798176004435700,0.470435791015625,-0.9949493408203125,0.007293701171875,-0.017669677734375
1773798176024402700,0.490402587890625,-0.994140625,0.0081634521484375,-0.0177764892578125
1773798176044369700,0.51036962890625,-0.9959564208984375,0.00811767578125,-0.016815185546875
1773798176064337000,0.5303369140625,-0.9954071044921875,0.0091400146484375,-0.0175018310546875
1773798176084305000,0.550304931640625,-0.996063232421875,0.0092315673828125,-0.0178680419921875
1773798176104271600,0.570271728515625,-0.995086669921875,0.008514404296875,-0.0180206298828125
1773798176124238800,0.59023876953125,-0.9959259033203125,0.00933837890625,-0.0179595947265625
1773798176144205800,0.610205810546875,-0.995147705078125,0.0091705322265625,-0.0180511474609375
1773798176164172500,0.630172607421875,-0.996734619140625,0.0084381103515625,-0.0172271728515625
1773798176184139800,0.650139892578125,-0.99627685546875,0.0085601806640625,-0.0188446044921875
1773798176204106800,0.670106689453125,-0.99560546875,0.0087890625,-0.0179595947265625
1773798176224073700,0.69007373046875,-0.995819091796875,0.0079498291015625,-0.017364501953125
1773798176244041700,0.710041748046875,-0.99591064453125,0.0088043212890625,-0.0168304443359375
1773798176264008700,0.7300087890625,-0.9963226318359375,0.0095977783203125,-0.0177154541015625
1773798176283976000,0.749975830078125,-0.9947967529296875,0.0092010498046875,-0.018157958984375
1773798176303942700,0.769942626953125,-0.9954833984375,0.0089263916015625,-0.0171966552734375
1773798176323909600,0.78990966796875,-0.995086669921875,0.0092010498046875,-0.018585205078125
1773798176343876900,0.809876953125,-0.9958343505859375,0.009246826171875,-0.0173492431640625
1773798176363843600,0.829843505859375,-0.996124267578125,0.00946044921875,-0.017486572265625
1773798176383810800,0.849810791015625,-0.9954681396484375,0.0084228515625,-0.0182647705078125
1773798176403777800,0.86977783203125,-0.995025634765625,0.00830078125,-0.018524169921875
1773798176423745500,0.88974560546875,-0.996124267578125,0.0091552734375,-0.0179901123046875
1773798176444336600,0.910336669921875,-0.9963531494140625,0.0087432861328125,-0.0174407958984375
1773798176464303600,0.9303037109375,-0.9949493408203125,0.0089874267578125,-0.017242431640625
1773798176484270800,0.950270751953125,-0.9955902099609375,0.008544921875,-0.0171661376953125
1773798176504237600,0.970237548828125,-0.995452880859375,0.009002685546875,-0.018341064453125
1773798176524204800,0.990204833984375,-0.9945068359375,0.009765625,-0.0186920166015625
1773798176544171800,1.010171875,-0.995025634765625,0.0090179443359375,-0.017669677734375
1773798176564138800,1.030138671875,-0.9960784912109375,0.008331298828125,-0.018218994140625
1773798176584107300,1.050107177734375,-0.9952850341796875,0.00885009765625,-0.016937255859375
1773798176604074000,1.070073974609375,-0.9953460693359375,0.0087890625,-0.01776123046875
1773798176624041000,1.090041015625,-0.99554443359375,0.0086822509765625,-0.017181396484375
1773798176644008200,1.11000830078125,-0.994903564453125,0.0089874267578125,-0.01800537109375
1773798176663975000,1.129974853515625,-0.996063232421875,0.009765625,-0.0182342529296875
1773798176683942100,1.149942138671875,-0.9947052001953125,0.0087890625,-0.0179443359375
1773798176703909000,1.1699091796875,-0.9966278076171875,0.008392333984375,-0.018035888671875
1773798176723876000,1.1898759765625,-0.99481201171875,0.0091094970703125,-0.0169525146484375
1773798176743843000,1.209843017578125,-0.9948577880859375,0.0098876953125,-0.018707275390625
1773798176763810000,1.22981005859375,-0.995513916015625,0.0083465576171875,-0.0180206298828125
1773798176783778300,1.2497783203125,-0.9952545166015625,0.0088348388671875,-0.017333984375
1773798176804369200,1.270369140625,-0.9951019287109375,0.0081329345703125,-0.0175323486328125
1773798176824336100,1.290336181640625,-0.99542236328125,0.008514404296875,-0.0173797607421875
1773798176844303000,1.31030322265625,-0.9953460693359375,0.009368896484375,-0.018707275390625
1773798176864270300,1.330270263671875,-0.99566650390625,0.00933837890625,-0.0167999267578125
1773798176884237000,1.350237060546875,-0.99554443359375,0.00946044921875,-0.017852783203125
1773798176904204000,1.3702041015625,-0.99468994140625,0.0088653564453125,-0.017333984375
1773798176924171300,1.390171142578125,-0.994964599609375,0.0089111328125,-0.0182647705078125
1773798176944138000,1.410137939453125,-0.9957275390625,0.0102386474609375,-0.017730712890625
1773798176964105200,1.430105224609375,-0.995513916015625,0.0084991455078125,-0.0169830322265625
1773798176984072200,1.450072265625,-0.997161865234375,0.0086822509765625,-0.0181732177734375
1773798177004039200,1.4700390625,-0.996002197265625,0.0089569091796875,-0.01727294921875
1773798177024007200,1.490007080078125,-0.995269775390625,0.0092926025390625,-0.018218994140625
1773798177043974100,1.50997412109375,-0.9968414306640625,0.0082244873046875,-0.016754150390625
1773798177063941000,1.529941162109375,-0.9949798583984375,0.009796142578125,-0.01763916015625
1773798177083908000,1.549908203125,-0.9966888427734375,0.0101165771484375,-0.0168914794921875
1773798177103875000,1.569875,-0.99774169921875,0.008697509765625,-0.0185546875
1773798177123842000,1.589842041015625,-0.9953765869140625,0.0103607177734375,-0.016998291015625
1773798177143809000,1.60980908203125,-0.99456787109375,0.00958251953125,-0.017303466796875
1773798177163776300,1.6297763671875,-0.9965057373046875,0.009002685546875,-0.01751708984375
1773798177183743000,1.649742919921875,-0.994384765625,0.0092926025390625,-0.0176849365234375
1773798177203710000,1.6697099609375,-0.9961090087890625,0.0082855224609375,-0.01788330078125
1773798177223677200,1.68967724609375,-0.9956512451171875,0.0084075927734375,-0.0177459716796875
1773798177243644000,1.709643798828125,-0.99578857421875,0.0091094970703125,-0.0167999267578125
1773798177263611100,1.729611083984375,-0.9964752197265625,0.0081634521484375,-0.0174102783203125
1773798177283579100,1.7495791015625,-0.9949188232421875,0.0093841552734375,-0.016876220703125
1773798177303546000,1.769546142578125,-0.995635986328125,0.0088043212890625,-0.0167388916015625
1773798177323513000,1.78951318359375,-0.995574951171875,0.0083160400390625,-0.0173492431640625
1773798177343480000,1.80947998046875,-0.995758056640625,0.0096588134765625,-0.018585205078125
1773798177363447300,1.829447265625,-0.9954071044921875,0.0081634521484375,-0.017791748046875
1773798177383414000,1.8494140625,-0.9947357177734375,0.00933837890625,-0.0175323486328125
1773798177403381000,1.869381103515625,-0.9969482421875,0.008392333984375,-0.0166168212890625
1773798177423348200,1.88934814453125,-0.995391845703125,0.0098419189453125,-0.0184326171875
1773798177443315000,1.90931494140625,-0.9951934814453125,0.0093536376953125,-0.0166778564453125
1773798177463282200,1.9292822265625,-0.9955902099609375,0.0105438232421875,-0.0174560546875
1773798177483249200,1.949249267578125,-0.994659423828125,0.01043701171875,-0.01904296875
1773798177503216000,1.969216064453125,-0.9954376220703125,0.00787353515625,-0.01727294921875
1773798177523183000,1.98918310546875,-0.99566650390625,0.008544921875,-0.017059326171875
1773798177543150000,2.009150146484375,-0.995147705078125,0.0087890625,-0.0171966552734375
1773798177563118300,2.029118408203125,-0.99462890625,0.0088043212890625,-0.0169525146484375
1773798177583085000,2.0490849609375,-0.995361328125,0.009857177734375,-0.0179290771484375
1773798177603052000,2.069052001953125,-0.9962158203125,0.0090484619140625,-0.018798828125
1773798177623019000,2.08901904296875,-0.9953765869140625,0.0091705322265625,-0.0173797607421875
1773798177642986000,2.108986083984375,-0.994903564453125,0.0096893310546875,-0.0168609619140625
1773798177662953200,2.128953125,-0.996337890625,0.0087432861328125,-0.0174560546875
1773798177682920000,2.148919921875,-0.9962615966796875,0.009063720703125,-0.0174713134765625
1773798177702887200,2.16888720703125,-0.996002197265625,0.0088348388671875,-0.01812744140625
1773798177722854100,2.188854248046875,-0.9947052001953125,0.0092010498046875,-0.0177459716796875
1773798177742820900,2.20882080078125,-0.995635986328125,0.009368896484375,-0.01715087890625
1773798177762788000,2.2287880859375,-0.99560546875,0.0085601806640625,-0.017608642578125
1773798177782755000,2.248755126953125,-0.9952392578125,0.008941650390625,-0.0184326171875
1773798177802722000,2.26872216796875,-0.9959869384765625,0.00830078125,-0.017974853515625
1773798177822689000,2.28868896484375,-0.9969940185546875,0.009613037109375,-0.0174713134765625
1773798177842656300,2.30865625,-0.9950103759765625,0.0088653564453125,-0.01812744140625
1773798177862623000,2.328623046875,-0.99603271484375,0.0066070556640625,-0.0181121826171875
1773798177882591000,2.348591064453125,-0.996429443359375,0.00982666015625,-0.0174713134765625
1773798177902558200,2.36855810546875,-0.99462890625,0.0086517333984375,-0.0175018310546875
1773798177922525000,2.38852490234375,-0.9945220947265625,0.009063720703125,-0.0182037353515625
1773798177942492000,2.408491943359375,-0.9962005615234375,0.0089874267578125,-0.01849365234375
1773798177962459100,2.428459228515625,-0.9962310791015625,0.0090484619140625,-0.0179443359375
1773798177982425900,2.44842578125,-0.9954833984375,0.00946044921875,-0.01715087890625
1773798178002393000,2.46839306640625,-0.9951019287109375,0.0093841552734375,-0.0180511474609375
1773798178022360000,2.488360107421875,-0.9955902099609375,0.0085906982421875,-0.017822265625
1773798178042327000,2.5083271484375,-0.995208740234375,0.010345458984375,-0.0179290771484375
1773798178062294000,2.5282939453125,-0.9968109130859375,0.0093536376953125,-0.0185394287109375
1773798178082261000,2.548260986328125,-0.9954071044921875,0.0095367431640625,-0.0175018310546875
1773798178102228000,2.56822802734375,-0.995330810546875,0.0095367431640625,-0.017578125
1773798178122195000,2.58819482421875,-0.995880126953125,0.00909423828125,-0.0178070068359375
1773798178142162200,2.608162109375,-0.994659423828125,0.007965087890625,-0.0186614990234375
1773798178162129000,2.62812890625,-0.997283935546875,0.008056640625,-0.01800537109375
1773798178182096100,2.64809619140625,-0.996490478515625,0.00836181640625,-0.01715087890625
1773798178202063000,2.66806298828125,-0.99554443359375,0.009063720703125,-0.0173797607421875
1773798178222029800,2.68802978515625,-0.9955596923828125,0.0092315673828125,-0.0176544189453125
1773798178241997000,2.7079970703125,-0.9958343505859375,0.009765625,-0.0180206298828125
1773798178261964000,2.727964111328125,-0.9969940185546875,0.0090789794921875,-0.0166015625
1773798178281932000,2.74793212890625,-0.99566650390625,0.0093994140625,-0.0175018310546875
1773798178301899000,2.76789892578125,-0.9953765869140625,0.0083465576171875,-0.018218994140625
1773798178321866000,2.787865966796875,-0.9955596923828125,0.008880615234375,-0.0177764892578125
1773798178341833200,2.807833251953125,-0.9976959228515625,0.008056640625,-0.01776123046875
1773798178361800000,2.827800048828125,-0.996551513671875,0.0078125,-0.017974853515625
1773798178381767000,2.847766845703125,-0.9961090087890625,0.0098419189453125,-0.0179901123046875
1773798178401734100,2.867734130859375,-0.99530029296875,0.0095062255859375,-0.0180511474609375
1773798178421700900,2.887700927734375,-0.9949188232421875,0.0086822509765625,-0.01739501953125
1773798178441668000,2.907668212890625,-0.9952392578125,0.0087432861328125,-0.0169830322265625
1773798178461635000,2.927635009765625,-0.995635986328125,0.01025390625,-0.016876220703125
1773798178481602000,2.94760205078125,-0.99542236328125,0.008087158203125,-0.0173187255859375
1773798178501569000,2.967569091796875,-0.9958038330078125,0.009063720703125,-0.017730712890625
1773798178521536000,2.987535888671875,-0.9964599609375,0.0076751708984375,-0.018585205078125
1773798178541503000,3.0075029296875,-0.995025634765625,0.0081634521484375,-0.018096923828125
1773798178561470000,3.027469970703125,-0.9949493408203125,0.0083770751953125,-0.017333984375
1773798178581437000,3.04743701171875,-0.9955902099609375,0.009429931640625,-0.017791748046875
1773798178601404000,3.06740380859375,-0.9956512451171875,0.009124755859375,-0.0179290771484375
1773798178621371000,3.087370849609375,-0.9964447021484375,0.0082855224609375,-0.0166015625
1773798178641337900,3.107337890625,-0.996826171875,0.0085296630859375,-0.0181121826171875
1773798178661304800,3.127304931640625,-0.9947662353515625,0.0095672607421875,-0.0182647705078125
1773798178681271800,3.147271728515625,-0.99591064453125,0.0084686279296875,-0.017913818359375
1773798178701238800,3.16723876953125,-0.9955596923828125,0.0088653564453125,-0.01708984375
1773798178721206000,3.1872060546875,-0.9954986572265625,0.009674072265625,-0.0165557861328125
1773798178741172700,3.2071728515625,-0.9956207275390625,0.008941650390625,-0.018646240234375
1773798178761140000,3.227139892578125,-0.9964447021484375,0.0094757080078125,-0.0174102783203125
1773798178781107000,3.24710693359375,-0.9962158203125,0.0088043212890625,-0.017730712890625
1773798178801073700,3.26707373046875,-0.9956207275390625,0.0091552734375,-0.01739501953125
1773798178821041000,3.287041015625,-0.9961700439453125,0.0093231201171875,-0.0168914794921875
1773798178841007900,3.3070078125,-0.9959259033203125,0.0089263916015625,-0.016937255859375
1773798178860974800,3.326974853515625,-0.99627685546875,0.0083160400390625,-0.017822265625
1773798178880941800,3.34694189453125,-0.9972686767578125,0.007965087890625,-0.0182647705078125
1773798178900909000,3.366908935546875,-0.9948883056640625,0.0090179443359375,-0.0182342529296875
1773798178920875800,3.386875732421875,-0.9961700439453125,0.0085906982421875,-0.017547607421875
1773798178940842800,3.4068427734375,-0.9965667724609375,0.007110595703125,-0.01812744140625
1773798178960810000,3.42681005859375,-0.994140625,0.0106964111328125,-0.0196380615234375
1773798178980778000,3.446778076171875,-0.995330810546875,0.009613037109375,-0.0179290771484375
1773798179000744700,3.46674462890625,-0.995880126953125,0.008697509765625,-0.0180816650390625
1773798179020712000,3.4867119140625,-0.9966278076171875,0.0087890625,-0.0174560546875
1773798179040679000,3.506678955078125,-0.9954681396484375,0.007843017578125,-0.0173492431640625
1773798179060646000,3.52664599609375,-0.995819091796875,0.009735107421875,-0.01812744140625
1773798179080612900,3.54661279296875,-0.9951019287109375,0.0096893310546875,-0.0172119140625
1773798179100580000,3.566580078125,-0.9948272705078125,0.0094451904296875,-0.01751708984375
1773798179120546800,3.586546875,-0.995269775390625,0.009796142578125,-0.01727294921875
1773798179140513800,3.606513671875,-0.995208740234375,0.0091705322265625,-0.017913818359375
1773798179160481000,3.62648095703125,-0.994964599609375,0.0091400146484375,-0.0186920166015625
1773798179180447700,3.64644775390625,-0.9963226318359375,0.0093994140625,-0.0185089111328125
1773798179200415000,3.6664150390625,-0.99615478515625,0.0085296630859375,-0.0170440673828125
1773798179220382000,3.6863818359375,-0.99493408203125,0.0090789794921875,-0.0176239013671875
1773798179240349000,3.706348876953125,-0.994354248046875,0.009979248046875,-0.0178070068359375
1773798179260316000,3.72631591796875,-0.996063232421875,0.0089874267578125,-0.018402099609375
1773798179280283000,3.746282958984375,-0.996337890625,0.0103302001953125,-0.0185394287109375
1773798179300249900,3.766249755859375,-0.9964599609375,0.008819580078125,-0.0183258056640625
1773798179320216800,3.786216796875,-0.9954071044921875,0.009307861328125,-0.0169830322265625
1773798179340184000,3.80618408203125,-0.9953460693359375,0.0090484619140625,-0.0176544189453125
1773798179360150800,3.82615087890625,-0.9957275390625,0.0088043212890625,-0.0190277099609375
1773798179380118000,3.846117919921875,-0.996307373046875,0.0092926025390625,-0.0177764892578125
1773798179400085000,3.8660849609375,-0.9957733154296875,0.009368896484375,-0.0181732177734375
1773798179420051700,3.8860517578125,-0.9961395263671875,0.0091552734375,-0.0179595947265625
1773798179440019000,3.90601904296875,-0.995758056640625,0.0094451904296875,-0.01776123046875
1773798179459986000,3.92598583984375,-0.9947509765625,0.0094451904296875,-0.0172576904296875
1773798179479953000,3.945952880859375,-0.997222900390625,0.0101165771484375,-0.017730712890625
1773798179499920000,3.965919921875,-0.9961700439453125,0.009552001953125,-0.017974853515625
1773798179519886800,3.985886962890625,-0.9954833984375,0.0087127685546875,-0.018463134765625
1773798179539853800,4.005853759765625,-0.994537353515625,0.008880615234375,-0.01837158203125
1773798179559820800,4.02582080078125,-0.9971160888671875,0.0084991455078125,-0.017669677734375
1773798179579787800,4.045787841796875,-0.9947357177734375,0.0088958740234375,-0.0168304443359375
1773798179599754500,4.06575439453125,-0.9962005615234375,0.0087127685546875,-0.01727294921875
1773798179619721700,4.0857216796875,-0.9961395263671875,0.0098114013671875,-0.017578125
1773798179639688700,4.105688720703125,-0.9945068359375,0.009796142578125,-0.01678466796875
1773798179659655700,4.12565576171875,-0.9963836669921875,0.0093994140625,-0.017333984375
1773798179679622700,4.14562255859375,-0.99560546875,0.008880615234375,-0.0179443359375
1773798179699589600,4.165589599609375,-0.9956512451171875,0.0088043212890625,-0.0167999267578125
1773798179719555600,4.1855556640625,-0.996612548828125,0.00958251953125,-0.017730712890625
1773798179739522800,4.205522705078125,-0.9954681396484375,0.00836181640625,-0.0169830322265625
1773798179759489500,4.225489501953125,-0.9952392578125,0.0088043212890625,-0.018341064453125
1773798179779456500,4.24545654296875,-0.9972381591796875,0.008636474609375,-0.0173187255859375
1773798179799423700,4.265423828125,-0.995086669921875,0.00885009765625,-0.0174560546875
1773798179819390500,4.285390380859375,-0.995758056640625,0.0085296630859375,-0.0178375244140625
1773798179839357700,4.305357666015625,-0.99713134765625,0.00921630859375,-0.017974853515625
1773798179859324700,4.32532470703125,-0.995941162109375,0.0089263916015625,-0.017181396484375
1773798179879291600,4.345291748046875,-0.9963531494140625,0.008148193359375,-0.0175933837890625
1773798179899258600,4.365258544921875,-0.994781494140625,0.0079803466796875,-0.0185394287109375
1773798179919225600,4.3852255859375,-0.99591064453125,0.007965087890625,-0.0184783935546875
1773798179939192800,4.40519287109375,-0.995697021484375,0.009735107421875,-0.0164337158203125
1773798179959159600,4.42515966796875,-0.995819091796875,0.009185791015625,-0.017852783203125
1773798179979126800,4.445126708984375,-0.995513916015625,0.0087127685546875,-0.0177154541015625
1773798179999093800,4.46509375,-0.996124267578125,0.0092315673828125,-0.01806640625
1773798180019060700,4.485060791015625,-0.996185302734375,0.00872802734375,-0.016510009765625
1773798180039027700,4.50502783203125,-0.9960784912109375,0.0084075927734375,-0.01824951171875
1773798180058994700,4.52499462890625,-0.996002197265625,0.00897216796875,-0.0189208984375
1773798180078961700,4.544961669921875,-0.9954681396484375,0.007720947265625,-0.0177001953125
1773798180098928600,4.5649287109375,-0.995391845703125,0.008514404296875,-0.0182647705078125
1773798180118895900,4.584895751953125,-0.99615478515625,0.0087890625,-0.0177001953125
1773798180138862600,4.604862548828125,-0.995819091796875,0.0088348388671875,-0.019622802734375
1773798180158829600,4.62482958984375,-0.9947052001953125,0.008819580078125,-0.0180816650390625
1773798180178796800,4.644796875,-0.9953155517578125,0.0092315673828125,-0.018096923828125
1773798180198763500,4.664763427734375,-0.9954986572265625,0.00848388671875,-0.017333984375
1773798180218730800,4.684730712890625,-0.99591064453125,0.009490966796875,-0.0172119140625
1773798180238697700,4.70469775390625,-0.995941162109375,0.008636474609375,-0.017364501953125
1773798180258664700,4.724664794921875,-0.99627685546875,0.0084075927734375,-0.0177001953125
1773798180278631700,4.744631591796875,-0.9960784912109375,0.0082550048828125,-0.01837158203125
1773798180298598700,4.7645986328125,-0.9956207275390625,0.008575439453125,-0.01849365234375
1773798180318565600,4.784565673828125,-0.996246337890625,0.0093231201171875,-0.017242431640625
1773798180338531800,4.80453173828125,-0.99664306640625,0.00994873046875,-0.0167388916015625
1773798180358498600,4.82449853515625,-0.99609375,0.0094451904296875,-0.0177459716796875
1773798180378465500,4.844465576171875,-0.994842529296875,0.0091094970703125,-0.0173187255859375
1773798180398432800,4.864432861328125,-0.9961700439453125,0.009246826171875,-0.017974853515625
1773798180418399500,4.8843994140625,-0.9975738525390625,0.008056640625,-0.0175323486328125
1773798180438366700,4.90436669921875,-0.9957427978515625,0.0095367431640625,-0.0184173583984375
1773798180458957600,4.92495751953125,-0.9945831298828125,0.0095062255859375,-0.0177764892578125
1773798180478924800,4.9449248046875,-0.9949951171875,0.009918212890625,-0.0173187255859375
1773798180498891500,4.9648916015625,-0.9958343505859375,0.008636474609375,-0.018035888671875
1773798180518858800,4.984858642578125,-0.9960479736328125,0.00909423828125,-0.01776123046875
1773798180538825700,5.00482568359375,-0.99468994140625,0.0091094970703125,-0.0180206298828125
1773798180558792700,5.024792724609375,-0.9964447021484375,0.008544921875,-0.01751708984375
1773798180578759200,5.04475927734375,-0.995361328125,0.0091400146484375,-0.017822265625
1773798180598726100,5.06472607421875,-0.9949188232421875,0.0093231201171875,-0.0177154541015625
1773798180618693000,5.084693115234375,-0.9964141845703125,0.00958251953125,-0.017730712890625
1773798180638660000,5.10466015625,-0.9960479736328125,0.009185791015625,-0.0173492431640625
1773798180658627000,5.124626953125,-0.9964599609375,0.0087432861328125,-0.0172271728515625
1773798180678593300,5.14459326171875,-0.996246337890625,0.0080718994140625,-0.01715087890625
1773798180698560000,5.16456005859375,-0.996337890625,0.0093841552734375,-0.0185394287109375
1773798180718527000,5.18452685546875,-0.995391845703125,0.0091552734375,-0.0169219970703125
1773798180738494200,5.204494140625,-0.9951019287109375,0.007720947265625,-0.01788330078125
1773798180758461000,5.2244609375,-0.9954681396484375,0.0087738037109375,-0.0176849365234375
1773798180778428200,5.24442822265625,-0.995758056640625,0.009765625,-0.0184783935546875
1773798180799019000,5.26501904296875,-0.9952545166015625,0.0083465576171875,-0.0175933837890625
1773798180818986200,5.284986328125,-0.9949188232421875,0.0098724365234375,-0.0171966552734375
1773798180838953000,5.304952880859375,-0.9967803955078125,0.0104217529296875,-0.01824951171875
1773798180858920200,5.324920166015625,-0.9960784912109375,0.0074310302734375,-0.017181396484375
1773798180878887200,5.34488720703125,-0.99542236328125,0.0088043212890625,-0.018096923828125
1773798180898854100,5.364854248046875,-0.994720458984375,0.0085601806640625,-0.01837158203125
1773798180918820000,5.384820068359375,-0.995635986328125,0.0103302001953125,-0.0172271728515625
1773798180938787300,5.404787353515625,-0.995208740234375,0.0074615478515625,-0.0165252685546875
1773798180958754000,5.424754150390625,-0.99407958984375,0.0095672607421875,-0.0182342529296875
1773798180978721000,5.444720947265625,-0.998687744140625,0.009429931640625,-0.0184783935546875
1773798180998688300,5.464688232421875,-0.9961090087890625,0.009765625,-0.017974853515625
1773798181018655000,5.484655029296875,-0.9958343505859375,0.0092620849609375,-0.0186309814453125
1773798181038622200,5.504622314453125,-0.995819091796875,0.0085601806640625,-0.01739501953125
1773798181058589200,5.524589111328125,-0.9931793212890625,0.00830078125,-0.0177001953125
1773798181078556200,5.54455615234375,-0.99713134765625,0.009613037109375,-0.015655517578125
1773798181098523100,5.564523193359375,-0.995269775390625,0.0092926025390625,-0.019378662109375
1773798181118490000,5.584489990234375,-0.996124267578125,0.0100860595703125,-0.0181884765625
1773798181138457000,5.60445703125,-0.995849609375,0.0082244873046875,-0.018402099609375
1773798181158423300,5.62442333984375,-0.996673583984375,0.010467529296875,-0.0181427001953125
1773798181178390000,5.64439013671875,-0.9948883056640625,0.008392333984375,-0.016998291015625
1773798181198357000,5.66435693359375,-0.99609375,0.00970458984375,-0.0177459716796875
1773798181218324200,5.68432421875,-0.994781494140625,0.0084228515625,-0.017578125
1773798181238291000,5.704291015625,-0.9958648681640625,0.008575439453125,-0.017578125
1773798181258258200,5.724258056640625,-0.9957122802734375,0.008270263671875,-0.0187835693359375
1773798181278225200,5.74422509765625,-0.99603271484375,0.0092926025390625,-0.0178680419921875
1773798181298192100,5.764192138671875,-0.9947357177734375,0.0086669921875,-0.0174102783203125
1773798181318159000,5.7841591796875,-0.996124267578125,0.007720947265625,-0.0183258056640625
1773798181338126000,5.8041259765625,-0.9943084716796875,0.009918212890625,-0.017333984375
1773798181358092000,5.824092041015625,-0.995391845703125,0.0087432861328125,-0.0172271728515625
1773798181378059300,5.844059326171875,-0.99517822265625,0.00909423828125,-0.0178070068359375
1773798181398026200,5.864026123046875,-0.9952392578125,0.0097198486328125,-0.0171661376953125
1773798181417993000,5.883992919921875,-0.9949493408203125,0.009613037109375,-0.018157958984375
1773798181437960200,5.903960205078125,-0.9959564208984375,0.009674072265625,-0.018157958984375
1773798181457927200,5.92392724609375,-0.9945831298828125,0.0085601806640625,-0.01739501953125
1773798181477894100,5.94389404296875,-0.99462890625,0.0079803466796875,-0.0184783935546875
1773798181497861000,5.963861083984375,-0.99609375,0.0081939697265625,-0.0176239013671875
1773798181517828400,5.983828369140625,-0.9959259033203125,0.008880615234375,-0.016845703125
1773798181537795000,6.003795166015625,-0.995147705078125,0.0099639892578125,-0.017822265625
1773798181557761300,6.02376123046875,-0.9972076416015625,0.0089569091796875,-0.01763916015625
1773798181577728500,6.043728515625,-0.995208740234375,0.00811767578125,-0.0178985595703125
1773798181597695500,6.063695556640625,-0.99493408203125,0.00909423828125,-0.0179290771484375
1773798181617662700,6.083662841796875,-0.995758056640625,0.0108489990234375,-0.017059326171875
1773798181637629400,6.10362939453125,-0.99664306640625,0.009979248046875,-0.0177001953125
1773798181657596700,6.1235966796875,-0.99542236328125,0.0082550048828125,-0.01776123046875
1773798181677563600,6.143563720703125,-0.995361328125,0.0093994140625,-0.0179901123046875
1773798181697530600,6.163530517578125,-0.9950714111328125,0.009552001953125,-0.0178070068359375
1773798181717496600,6.18349658203125,-0.99566650390625,0.0088348388671875,-0.0173492431640625
1773798181737463800,6.2034638671875,-0.9955902099609375,0.00909423828125,-0.018463134765625
1773798181757430500,6.223430419921875,-0.9959259033203125,0.0091705322265625,-0.017364501953125
1773798181777397800,6.243397705078125,-0.99664306640625,0.0084228515625,-0.016845703125
1773798181797364700,6.26336474609375,-0.994720458984375,0.0087127685546875,-0.0169830322265625
1773798181817331500,6.28333154296875,-0.9955596923828125,0.0093994140625,-0.01727294921875
1773798181837298700,6.303298583984375,-0.9952239990234375,0.007965087890625,-0.0177459716796875
1773798181857265700,6.323265625,-0.9965362548828125,0.0091400146484375,-0.01715087890625
1773798181877231600,6.343231689453125,-0.9948577880859375,0.0085296630859375,-0.0179901123046875
1773798181897198600,6.363198486328125,-0.996337890625,0.0089111328125,-0.01727294921875
1773798181917165600,6.38316552734375,-0.9963531494140625,0.008880615234375,-0.0175628662109375
1773798181937132500,6.403132568359375,-0.995391845703125,0.00909423828125,-0.0171966552734375
1773798181957099800,6.423099853515625,-0.9966278076171875,0.00921630859375,-0.017669677734375
1773798181977066500,6.44306640625,-0.99609375,0.0084686279296875,-0.016815185546875
1773798181997033500,6.463033447265625,-0.996124267578125,0.0091705322265625,-0.0165557861328125
1773798182016999700,6.482999755859375,-0.994781494140625,0.00872802734375,-0.0190887451171875
1773798182036966700,6.502966552734375,-0.9957733154296875,0.00872802734375,-0.01751708984375
1773798182056933600,6.52293359375,-0.9957733154296875,0.010101318359375,-0.0166015625
1773798182076900600,6.542900634765625,-0.99652099609375,0.0092926025390625,-0.0167236328125
1773798182096867600,6.56286767578125,-0.9950103759765625,0.008209228515625,-0.0172119140625
1773798182116834600,6.58283447265625,-0.995208740234375,0.0085601806640625,-0.017852783203125
1773798182136801800,6.6028017578125,-0.9971466064453125,0.0093841552734375,-0.0184478759765625
1773798182156767500,6.622767578125,-0.9949493408203125,0.0086669921875,-0.017303466796875
1773798182176734700,6.642734619140625,-0.9954681396484375,0.008819580078125,-0.018524169921875
1773798182196701400,6.662701416015625,-0.9947052001953125,0.009246826171875,-0.0170440673828125
1773798182216668700,6.682668701171875,-0.99530029296875,0.008575439453125,-0.018646240234375
1773798182236635600,6.7026357421875,-0.9953765869140625,0.00933837890625,-0.01654052734375
1773798182256602600,6.7226025390625,-0.995697021484375,0.0103607177734375,-0.018096923828125
1773798182276569600,6.742569580078125,-0.9963226318359375,0.0071868896484375,-0.01763916015625
1773798182296535800,6.762535888671875,-0.9951324462890625,0.0082855224609375,-0.0178070068359375
1773798182316502500,6.78250244140625,-0.9973602294921875,0.0090179443359375,-0.017120361328125
1773798182336469800,6.8024697265625,-0.994140625,0.008453369140625,-0.018890380859375
1773798182356436700,6.822436767578125,-0.9959869384765625,0.008087158203125,-0.0178375244140625
1773798182376403500,6.842403564453125,-0.9952239990234375,0.0088958740234375,-0.0184783935546875
1773798182396370700,6.86237060546875,-0.995819091796875,0.0089874267578125,-0.017425537109375
1773798182416336600,6.882336669921875,-0.99554443359375,0.0101470947265625,-0.0167083740234375
1773798182436303600,6.9023037109375,-0.99603271484375,0.0079498291015625,-0.0161895751953125
1773798182456270600,6.9222705078125,-0.996673583984375,0.0083770751953125,-0.0186767578125
1773798182476237600,6.942237548828125,-0.996124267578125,0.00848388671875,-0.0163726806640625
1773798182496204500,6.96220458984375,-0.99609375,0.0093231201171875,-0.018157958984375
1773798182516171800,6.982171875,-0.99627685546875,0.00860595703125,-0.018310546875
1773798182536137500,7.002137451171875,-0.995269775390625,0.00897216796875,-0.018096923828125
1773798182556104700,7.022104736328125,-0.9957427978515625,0.008697509765625,-0.017242431640625
1773798182576072000,7.042072021484375,-0.9959259033203125,0.0083465576171875,-0.0173492431640625
1773798182596039200,7.0620390625,-0.995147705078125,0.00885009765625,-0.0177001953125
1773798182616006100,7.082006103515625,-0.996978759765625,0.0101165771484375,-0.0173187255859375
1773798182635972900,7.101972900390625,-0.9963836669921875,0.007720947265625,-0.015869140625
1773798182655939000,7.12193896484375,-0.9952545166015625,0.0104217529296875,-0.0181884765625
1773798182675906000,7.141906005859375,-0.996551513671875,0.00836181640625,-0.017364501953125
1773798182695873000,7.161873046875,-0.994903564453125,0.009246826171875,-0.017486572265625
1773798182715840000,7.181840087890625,-0.9960479736328125,0.008575439453125,-0.018218994140625
1773798182735807000,7.201806884765625,-0.9960784912109375,0.009429931640625,-0.0168914794921875
1773798182755773200,7.221773193359375,-0.995361328125,0.008209228515625,-0.0181427001953125
1773798182775740200,7.241740234375,-0.9953765869140625,0.008758544921875,-0.016754150390625
1773798182795707000,7.261706787109375,-0.9958038330078125,0.0091400146484375,-0.017913818359375
1773798182815674000,7.281674072265625,-0.9950714111328125,0.0093536376953125,-0.017578125
1773798182835641000,7.30164111328125,-0.9950408935546875,0.0087432861328125,-0.01788330078125
1773798182855608000,7.321608154296875,-0.9962615966796875,0.0089569091796875,-0.0167694091796875
1773798182875574000,7.341573974609375,-0.9957427978515625,0.008453369140625,-0.018829345703125
1773798182895541000,7.361541015625,-0.99615478515625,0.00921630859375,-0.0178985595703125
1773798182915508000,7.381508056640625,-0.9957275390625,0.0091552734375,-0.017364501953125
1773798182935475200,7.40147509765625,-0.9962158203125,0.0082550048828125,-0.0167236328125
1773798182955442000,7.42144189453125,-0.9954833984375,0.0067596435546875,-0.0173797607421875
1773798182975408000,7.441408203125,-0.99542236328125,0.0093994140625,-0.0178070068359375
1773798182995374800,7.461374755859375,-0.996490478515625,0.0084228515625,-0.0183258056640625
1773798183015342000,7.481342041015625,-0.99560546875,0.0084686279296875,-0.01666259765625
1773798183035309000,7.50130908203125,-0.997650146484375,0.0092620849609375,-0.018768310546875
1773798183055276000,7.521276123046875,-0.995941162109375,0.0081787109375,-0.0186309814453125
1773798183075242000,7.541241943359375,-0.9963836669921875,0.0087890625,-0.0180206298828125
1773798183095209200,7.561209228515625,-0.9954681396484375,0.010284423828125,-0.017425537109375
1773798183115176000,7.581176025390625,-0.9956817626953125,0.0089569091796875,-0.0168914794921875
1773798183135143200,7.60114306640625,-0.996124267578125,0.008636474609375,-0.0174713134765625
1773798183155110100,7.621110107421875,-0.9940338134765625,0.0089874267578125,-0.0188140869140625
1773798183175076000,7.641076171875,-0.9955902099609375,0.0079803466796875,-0.017822265625
1773798183195043000,7.66104296875,-0.9969482421875,0.0086517333984375,-0.01898193359375
1773798183215010000,7.681010009765625,-0.9948577880859375,0.0091552734375,-0.0186309814453125
1773798183234977000,7.70097705078125,-0.9959716796875,0.0085601806640625,-0.018035888671875
1773798183254944000,7.720944091796875,-0.9958953857421875,0.0086669921875,-0.01776123046875
1773798183274910000,7.740909912109375,-0.9961090087890625,0.00970458984375,-0.016998291015625
1773798183294877000,7.760876953125,-0.99493408203125,0.0088653564453125,-0.0169525146484375
1773798183314844200,7.78084423828125,-0.9958953857421875,0.0095062255859375,-0.0179901123046875
1773798183334811000,7.800810791015625,-0.99517822265625,0.00970458984375,-0.0185089111328125
1773798183354778000,7.820778076171875,-0.996002197265625,0.008514404296875,-0.017852783203125
1773798183374744000,7.840744140625,-0.99578857421875,0.0089111328125,-0.0166778564453125
1773798183394711000,7.8607109375,-0.9967041015625,0.00848388671875,-0.019073486328125
1773798183414678000,7.880677978515625,-0.99591064453125,0.009521484375,-0.0165863037109375
1773798183434645000,7.90064501953125,-0.9958038330078125,0.0084991455078125,-0.0179595947265625
1773798183454611000,7.92061083984375,-0.9947967529296875,0.0085601806640625,-0.017181396484375
1773798183474578200,7.940578125,-0.9967193603515625,0.0085601806640625,-0.0186614990234375
1773798183494545000,7.960544921875,-0.9956817626953125,0.008697509765625,-0.018157958984375
1773798183514512100,7.98051220703125,-0.9953155517578125,0.0078277587890625,-0.0162811279296875
1773798183534479000,8.00047900390625,-0.996124267578125,0.00958251953125,-0.017608642578125
1773798183554445000,8.020445068359376,-0.9966583251953125,0.0091552734375,-0.018157958984375
1773798183574412000,8.040412109375,-0.994964599609375,0.0082855224609375,-0.0167999267578125
1773798183594379300,8.060379150390625,-0.9957427978515625,0.009613037109375,-0.0173797607421875
1773798183614346000,8.080345947265625,-0.995147705078125,0.0096435546875,-0.017303466796875
1773798183634312200,8.100312255859375,-0.99627685546875,0.0088043212890625,-0.0174102783203125
1773798183654279000,8.12027880859375,-0.9949951171875,0.010711669921875,-0.0171661376953125
1773798183674246100,8.14024609375,-0.995269775390625,0.0085906982421875,-0.01800537109375
1773798183694213000,8.160213134765625,-0.99603271484375,0.0083770751953125,-0.0178375244140625
1773798183714179000,8.180178955078125,-0.9951019287109375,0.0096893310546875,-0.0168304443359375
1773798183734146000,8.20014599609375,-0.997344970703125,0.0078277587890625,-0.0174560546875
1773798183754113300,8.22011328125,-0.9977569580078125,0.0096282958984375,-0.0179290771484375
1773798183774080000,8.240080078125,-0.994903564453125,0.008880615234375,-0.018218994140625
1773798183794046200,8.260046142578124,-0.994903564453125,0.0087738037109375,-0.018096923828125
1773798183814013000,8.280012939453124,-0.995361328125,0.0082855224609375,-0.017730712890625
1773798183833980200,8.299980224609374,-0.995849609375,0.009002685546875,-0.0167388916015625
1773798183853947100,8.319947021484374,-0.9953155517578125,0.008697509765625,-0.0182342529296875
1773798183873913000,8.3399130859375,-0.996612548828125,0.00921630859375,-0.0170440673828125
1773798183893880000,8.359880126953126,-0.9950408935546875,0.009735107421875,-0.0169677734375
1773798183913847300,8.379847412109376,-0.996337890625,0.009796142578125,-0.0178680419921875
1773798183933814000,8.39981396484375,-0.9946441650390625,0.0084075927734375,-0.0165863037109375
1773798183953781200,8.41978125,-0.99505615234375,0.0092926025390625,-0.017791748046875
1773798183973747000,8.439746826171875,-0.9959716796875,0.0082550048828125,-0.018035888671875
1773798183993714200,8.459714111328125,-0.995513916015625,0.00872802734375,-0.0177001953125
1773798184013681200,8.47968115234375,-0.996368408203125,0.0081939697265625,-0.017913818359375
1773798184033647000,8.499647216796875,-0.9954833984375,0.0087890625,-0.0173492431640625
1773798184053614000,8.519614013671875,-0.9958648681640625,0.009613037109375,-0.0168304443359375
1773798184073581300,8.539581298828125,-0.994903564453125,0.0089569091796875,-0.016632080078125
1773798184093548000,8.559548095703125,-0.99505615234375,0.009368896484375,-0.017669677734375
1773798184113514200,8.57951416015625,-0.9964599609375,0.0088958740234375,-0.0178375244140625
1773798184133481000,8.59948095703125,-0.995086669921875,0.01007080078125,-0.0184326171875
1773798184153448200,8.6194482421875,-0.99652099609375,0.00897216796875,-0.0177001953125
1773798184173415200,8.639415283203125,-0.9952850341796875,0.0084075927734375,-0.0186614990234375
1773798184193381000,8.659381103515624,-0.996673583984375,0.0083465576171875,-0.0178070068359375
1773798184213348000,8.67934814453125,-0.99517822265625,0.008880615234375,-0.0168609619140625
1773798184233315300,8.6993154296875,-0.9961395263671875,0.0092010498046875,-0.0175323486328125
1773798184253282000,8.719281982421874,-0.99639892578125,0.0091552734375,-0.0171661376953125
1773798184273248300,8.739248291015626,-0.9962005615234375,0.0077056884765625,-0.0179901123046875
1773798184293215000,8.759215087890626,-0.995452880859375,0.00897216796875,-0.017791748046875
1773798184313182200,8.77918212890625,-0.9952545166015625,0.0084991455078125,-0.01763916015625
1773798184333148000,8.79914794921875,-0.9962158203125,0.010284423828125,-0.01837158203125
1773798184353115100,8.819115234375,-0.9955902099609375,0.00799560546875,-0.0177001953125
1773798184373082000,8.83908203125,-0.9965362548828125,0.008575439453125,-0.0177001953125
1773798184393049000,8.859049072265625,-0.9960174560546875,0.00860595703125,-0.0176544189453125
1773798184413015000,8.87901513671875,-0.9953155517578125,0.008148193359375,-0.017242431640625
1773798184432982300,8.898982177734375,-0.9958038330078125,0.009185791015625,-0.017791748046875
1773798184453573000,8.919572998046876,-0.99615478515625,0.0088348388671875,-0.0175933837890625
1773798184473540000,8.9395400390625,-0.9956817626953125,0.009490966796875,-0.0167083740234375
1773798184493506300,8.95950634765625,-0.995147705078125,0.0084991455078125,-0.017547607421875
1773798184513473000,8.97947314453125,-0.995880126953125,0.008819580078125,-0.018310546875
1773798184533440000,8.99943994140625,-0.996429443359375,0.00872802734375,-0.017333984375
1773798184553406000,9.019406005859375,-0.9955291748046875,0.0072174072265625,-0.0181884765625
1773798184573373200,9.039373291015625,-0.995391845703125,0.0092926025390625,-0.017852783203125
1773798184593340000,9.05933984375,-0.996826171875,0.0088958740234375,-0.0172271728515625
1773798184613307000,9.079306884765625,-0.9958038330078125,0.0099029541015625,-0.017181396484375
1773798184633272800,9.09927294921875,-0.99517822265625,0.0087432861328125,-0.01702880859375
1773798184653240000,9.119239990234375,-0.994171142578125,0.0089874267578125,-0.01666259765625
1773798184673207000,9.13920703125,-0.9954681396484375,0.0095367431640625,-0.0163726806640625
1773798184693173000,9.159173095703125,-0.996124267578125,0.010040283203125,-0.018341064453125
1773798184713140000,9.179139892578124,-0.99688720703125,0.009857177734375,-0.0184478759765625
1773798184733107200,9.199107177734374,-0.99615478515625,0.0096282958984375,-0.0182952880859375
1773798184753073000,9.219072998046874,-0.9950103759765625,0.00787353515625,-0.017059326171875
1773798184773040000,9.2390400390625,-0.99493408203125,0.00982666015625,-0.01690673828125
1773798184793631000,9.259630859375,-0.9951171875,0.00909423828125,-0.019073486328125
1773798184813597000,9.279596923828125,-0.995513916015625,0.008575439453125,-0.017333984375
1773798184833564200,9.299564208984375,-0.996826171875,0.0082550048828125,-0.0188751220703125
1773798184853531000,9.31953076171875,-0.9975738525390625,0.0083465576171875,-0.0174407958984375
1773798184873497000,9.3394970703125,-0.9959564208984375,0.0091705322265625,-0.016998291015625
1773798184893464000,9.359464111328125,-0.997344970703125,0.0092315673828125,-0.017120361328125
1773798184913431000,9.37943115234375,-0.99609375,0.008819580078125,-0.0174102783203125
1773798184933398000,9.39939794921875,-0.99542236328125,0.008087158203125,-0.017242431640625
1773798184953364000,9.419364013671874,-0.996490478515625,0.0095367431640625,-0.0180206298828125
1773798184973331000,9.4393310546875,-0.994415283203125,0.0092315673828125,-0.0169830322265625
1773798184993298200,9.459298095703126,-0.9965972900390625,0.0085906982421875,-0.0166473388671875
1773798185013264000,9.479263916015626,-0.9966583251953125,0.00958251953125,-0.0193023681640625
1773798185033231000,9.499231201171876,-0.9962310791015625,0.0089874267578125,-0.0159454345703125
1773798185053198000,9.519197998046875,-0.9952392578125,0.0085296630859375,-0.0181121826171875
1773798185073164000,9.5391640625,-0.9952545166015625,0.0090789794921875,-0.0177154541015625
1773798185093131000,9.559131103515625,-0.9951629638671875,0.0096282958984375,-0.01678466796875
1773798185113098000,9.579097900390625,-0.996185302734375,0.008331298828125,-0.0177764892578125
1773798185133064000,9.59906396484375,-0.9957427978515625,0.009185791015625,-0.0174407958984375
1773798185153031000,9.619031005859375,-0.9956817626953125,0.0082550048828125,-0.0189056396484375
1773798185172998000,9.638997802734375,-0.996246337890625,0.00933837890625,-0.016815185546875
1773798185192964000,9.658964111328125,-0.9965667724609375,0.0092926025390625,-0.01837158203125
1773798185212930800,9.678930908203125,-0.995697021484375,0.009735107421875,-0.0174560546875
1773798185232898000,9.69889794921875,-0.9957733154296875,0.008056640625,-0.018157958984375
1773798185252864000,9.718864013671874,-0.9964447021484375,0.0085906982421875,-0.0184326171875
1773798185272831000,9.7388310546875,-0.9954376220703125,0.00958251953125,-0.0177764892578125
1773798185292798000,9.7587978515625,-0.99432373046875,0.0093841552734375,-0.017974853515625
1773798185312764000,9.778763916015626,-0.99493408203125,0.00811767578125,-0.0162200927734375
1773798185332731100,9.798731201171876,-0.99517822265625,0.0087432861328125,-0.0179443359375
1773798185352698000,9.818697998046876,-0.99444580078125,0.0084991455078125,-0.0181121826171875
1773798185372664000,9.8386640625,-0.996002197265625,0.009307861328125,-0.016571044921875
1773798185392631000,9.858631103515625,-0.9959564208984375,0.0082244873046875,-0.017547607421875
1773798185412598000,9.878597900390625,-0.9955902099609375,0.00897216796875,-0.0174560546875
1773798185432564000,9.89856396484375,-0.994903564453125,0.0098876953125,-0.0178985595703125
1773798185452531200,9.91853125,-0.9958038330078125,0.008819580078125,-0.0168914794921875
1773798185472498000,9.938497802734375,-0.9959259033203125,0.0084075927734375,-0.017303466796875
1773798185492464000,9.958464111328125,-0.995391845703125,0.008880615234375,-0.0171966552734375
1773798185512430800,9.978430908203125,-0.995452880859375,0.008514404296875,-0.016845703125
1773798185532398000,9.998398193359375,-0.9956512451171875,0.00885009765625,-0.01739501953125
1773798185552363800,10.01836376953125,-0.9958953857421875,0.0079345703125,-0.01971435546875
1773798185572331000,10.0383310546875,-0.9951629638671875,0.0089569091796875,-0.0176239013671875
1773798185592297700,10.058297607421874,-0.994873046875,0.009246826171875,-0.0164337158203125
1773798185612264000,10.078263916015626,-0.9965667724609375,0.008270263671875,-0.0173492431640625
1773798185632231000,10.09823095703125,-0.9963226318359375,0.0097808837890625,-0.017730712890625
1773798185652198000,10.118197998046876,-0.99566650390625,0.008514404296875,-0.0180816650390625
1773798185672163800,10.138163818359375,-0.9959716796875,0.0094757080078125,-0.018218994140625
1773798185692130800,10.158130859375,-0.9952545166015625,0.00958251953125,-0.0182647705078125
1773798185712097000,10.178096923828125,-0.99407958984375,0.0086517333984375,-0.017181396484375
1773798185732064000,10.19806396484375,-0.995880126953125,0.009124755859375,-0.018218994140625
1773798185752031000,10.218031005859375,-0.994537353515625,0.0098724365234375,-0.017822265625
1773798185771997000,10.237996826171875,-0.995513916015625,0.009002685546875,-0.0173187255859375
1773798185791964000,10.2579638671875,-0.995880126953125,0.008453369140625,-0.01708984375
1773798185811931000,10.277930908203125,-0.9952850341796875,0.0086669921875,-0.0173492431640625
1773798185831897000,10.29789697265625,-0.9949188232421875,0.00933837890625,-0.0175323486328125
1773798185851863800,10.31786376953125,-0.9950103759765625,0.00823974609375,-0.0180816650390625
1773798185871831000,10.3378310546875,-0.99359130859375,0.008697509765625,-0.018310546875
1773798185891796700,10.357796630859376,-0.99560546875,0.0088348388671875,-0.0175933837890625
1773798185911764000,10.377763916015626,-0.9947052001953125,0.0088653564453125,-0.0167083740234375
1773798185931731000,10.39773095703125,-0.99505615234375,0.0076751708984375,-0.0175323486328125
1773798185951697000,10.41769677734375,-0.9951629638671875,0.0095367431640625,-0.017181396484375
1773798185971664000,10.437663818359376,-0.9948577880859375,0.00933837890625,-0.0181732177734375
1773798185991629800,10.4576298828125,-0.9949493408203125,0.009307861328125,-0.0176544189453125
1773798186011596800,10.4775966796875,-0.99658203125,0.008880615234375,-0.0182952880859375
1773798186031564000,10.49756396484375,-0.99627685546875,0.00872802734375,-0.017852783203125
1773798186051530000,10.517530029296875,-0.995361328125,0.0091705322265625,-0.01702880859375
1773798186071497000,10.5374970703125,-0.997283935546875,0.0097808837890625,-0.0169525146484375
1773798186091463700,10.557463623046875,-0.99609375,0.0092620849609375,-0.017364501953125
1773798186111430000,10.577429931640625,-0.9965972900390625,0.0087890625,-0.017486572265625
1773798186131397000,10.597397216796875,-0.995452880859375,0.008544921875,-0.0179443359375
1773798186151362800,10.61736279296875,-0.9957427978515625,0.009185791015625,-0.0171661376953125
1773798186171330000,10.637330078125,-0.99542236328125,0.0092620849609375,-0.0179290771484375
1773798186191296800,10.657296875,-0.99578857421875,0.008209228515625,-0.017333984375
1773798186211263000,10.677262939453126,-0.99554443359375,0.0092010498046875,-0.0185394287109375
1773798186231230000,10.69722998046875,-0.9963836669921875,0.0082244873046875,-0.0186614990234375
1773798186251196000,10.71719580078125,-0.9957122802734375,0.0085906982421875,-0.0172271728515625
1773798186271163000,10.737162841796875,-0.994781494140625,0.008941650390625,-0.017181396484375
1773798186291129900,10.7571298828125,-0.9947967529296875,0.0102996826171875,-0.017608642578125
1773798186311096000,10.777095947265625,-0.995697021484375,0.0089111328125,-0.017303466796875
1773798186331062800,10.797062744140625,-0.9955291748046875,0.0081634521484375,-0.0181732177734375
1773798186351029000,10.817029052734375,-0.9956207275390625,0.0078125,-0.017425537109375
1773798186370996000,10.836995849609375,-0.9953765869140625,0.0081939697265625,-0.016632080078125
1773798186390963000,10.856962890625,-0.996246337890625,0.008453369140625,-0.0179595947265625
1773798186410929000,10.876928955078125,-0.9948577880859375,0.008941650390625,-0.0159912109375
1773798186430895900,10.896895751953124,-0.9961090087890625,0.0092315673828125,-0.0174407958984375
1773798186450861800,10.91686181640625,-0.9953155517578125,0.0093536376953125,-0.017303466796875
1773798186470829000,10.9368291015625,-0.9974517822265625,0.0087127685546875,-0.017181396484375
1773798186490795800,10.956795654296876,-0.9955902099609375,0.0086517333984375,-0.018341064453125
1773798186510762000,10.976761962890626,-0.9960479736328125,0.0088958740234375,-0.01812744140625
1773798186530728700,10.996728759765626,-0.9955596923828125,0.009033203125,-0.0187835693359375
1773798186550695000,11.01669482421875,-0.9948577880859375,0.0084991455078125,-0.016387939453125
1773798186570662100,11.036662109375,-0.9954986572265625,0.00872802734375,-0.01751708984375
1773798186590628400,11.05662841796875,-0.994293212890625,0.0093536376953125,-0.0172882080078125
1773798186610594300,11.07659423828125,-0.9959259033203125,0.0102691650390625,-0.017181396484375
1773798186630561300,11.096561279296875,-0.9958038330078125,0.00872802734375,-0.01751708984375
1773798186650527200,11.11652734375,-0.9962005615234375,0.0089874267578125,-0.017730712890625
1773798186670494200,11.136494140625,-0.995391845703125,0.0090484619140625,-0.0175628662109375
1773798186690461400,11.15646142578125,-0.995361328125,0.009368896484375,-0.0166168212890625
1773798186710427400,11.176427490234374,-0.995635986328125,0.0094146728515625,-0.017333984375
1773798186730394400,11.196394287109374,-0.99493408203125,0.00897216796875,-0.01715087890625
1773798186750360300,11.2163603515625,-0.99700927734375,0.009063720703125,-0.01739501953125
1773798186770327300,11.236327392578126,-0.995880126953125,0.009033203125,-0.0167694091796875
1773798186790294300,11.256294189453126,-0.9962158203125,0.009185791015625,-0.0183563232421875
1773798186810260200,11.27626025390625,-0.99560546875,0.0084686279296875,-0.0174407958984375
1773798186830227500,11.2962275390625,-0.994781494140625,0.0078887939453125,-0.0180816650390625
1773798186850193200,11.316193115234375,-0.9964141845703125,0.01019287109375,-0.017120361328125
1773798186870160400,11.336160400390625,-0.9969635009765625,0.0076446533203125,-0.0169525146484375
1773798186890126300,11.356126220703125,-0.9958343505859375,0.010223388671875,-0.0182037353515625
1773798186910093300,11.37609326171875,-0.995086669921875,0.0085601806640625,-0.0166473388671875
1773798186930060300,11.396060302734375,-0.997100830078125,0.0100555419921875,-0.0177459716796875
1773798186950026200,11.416026123046874,-0.9964752197265625,0.0092926025390625,-0.018707275390625
1773798186969993500,11.435993408203124,-0.9957427978515625,0.0079498291015625,-0.0167999267578125
1773798186989959200,11.455959228515624,-0.9951171875,0.008636474609375,-0.0172119140625
1773798187009926400,11.475926513671874,-0.9953765869140625,0.0077667236328125,-0.017547607421875
1773798187029892000,11.49589208984375,-0.996124267578125,0.009857177734375,-0.0186309814453125
1773798187049859300,11.515859375,-0.995361328125,0.0086822509765625,-0.017242431640625
1773798187069826300,11.535826416015626,-0.9962158203125,0.008056640625,-0.0164794921875
1773798187089792300,11.555792236328125,-0.994232177734375,0.00921630859375,-0.0180206298828125
1773798187109759200,11.57575927734375,-0.9955596923828125,0.0085296630859375,-0.0173187255859375
1773798187129725200,11.59572509765625,-0.9969940185546875,0.0089111328125,-0.0174560546875
1773798187149692400,11.6156923828125,-0.9951324462890625,0.00848388671875,-0.018035888671875
1773798187169658000,11.635658203125,-0.9958038330078125,0.0092315673828125,-0.0169219970703125
1773798187189625300,11.655625244140625,-0.9964752197265625,0.0091400146484375,-0.0182952880859375
1773798187209591300,11.67559130859375,-0.995208740234375,0.0099639892578125,-0.0188751220703125
1773798187229558300,11.695558349609374,-0.9944305419921875,0.00860595703125,-0.017120361328125
1773798187249525200,11.715525146484374,-0.9959259033203125,0.008026123046875,-0.0165557861328125
1773798187269491200,11.7354912109375,-0.994476318359375,0.0090179443359375,-0.0174407958984375
1773798187289458200,11.755458251953126,-0.9952239990234375,0.0083160400390625,-0.0174102783203125
1773798187309424000,11.775424072265626,-0.9954986572265625,0.0087432861328125,-0.0174713134765625
1773798187329391400,11.795391357421876,-0.9966888427734375,0.0090484619140625,-0.0174560546875
1773798187349357300,11.815357421875,-0.996337890625,0.0081329345703125,-0.0174560546875
1773798187369324300,11.83532421875,-0.995697021484375,0.0093841552734375,-0.0179901123046875
1773798187389290200,11.855290283203125,-0.9955291748046875,0.0087738037109375,-0.0180816650390625
1773798187409257200,11.87525732421875,-0.9960784912109375,0.0084991455078125,-0.01617431640625
1773798187429224200,11.89522412109375,-0.99554443359375,0.009002685546875,-0.0187530517578125
1773798187449190400,11.9151904296875,-0.9952239990234375,0.0091552734375,-0.0175323486328125
1773798187469157000,11.9351572265625,-0.9970703125,0.0109100341796875,-0.018035888671875
1773798187489123300,11.955123291015624,-0.9952545166015625,0.00848388671875,-0.0172882080078125
1773798187509090300,11.97509033203125,-0.9954681396484375,0.009124755859375,-0.018310546875
1773798187529056300,11.99505615234375,-0.9957275390625,0.009002685546875,-0.0164794921875
1773798187549023500,12.0150234375,-0.99517822265625,0.0091552734375,-0.0182647705078125
1773798187568989200,12.0349892578125,-0.9949798583984375,0.009246826171875,-0.0176239013671875
1773798187588956400,12.054956298828126,-0.9954986572265625,0.0096282958984375,-0.0172119140625
1773798187608922400,12.07492236328125,-0.99591064453125,0.00836181640625,-0.017913818359375
1773798187628889300,12.094889404296875,-0.99615478515625,0.00885009765625,-0.017364501953125
1773798187648855300,12.114855224609375,-0.9969482421875,0.009246826171875,-0.0186309814453125
1773798187668822300,12.134822265625,-0.996429443359375,0.009033203125,-0.0182647705078125
1773798187688789200,12.154789306640625,-0.9945831298828125,0.01031494140625,-0.017852783203125
1773798187708755200,12.174755126953125,-0.996429443359375,0.0081939697265625,-0.017608642578125
1773798187728722400,12.194722412109375,-0.9944305419921875,0.00982666015625,-0.017364501953125
1773798187748688100,12.214688232421874,-0.9963226318359375,0.00885009765625,-0.0175933837890625
1773798187768655400,12.2346552734375,-0.995391845703125,0.0097503662109375,-0.0185546875
1773798187788621300,12.254621337890624,-0.9957733154296875,0.0091400146484375,-0.017822265625
1773798187808588300,12.27458837890625,-0.9950714111328125,0.008544921875,-0.01751708984375
1773798187828554500,12.294554443359376,-0.99578857421875,0.0096588134765625,-0.018585205078125
1773798187848521200,12.314521240234376,-0.9968414306640625,0.009368896484375,-0.0170135498046875
1773798187868487400,12.3344873046875,-0.9957275390625,0.0090484619140625,-0.0175628662109375
1773798187888454100,12.3544541015625,-0.9958648681640625,0.0081939697265625,-0.0180511474609375
1773798187908420400,12.37442041015625,-0.995025634765625,0.00872802734375,-0.0173797607421875
1773798187928387000,12.394386962890625,-0.9949951171875,0.0090179443359375,-0.0177154541015625
1773798187948353300,12.414353271484375,-0.99713134765625,0.00860595703125,-0.017730712890625
1773798187968320300,12.4343203125,-0.9976043701171875,0.010162353515625,-0.0182037353515625
1773798187988286200,12.4542861328125,-0.9956207275390625,0.0082244873046875,-0.0176239013671875
1773798188008253400,12.47425341796875,-0.9954376220703125,0.009124755859375,-0.0177154541015625
1773798188028219100,12.49421923828125,-0.9959259033203125,0.00946044921875,-0.018035888671875
1773798188048186400,12.514186279296876,-0.9954376220703125,0.0088958740234375,-0.01751708984375
1773798188068152000,12.534152099609376,-0.99639892578125,0.009124755859375,-0.0185089111328125
1773798188088119300,12.554119384765626,-0.99639892578125,0.0092620849609375,-0.0175628662109375
1773798188108086300,12.574086181640626,-0.9949951171875,0.0100250244140625,-0.0170135498046875
1773798188128052200,12.59405224609375,-0.995635986328125,0.00872802734375,-0.0172271728515625
1773798188148019200,12.614019287109375,-0.9952850341796875,0.008453369140625,-0.0179443359375
1773798188167985200,12.633985107421875,-0.9954986572265625,0.0095977783203125,-0.0176849365234375
1773798188187952400,12.653952392578125,-0.9953155517578125,0.0085296630859375,-0.0174713134765625
1773798188207918000,12.67391796875,-0.9962921142578125,0.0084686279296875,-0.0189208984375
1773798188227885300,12.69388525390625,-0.9946746826171875,0.0090789794921875,-0.0171966552734375
1773798188247851300,12.713851318359374,-0.9954986572265625,0.009033203125,-0.01715087890625
1773798188267818200,12.733818359375,-0.996063232421875,0.0089874267578125,-0.0176849365234375
1773798188287784400,12.753784423828124,-0.9953155517578125,0.0079498291015625,-0.017730712890625
1773798188307751200,12.773751220703126,-0.9955596923828125,0.008544921875,-0.0179901123046875
1773798188327717400,12.79371728515625,-0.99627685546875,0.0084381103515625,-0.0164642333984375
1773798188347684400,12.813684326171876,-0.9947357177734375,0.008575439453125,-0.018096923828125
1773798188367650300,12.833650390625,-0.995574951171875,0.0089569091796875,-0.0169219970703125
1773798188387617300,12.8536171875,-0.9955291748046875,0.009735107421875,-0.0181427001953125
1773798188407583200,12.873583251953125,-0.9950714111328125,0.00830078125,-0.0171051025390625
1773798188427550200,12.89355029296875,-0.996826171875,0.0077056884765625,-0.01678466796875
1773798188448140300,12.914140380859376,-0.9944610595703125,0.008697509765625,-0.01739501953125
1773798188468107300,12.934107177734376,-0.995574951171875,0.0085296630859375,-0.0184783935546875
1773798188488073500,12.954073486328125,-0.994873046875,0.0091400146484375,-0.017913818359375
1773798188508040200,12.974040283203125,-0.996185302734375,0.00848388671875,-0.01702880859375
1773798188528006400,12.99400634765625,-0.9962310791015625,0.00921630859375,-0.017181396484375
1773798188547973400,13.013973388671875,-0.995391845703125,0.0084075927734375,-0.01751708984375
1773798188567939300,13.033939208984375,-0.9958038330078125,0.01007080078125,-0.0167694091796875
1773798188587907000,13.053906982421875,-0.995849609375,0.009033203125,-0.01751708984375
1773798188607873000,13.073873046875,-0.9958038330078125,0.008270263671875,-0.0178985595703125
1773798188627839000,13.0938388671875,-0.994720458984375,0.009063720703125,-0.0166015625
1773798188647806000,13.113805908203124,-0.995330810546875,0.0091400146484375,-0.0171661376953125
1773798188667772200,13.133772216796874,-0.9965362548828125,0.0097503662109375,-0.01776123046875
1773798188687739000,13.15373876953125,-0.99560546875,0.0089111328125,-0.01654052734375
1773798188707705000,13.173705078125,-0.995941162109375,0.0083465576171875,-0.018402099609375
1773798188727672000,13.193672119140626,-0.996490478515625,0.010009765625,-0.0175323486328125
1773798188747638000,13.213637939453125,-0.9951019287109375,0.009307861328125,-0.015960693359375
1773798188767605000,13.23360498046875,-0.9952545166015625,0.0087890625,-0.0167694091796875
1773798188787571000,13.253571044921875,-0.997283935546875,0.008758544921875,-0.0161895751953125
1773798188808162000,13.274162109375,-0.995330810546875,0.00799560546875,-0.018463134765625
1773798188828128000,13.2941279296875,-0.995941162109375,0.0084381103515625,-0.0169677734375
1773798188848094000,13.314093994140626,-0.9952850341796875,0.0087890625,-0.0170135498046875
1773798188868061200,13.334061279296876,-0.995635986328125,0.0095977783203125,-0.01861572265625
1773798188888027000,13.35402685546875,-0.994842529296875,0.008331298828125,-0.0167694091796875
1773798188907994000,13.373994140625,-0.9951934814453125,0.0095062255859375,-0.0172271728515625
1773798188927959800,13.393959716796875,-0.99481201171875,0.0079345703125,-0.016845703125
1773798188947927000,13.413927001953125,-0.995758056640625,0.00885009765625,-0.0184783935546875
1773798188967893000,13.43389306640625,-0.9954833984375,0.008270263671875,-0.017303466796875
1773798188987860000,13.45385986328125,-0.993927001953125,0.009918212890625,-0.019195556640625
1773798189007826200,13.473826171875,-0.9954681396484375,0.009674072265625,-0.0165557861328125
1773798189027793000,13.49379296875,-0.995849609375,0.0092315673828125,-0.0166168212890625
1773798189047759000,13.513759033203126,-0.9951171875,0.008880615234375,-0.017242431640625
1773798189067725800,13.533725830078126,-0.9954071044921875,0.008758544921875,-0.0169677734375
1773798189087692000,13.553692138671876,-0.9960784912109375,0.0086212158203125,-0.0180511474609375
1773798189107659000,13.573658935546876,-0.99591064453125,0.0099639892578125,-0.017730712890625
1773798189127625000,13.593625,-0.9961700439453125,0.0089263916015625,-0.017120361328125
1773798189147591000,13.6135908203125,-0.9952850341796875,0.0084075927734375,-0.016265869140625
1773798189167558000,13.633557861328125,-0.9964141845703125,0.0094451904296875,-0.0164642333984375
1773798189187524000,13.653524169921875,-0.994415283203125,0.0091400146484375,-0.01837158203125
1773798189207490800,13.67349072265625,-0.995391845703125,0.008819580078125,-0.017669677734375
1773798189227457000,13.69345703125,-0.9980621337890625,0.00836181640625,-0.0174407958984375
1773798189247424000,13.713424072265624,-0.9951324462890625,0.0079345703125,-0.0174102783203125
1773798189267390000,13.733389892578124,-0.995849609375,0.0088958740234375,-0.017608642578125
1773798189287357200,13.753357177734374,-0.9958038330078125,0.009307861328125,-0.0180816650390625
1773798189307323000,13.773322998046876,-0.9963531494140625,0.00860595703125,-0.0187835693359375
1773798189327289000,13.7932890625,-0.9967803955078125,0.008575439453125,-0.0170135498046875
1773798189347256000,13.813256103515625,-0.99542236328125,0.0081329345703125,-0.0164337158203125
1773798189367222000,13.833221923828125,-0.996368408203125,0.0086212158203125,-0.0167236328125
1773798189387189000,13.85318896484375,-0.9955596923828125,0.0091705322265625,-0.0171051025390625
1773798189407155000,13.873155029296875,-0.9953765869140625,0.0081329345703125,-0.0172576904296875
1773798189427122000,13.893121826171875,-0.9958343505859375,0.0077667236328125,-0.0168609619140625
1773798189447088000,13.913088134765625,-0.995269775390625,0.009124755859375,-0.0169677734375
1773798189467055000,13.93305517578125,-0.9958648681640625,0.008392333984375,-0.0166168212890625
1773798189487021000,13.95302099609375,-0.99560546875,0.0088958740234375,-0.0184173583984375
1773798189506987000,13.972987060546876,-0.995819091796875,0.0082855224609375,-0.018402099609375
1773798189526954000,13.9929541015625,-0.9949493408203125,0.0085906982421875,-0.0163726806640625
1773798189546920000,14.012919921875,-0.99462890625,0.0081634521484375,-0.0167999267578125
1773798189566887000,14.032886962890625,-0.995391845703125,0.0089569091796875,-0.01702880859375
1773798189586852600,14.0528525390625,-0.99652099609375,0.01007080078125,-0.0180816650390625
1773798189606819300,14.0728193359375,-0.9953765869140625,0.0089263916015625,-0.01751708984375
1773798189626785500,14.09278564453125,-0.995635986328125,0.00848388671875,-0.01934814453125
1773798189646751500,14.11275146484375,-0.9948577880859375,0.00836181640625,-0.0172576904296875
1773798189666718500,14.132718505859375,-0.9943084716796875,0.00885009765625,-0.0171966552734375
1773798189686684400,14.152684326171874,-0.9960479736328125,0.00860595703125,-0.01690673828125
1773798189706651400,14.1726513671875,-0.995635986328125,0.008819580078125,-0.0169830322265625
1773798189726617600,14.19261767578125,-0.996826171875,0.008544921875,-0.0175323486328125
1773798189746584300,14.212584228515626,-0.9957427978515625,0.0104827880859375,-0.0175323486328125
1773798189766550500,14.232550537109375,-0.994659423828125,0.009552001953125,-0.0180816650390625
1773798189786517500,14.252517578125,-0.9957427978515625,0.0086517333984375,-0.01715087890625
1773798189806483500,14.2724833984375,-0.9958953857421875,0.008392333984375,-0.016876220703125
1773798189826449400,14.292449462890625,-0.9962615966796875,0.007781982421875,-0.01776123046875
1773798189846416400,14.31241650390625,-0.9951019287109375,0.009613037109375,-0.0175628662109375
1773798189866382600,14.332382568359375,-0.99432373046875,0.008270263671875,-0.01824951171875
1773798189886349300,14.352349365234375,-0.9954681396484375,0.0092926025390625,-0.018341064453125
1773798189906315500,14.3723154296875,-0.9957427978515625,0.009033203125,-0.0175323486328125
1773798189926281500,14.392281494140626,-0.995147705078125,0.009368896484375,-0.0171966552734375
1773798189946248400,14.41224853515625,-0.99639892578125,0.0081787109375,-0.0177459716796875
1773798189966214400,14.43221435546875,-0.995208740234375,0.0088348388671875,-0.01849365234375
1773798189986181400,14.452181396484375,-0.995819091796875,0.008392333984375,-0.018798828125
1773798190006147300,14.472147216796875,-0.9954681396484375,0.0091094970703125,-0.0183868408203125
1773798190026114600,14.492114501953125,-0.9947052001953125,0.0095977783203125,-0.016876220703125
1773798190046080500,14.51208056640625,-0.9959259033203125,0.0097198486328125,-0.0176239013671875
1773798190066046500,14.53204638671875,-0.9965057373046875,0.0088043212890625,-0.017333984375
1773798190086013400,14.552013427734375,-0.9962005615234375,0.009765625,-0.01727294921875
1773798190105979400,14.5719794921875,-0.99530029296875,0.009124755859375,-0.0191497802734375
1773798190125946600,14.591946533203124,-0.9958648681640625,0.009521484375,-0.0170135498046875
1773798190145912300,14.611912353515624,-0.9962615966796875,0.0093536376953125,-0.017425537109375
1773798190165878500,14.63187841796875,-0.9961090087890625,0.0090179443359375,-0.0180511474609375
1773798190185845200,14.65184521484375,-0.994903564453125,0.00927734375,-0.0180206298828125
1773798190205811500,14.6718115234375,-0.99542236328125,0.00909423828125,-0.016998291015625
1773798190225778700,14.69177880859375,-0.9959869384765625,0.0086212158203125,-0.01708984375
1773798190245744400,14.711744384765625,-0.99481201171875,0.00860595703125,-0.0182647705078125
1773798190265710600,14.731710693359375,-0.9964141845703125,0.0081939697265625,-0.0179595947265625
1773798190285677300,14.75167724609375,-0.995697021484375,0.0105133056640625,-0.0177154541015625
1773798190305643500,14.7716435546875,-0.9960174560546875,0.009552001953125,-0.018035888671875
1773798190325610500,14.791610595703125,-0.99591064453125,0.009185791015625,-0.0175933837890625
1773798190345576400,14.811576416015624,-0.994842529296875,0.008392333984375,-0.016693115234375
1773798190365542400,14.83154248046875,-0.9952392578125,0.00927734375,-0.0174713134765625
1773798190385509400,14.85150927734375,-0.996063232421875,0.00994873046875,-0.016754150390625
1773798190405475300,14.871475341796875,-0.99530029296875,0.0074462890625,-0.01800537109375
1773798190425441500,14.891441650390625,-0.9950408935546875,0.00958251953125,-0.0165252685546875
1773798190445408500,14.911408447265625,-0.995269775390625,0.00994873046875,-0.01788330078125
1773798190465374500,14.93137451171875,-0.994873046875,0.0090789794921875,-0.017303466796875
1773798190485341400,14.951341552734375,-0.9959716796875,0.009368896484375,-0.0181121826171875
1773798190505307400,14.971307373046875,-0.995452880859375,0.00775146484375,-0.016937255859375
1773798190525273600,14.991273681640624,-0.995513916015625,0.0081329345703125,-0.0176239013671875
1773798190545240300,15.011240234375,-0.9956207275390625,0.008880615234375,-0.0177154541015625
1773798190565206500,15.03120654296875,-0.994476318359375,0.009368896484375,-0.0185394287109375
1773798190585173500,15.051173583984376,-0.995208740234375,0.0088043212890625,-0.0177459716796875
1773798190605139500,15.071139404296876,-0.9947662353515625,0.008819580078125,-0.01776123046875
1773798190625105700,15.091105712890625,-0.996002197265625,0.009735107421875,-0.01678466796875
1773798190645072400,15.111072265625,-0.99603271484375,0.009429931640625,-0.01983642578125
1773798190665038600,15.13103857421875,-0.996124267578125,0.009613037109375,-0.01788330078125
1773798190685004500,15.151004638671875,-0.99530029296875,0.009033203125,-0.0183868408203125
1773798190704971500,15.170971435546875,-0.9959564208984375,0.008941650390625,-0.0173492431640625
1773798190724937500,15.1909375,-0.9946136474609375,0.0093536376953125,-0.0160064697265625
1773798190744904400,15.210904541015625,-0.9959564208984375,0.008758544921875,-0.017242431640625
1773798190764870700,15.23087060546875,-0.9964752197265625,0.008392333984375,-0.017181396484375
1773798190784836600,15.250836669921876,-0.9961395263671875,0.0085601806640625,-0.0166473388671875
1773798190804803600,15.270803466796876,-0.9942626953125,0.0089111328125,-0.01678466796875
1773798190824769500,15.29076953125,-0.9948883056640625,0.010894775390625,-0.0174407958984375
1773798190844735700,15.31073583984375,-0.9949951171875,0.009429931640625,-0.0170745849609375
1773798190864702500,15.330702392578125,-0.9955291748046875,0.008514404296875,-0.017730712890625
1773798190884668700,15.350668701171875,-0.995574951171875,0.0084381103515625,-0.0182952880859375
1773798190904634400,15.37063427734375,-0.99603271484375,0.0081329345703125,-0.01812744140625
1773798190924601600,15.3906015625,-0.995513916015625,0.0100250244140625,-0.0176849365234375
1773798190944567600,15.410567626953124,-0.9960174560546875,0.00970458984375,-0.0177001953125
1773798190964533500,15.430533447265624,-0.9960479736328125,0.0088043212890625,-0.0179595947265625
1773798190984500700,15.450500732421874,-0.9962615966796875,0.0082550048828125,-0.0176239013671875
1773798191004466400,15.470466552734376,-0.9941864013671875,0.00897216796875,-0.0164337158203125
1773798191024433700,15.49043359375,-0.9965362548828125,0.0078125,-0.01788330078125
1773798191044399600,15.510399658203125,-0.9963836669921875,0.00836181640625,-0.0176849365234375
1773798191064365600,15.530365478515625,-0.994842529296875,0.009002685546875,-0.01849365234375
1773798191084332500,15.55033251953125,-0.9967193603515625,0.0084228515625,-0.0179443359375
1773798191104298500,15.570298583984375,-0.9947357177734375,0.008758544921875,-0.016571044921875
1773798191124264400,15.590264404296875,-0.994598388671875,0.0089111328125,-0.016632080078125
1773798191144231700,15.610231689453125,-0.99554443359375,0.009063720703125,-0.0191650390625
1773798191164197400,15.630197265625,-0.994659423828125,0.0098419189453125,-0.0175628662109375
1773798191184163600,15.65016357421875,-0.9964599609375,0.0081024169921875,-0.016937255859375
1773798191204130300,15.67013037109375,-0.9963836669921875,0.008758544921875,-0.0171356201171875
1773798191224096500,15.690096435546875,-0.995208740234375,0.0099639892578125,-0.01806640625
1773798191244062500,15.7100625,-0.9957275390625,0.00927734375,-0.018157958984375
1773798191264029400,15.730029541015625,-0.99615478515625,0.0081024169921875,-0.0183563232421875
1773798191283995600,15.74999560546875,-0.9953155517578125,0.0088043212890625,-0.016937255859375
1773798191303961600,15.769961669921875,-0.9945526123046875,0.008758544921875,-0.01727294921875
1773798191323928600,15.789928466796875,-0.9942169189453125,0.009124755859375,-0.0172882080078125
1773798191343894500,15.80989453125,-0.99505615234375,0.008636474609375,-0.017120361328125
1773798191363860500,15.829860595703124,-0.9962005615234375,0.0094146728515625,-0.0179290771484375
1773798191383827500,15.849827392578124,-0.995941162109375,0.0095977783203125,-0.016693115234375
1773798191403793700,15.869793701171876,-0.9967041015625,0.00921630859375,-0.0191497802734375
1773798191423759400,15.88975927734375,-0.9955291748046875,0.010009765625,-0.01739501953125
1773798191443726600,15.9097265625,-0.9963226318359375,0.009796142578125,-0.01690673828125
1773798191463692500,15.929692626953125,-0.99530029296875,0.0096588134765625,-0.018341064453125
1773798191483658500,15.949658447265625,-0.9946746826171875,0.007720947265625,-0.0171966552734375
1773798191503625700,15.969625732421875,-0.9957733154296875,0.00909423828125,-0.0172576904296875
1773798191523591400,15.98959130859375,-0.9975738525390625,0.0095367431640625,-0.0162506103515625
1773798191543557600,16.0095576171875,-0.99444580078125,0.0083160400390625,-0.017608642578125
1773798191563524600,16.029524658203126,-0.9965972900390625,0.009033203125,-0.0173492431640625
1773798191583490800,16.04949072265625,-0.994903564453125,0.0099639892578125,-0.01715087890625
1773798191603457000,16.06945703125,-0.9968109130859375,0.00823974609375,-0.01824951171875
1773798191623423700,16.089423828125,-0.9955596923828125,0.009185791015625,-0.0164642333984375
1773798191643390000,16.109389892578125,-0.9951171875,0.00823974609375,-0.0173797607421875
1773798191663356000,16.12935595703125,-0.9959564208984375,0.00885009765625,-0.0174713134765625
1773798191683321900,16.14932177734375,-0.996490478515625,0.00927734375,-0.017822265625
1773798191703288800,16.169288818359377,-0.9947967529296875,0.0080718994140625,-0.0178070068359375
1773798191723255000,16.189255126953125,-0.9955902099609375,0.007904052734375,-0.0182647705078125
1773798191743220700,16.209220703125,-0.99639892578125,0.0091705322265625,-0.0178375244140625
1773798191763188000,16.22918798828125,-0.9962005615234375,0.0091705322265625,-0.017578125
1773798191783154000,16.24915380859375,-0.9954681396484375,0.0093231201171875,-0.0164031982421875
1773798191803119900,16.269119873046876,-0.996551513671875,0.0089569091796875,-0.018310546875
1773798191823087000,16.289087158203124,-0.99542236328125,0.0094146728515625,-0.017578125
1773798191843052800,16.309052734375,-0.994903564453125,0.009002685546875,-0.01776123046875
1773798191863019000,16.32901904296875,-0.9954376220703125,0.009002685546875,-0.017333984375
1773798191882985000,16.34898486328125,-0.9955291748046875,0.008758544921875,-0.01788330078125
1773798191902952000,16.368951904296875,-0.9963531494140625,0.008056640625,-0.0167083740234375
1773798191922918000,16.38891796875,-0.9952392578125,0.0095062255859375,-0.017425537109375
1773798191942884000,16.408884033203126,-0.9962005615234375,0.0078125,-0.0174407958984375
1773798191962850800,16.428850830078126,-0.995635986328125,0.0089569091796875,-0.01629638671875
1773798191982817000,16.448817138671874,-0.995513916015625,0.0091094970703125,-0.0169525146484375
1773798192002782700,16.46878271484375,-0.9965667724609375,0.00823974609375,-0.0179901123046875
1773798192022750000,16.48875,-0.996124267578125,0.00848388671875,-0.0171051025390625
1773798192042716000,16.5087158203125,-0.996185302734375,0.0092315673828125,-0.0172119140625
1773798192062681900,16.528681884765625,-0.9964447021484375,0.0089569091796875,-0.018218994140625
1773798192082647800,16.548647705078125,-0.9962310791015625,0.0081939697265625,-0.0183258056640625
1773798192102614800,16.56861474609375,-0.9955596923828125,0.007965087890625,-0.0171966552734375
1773798192122581000,16.5885810546875,-0.9960784912109375,0.009490966796875,-0.0182037353515625
1773798192142547000,16.608546875,-0.9961395263671875,0.007781982421875,-0.0180511474609375
1773798192162514000,16.628513916015624,-0.9954071044921875,0.0084686279296875,-0.01702880859375
1773798192182480000,16.64847998046875,-0.996490478515625,0.009033203125,-0.017120361328125
1773798192202446000,16.668446044921875,-0.994903564453125,0.009246826171875,-0.0186920166015625
1773798192222411800,16.688411865234375,-0.9957122802734375,0.00872802734375,-0.0168914794921875
1773798192242379000,16.70837890625,-0.9954071044921875,0.008331298828125,-0.01641845703125
1773798192262345000,16.728344970703127,-0.9969024658203125,0.008880615234375,-0.01715087890625
1773798192282311000,16.748310791015626,-0.9959716796875,0.008758544921875,-0.01702880859375
1773798192302278000,16.76827783203125,-0.9952392578125,0.0086822509765625,-0.0187225341796875
1773798192322243800,16.788243896484374,-0.99639892578125,0.0091400146484375,-0.0170745849609375
1773798192342209800,16.808209716796874,-0.994873046875,0.0086212158203125,-0.017913818359375
1773798192362176000,16.828176025390626,-0.9958038330078125,0.00860595703125,-0.017242431640625
1773798192382143000,16.84814306640625,-0.9950103759765625,0.0092620849609375,-0.0183563232421875
1773798192402109000,16.86810888671875,-0.9949188232421875,0.00982666015625,-0.017822265625
1773798192422075000,16.888074951171873,-0.9957427978515625,0.0081329345703125,-0.0180816650390625
1773798192442040800,16.908040771484377,-0.9951019287109375,0.0089111328125,-0.0172882080078125
1773798192462008000,16.928008056640625,-0.9971923828125,0.0096282958984375,-0.017242431640625
1773798192481973800,16.947973876953125,-0.9956512451171875,0.009063720703125,-0.0175628662109375
1773798192501940000,16.96793994140625,-0.9959869384765625,0.00897216796875,-0.0177154541015625
1773798192521907000,16.987906982421876,-0.996612548828125,0.00787353515625,-0.017242431640625
1773798192541873000,17.007872802734376,-0.996490478515625,0.00927734375,-0.0171356201171875
1773798192561838800,17.0278388671875,-0.9974517822265625,0.008697509765625,-0.017852783203125
1773798192581804800,17.0478046875,-0.9957122802734375,0.0089874267578125,-0.0177154541015625
1773798192601771800,17.067771728515623,-0.9965057373046875,0.008148193359375,-0.0183563232421875
1773798192621737700,17.08773779296875,-0.9961395263671875,0.0089111328125,-0.0180511474609375
1773798192641704000,17.107703857421875,-0.9949798583984375,0.0079803466796875,-0.01837158203125
1773798192661669600,17.127669677734374,-0.9941864013671875,0.009552001953125,-0.016357421875
1773798192681636900,17.147636962890626,-0.9958953857421875,0.00933837890625,-0.017791748046875
1773798192701602800,17.167602783203126,-0.995574951171875,0.0084381103515625,-0.0179443359375
1773798192721568800,17.18756884765625,-0.9962005615234375,0.0091400146484375,-0.016357421875
1773798192741535700,17.20753564453125,-0.99603271484375,0.00830078125,-0.016387939453125
1773798192761501700,17.227501708984374,-0.9958953857421875,0.0086517333984375,-0.0176849365234375
1773798192781467600,17.247467529296873,-0.9974212646484375,0.0081329345703125,-0.017425537109375
1773798192801433900,17.267433837890625,-0.9959259033203125,0.0085296630859375,-0.0189971923828125
1773798192821400800,17.28740087890625,-0.9951629638671875,0.0078887939453125,-0.017822265625
1773798192841366800,17.30736669921875,-0.99517822265625,0.008392333984375,-0.017120361328125
1773798192861333000,17.3273330078125,-0.9963531494140625,0.0085906982421875,-0.0172119140625
1773798192881298700,17.347298583984376,-0.9965362548828125,0.0092926025390625,-0.01763916015625
1773798192901266000,17.367265869140624,-0.9957733154296875,0.0080718994140625,-0.01806640625
1773798192921232000,17.38723193359375,-0.9951324462890625,0.0084381103515625,-0.0176544189453125
1773798192941197800,17.40719775390625,-0.994476318359375,0.0078582763671875,-0.0169830322265625
1773798192961163800,17.427163818359375,-0.9967193603515625,0.00860595703125,-0.016937255859375
1773798192981130800,17.447130859375,-0.9954833984375,0.0094451904296875,-0.0172271728515625
1773798193001096700,17.4670966796875,-0.9960174560546875,0.0089263916015625,-0.0180206298828125
1773798193021063000,17.48706298828125,-0.99609375,0.0092010498046875,-0.0165863037109375
1773798193041028900,17.50702880859375,-0.9955596923828125,0.00897216796875,-0.0178680419921875
1773798193060995800,17.526995849609374,-0.9958953857421875,0.008575439453125,-0.0175628662109375
1773798193080961800,17.5469619140625,-0.995849609375,0.0082244873046875,-0.0175323486328125
1773798193100927700,17.566927734375,-0.996246337890625,0.0102081298828125,-0.0184173583984375
1773798193120893700,17.586893798828125,-0.9963836669921875,0.009521484375,-0.017852783203125
1773798193140860700,17.606860595703125,-0.996795654296875,0.0100555419921875,-0.017547607421875
1773798193160826600,17.62682666015625,-0.9963226318359375,0.0094451904296875,-0.0167694091796875
1773798193180792800,17.646792724609377,-0.99560546875,0.0090179443359375,-0.0186309814453125
1773798193200758800,17.6667587890625,-0.9947357177734375,0.008331298828125,-0.01702880859375
1773798193220725800,17.686725830078124,-0.995025634765625,0.009765625,-0.0183258056640625
1773798193240691700,17.706691650390624,-0.9957427978515625,0.0089111328125,-0.0171051025390625
1773798193260657700,17.72665771484375,-0.9957427978515625,0.0083465576171875,-0.0169219970703125
1773798193280623600,17.74662353515625,-0.995330810546875,0.007476806640625,-0.017608642578125
1773798193300590800,17.7665908203125,-0.9963836669921875,0.008941650390625,-0.0181732177734375
1773798193320556800,17.786556884765623,-0.99456787109375,0.00860595703125,-0.0173187255859375
1773798193340522800,17.806522705078127,-0.9951171875,0.0091552734375,-0.017547607421875
1773798193360489000,17.826489013671875,-0.9960174560546875,0.008758544921875,-0.0168304443359375
1773798193380455700,17.84645556640625,-0.997039794921875,0.0089874267578125,-0.0179443359375
1773798193400422000,17.866421875,-0.995941162109375,0.009185791015625,-0.0178070068359375
1773798193420387800,17.886387939453126,-0.99462890625,0.00921630859375,-0.01837158203125
1773798193440353800,17.906353759765626,-0.996826171875,0.008575439453125,-0.0181884765625
1773798193460320800,17.92632080078125,-0.995147705078125,0.0087127685546875,-0.01727294921875
1773798193480286700,17.94628662109375,-0.9954681396484375,0.0092926025390625,-0.0180816650390625
1773798193500252700,17.966252685546873,-0.996307373046875,0.0084991455078125,-0.0171356201171875
1773798193520219000,17.986218994140625,-0.99700927734375,0.008544921875,-0.01812744140625
1773798193540184800,18.006184814453125,-0.9964752197265625,0.0092315673828125,-0.0176544189453125
1773798193560151800,18.02615185546875,-0.9957733154296875,0.0093231201171875,-0.0174713134765625
1773798193580118000,18.046117919921876,-0.9951019287109375,0.0082855224609375,-0.0174102783203125
1773798193600083700,18.066083740234376,-0.9941253662109375,0.008941650390625,-0.0182037353515625
1773798193620050000,18.0860498046875,-0.9961090087890625,0.0082855224609375,-0.0180511474609375
1773798193640017000,18.106016845703124,-0.9952850341796875,0.0093994140625,-0.016693115234375
1773798193659982800,18.12598291015625,-0.9958343505859375,0.0092926025390625,-0.0168304443359375
1773798193679948800,18.14594873046875,-0.9964447021484375,0.00897216796875,-0.0171966552734375
1773798193699915000,18.1659150390625,-0.99505615234375,0.00909423828125,-0.017059326171875
1773798193719881700,18.1858818359375,-0.996002197265625,0.0086212158203125,-0.01800537109375
1773798193739848000,18.205847900390626,-0.995208740234375,0.008087158203125,-0.017486572265625
1773798193759814000,18.22581396484375,-0.9944915771484375,0.0079345703125,-0.017608642578125
1773798193779779800,18.24577978515625,-0.9968414306640625,0.0082550048828125,-0.0175933837890625
1773798193799745800,18.265745849609374,-0.9964141845703125,0.008941650390625,-0.0175018310546875
1773798193819712800,18.285712646484374,-0.9954986572265625,0.00927734375,-0.0167694091796875
1773798193839678700,18.3056787109375,-0.9954986572265625,0.008087158203125,-0.0173797607421875
1773798193859645000,18.32564501953125,-0.9950103759765625,0.00946044921875,-0.01678466796875
1773798193879611000,18.34561083984375,-0.996795654296875,0.009613037109375,-0.01708984375
1773798193899577900,18.365577880859377,-0.9960479736328125,0.007659912109375,-0.0153961181640625
1773798193919543800,18.385543701171876,-0.9956207275390625,0.009002685546875,-0.016204833984375
1773798193939509800,18.405509765625,-0.996734619140625,0.008270263671875,-0.0178985595703125
1773798193959475700,18.425475830078124,-0.9969635009765625,0.0092010498046875,-0.0174407958984375
1773798193979442000,18.44544189453125,-0.9964447021484375,0.0088348388671875,-0.018402099609375
1773798193999409000,18.465408935546876,-0.99566650390625,0.0084228515625,-0.0179290771484375
1773798194019374800,18.485374755859375,-0.9958038330078125,0.008636474609375,-0.0178375244140625
1773798194039341000,18.505341064453123,-0.9958038330078125,0.0088348388671875,-0.0159912109375
1773798194059306800,18.525306640625,-0.9958343505859375,0.0089263916015625,-0.01727294921875
1773798194079274000,18.54527392578125,-0.99554443359375,0.0095672607421875,-0.017730712890625
1773798194099240000,18.565239990234375,-0.9958038330078125,0.0087890625,-0.017578125
1773798194119206000,18.585205810546874,-0.99700927734375,0.0085296630859375,-0.0174102783203125
1773798194139171800,18.605171875,-0.9957122802734375,0.0093231201171875,-0.0169677734375
1773798194159138000,18.625137939453126,-0.9952545166015625,0.008758544921875,-0.0180816650390625
1773798194179104800,18.645104736328125,-0.9958038330078125,0.0083465576171875,-0.01751708984375
1773798194199071000,18.665071044921874,-0.9942779541015625,0.009521484375,-0.0164337158203125
1773798194219037000,18.685036865234373,-0.995361328125,0.0093841552734375,-0.0178375244140625
1773798194239003000,18.7050029296875,-0.995941162109375,0.0087890625,-0.01751708984375
1773798194258968800,18.72496875,-0.9959564208984375,0.0087432861328125,-0.0182342529296875
1773798194278935800,18.744935791015624,-0.995635986328125,0.0082244873046875,-0.0165863037109375
1773798194298901800,18.76490185546875,-0.995452880859375,0.0074462890625,-0.0186614990234375
1773798194318868000,18.784867919921876,-0.9947357177734375,0.008819580078125,-0.018035888671875
1773798194338834000,18.804833984375,-0.9967803955078125,0.0085601806640625,-0.0178680419921875
1773798194358800000,18.8247998046875,-0.9959869384765625,0.008209228515625,-0.016815185546875
1773798194378766800,18.844766845703123,-0.996917724609375,0.0092926025390625,-0.018157958984375
1773798194398732800,18.86473291015625,-0.99566650390625,0.0088653564453125,-0.0179901123046875
1773798194418698800,18.88469873046875,-0.994598388671875,0.0100250244140625,-0.0180511474609375
1773798194438665000,18.9046650390625,-0.99517822265625,0.00933837890625,-0.0171661376953125
1773798194458631000,18.924630859375,-0.995941162109375,0.01019287109375,-0.0172271728515625
1773798194478598000,18.944597900390626,-0.9959716796875,0.0091400146484375,-0.017425537109375
1773798194498563800,18.964563720703126,-0.994598388671875,0.0079498291015625,-0.017608642578125
1773798194518529800,18.98452978515625,-0.996429443359375,0.00994873046875,-0.01812744140625
1773798194538495700,19.004495849609373,-0.99456787109375,0.007965087890625,-0.01605224609375
1773798194558462000,19.0244619140625,-0.996337890625,0.009246826171875,-0.0181732177734375
1773798194578428700,19.0444287109375,-0.996551513671875,0.0079498291015625,-0.01666259765625
1773798194598394400,19.064394287109376,-0.9949493408203125,0.009674072265625,-0.01824951171875
1773798194618360300,19.0843603515625,-0.9951171875,0.00872802734375,-0.01617431640625
1773798194638326500,19.104326416015624,-0.9956817626953125,0.009857177734375,-0.018280029296875
1773798194658292200,19.124292236328124,-0.9960174560546875,0.0094146728515625,-0.017120361328125
1773798194678259500,19.144259521484376,-0.997833251953125,0.0100860595703125,-0.0171356201171875
1773798194698225200,19.16422509765625,-0.99627685546875,0.00860595703125,-0.0183563232421875
1773798194718191400,19.18419140625,-0.9967193603515625,0.0076751708984375,-0.017791748046875
1773798194738157300,19.2041572265625,-0.996490478515625,0.007965087890625,-0.0171661376953125
1773798194758123500,19.22412353515625,-0.9963836669921875,0.0091094970703125,-0.0178680419921875
1773798194778090500,19.244090576171875,-0.9967498779296875,0.00921630859375,-0.0177764892578125
1773798194798056400,19.264056396484374,-0.99456787109375,0.0086212158203125,-0.01690673828125
1773798194818022100,19.284022216796874,-0.9940643310546875,0.0088653564453125,-0.017303466796875
1773798194837988400,19.30398828125,-0.997314453125,0.009246826171875,-0.0177459716796875
1773798194857954300,19.323954345703125,-0.99493408203125,0.0085296630859375,-0.0169677734375
1773798194877920500,19.34392041015625,-0.99456787109375,0.0085296630859375,-0.0171356201171875
1773798194897887500,19.363887451171873,-0.9967803955078125,0.00762939453125,-0.0184783935546875
1773798194917853400,19.383853515625,-0.9938201904296875,0.0098114013671875,-0.0170745849609375
1773798194937819100,19.403819091796876,-0.9967803955078125,0.0070953369140625,-0.0169677734375
1773798194957785300,19.423785400390624,-0.9970703125,0.009246826171875,-0.0174713134765625
1773798194977751300,19.443751220703124,-0.994720458984375,0.0078582763671875,-0.0175018310546875
1773798194997718300,19.46371826171875,-0.994720458984375,0.0086669921875,-0.01690673828125
1773798195017684500,19.4836845703125,-0.995452880859375,0.0081787109375,-0.0168914794921875
1773798195037650400,19.503650390625,-0.9959716796875,0.0089874267578125,-0.0176849365234375
1773798195057616400,19.523616455078123,-0.9946746826171875,0.0101776123046875,-0.0168914794921875
1773798195077582300,19.543582275390627,-0.9954833984375,0.009002685546875,-0.017486572265625
1773798195097548300,19.56354833984375,-0.9954376220703125,0.009368896484375,-0.0171661376953125
1773798195117515300,19.583515380859374,-0.995819091796875,0.008819580078125,-0.01690673828125
1773798195137481500,19.6034814453125,-0.9952239990234375,0.0087432861328125,-0.017120361328125
1773798195157447400,19.623447509765626,-0.9965057373046875,0.009552001953125,-0.017791748046875
1773798195177413400,19.643413330078126,-0.995086669921875,0.0084075927734375,-0.016387939453125
1773798195197379300,19.66337939453125,-0.9962615966796875,0.008392333984375,-0.016998291015625
1773798195217345500,19.683345458984373,-0.9952545166015625,0.0101470947265625,-0.0177764892578125
1773798195237312300,19.703312255859377,-0.9953155517578125,0.0084228515625,-0.0166473388671875
1773798195257278500,19.723278564453125,-0.99591064453125,0.0081329345703125,-0.017425537109375
1773798195277244400,19.743244384765624,-0.9951934814453125,0.0093841552734375,-0.0168304443359375
1773798195297210400,19.76321044921875,-0.995086669921875,0.0077972412109375,-0.017791748046875
1773798195317176300,19.78317626953125,-0.99560546875,0.0101776123046875,-0.01715087890625
1773798195337142500,19.803142578125,-0.9956512451171875,0.0090789794921875,-0.0166778564453125
1773798195357109200,19.823109130859375,-0.99700927734375,0.0075836181640625,-0.0183258056640625
1773798195377075500,19.843075439453123,-0.9958343505859375,0.00921630859375,-0.016448974609375
1773798195397041400,19.86304150390625,-0.99566650390625,0.009429931640625,-0.016845703125
1773798195417007400,19.88300732421875,-0.9961395263671875,0.0088348388671875,-0.01800537109375
1773798195436973300,19.902973388671874,-0.9970245361328125,0.0082244873046875,-0.017364501953125
1773798195456939500,19.922939453125,-0.9953460693359375,0.008026123046875,-0.016357421875
1773798195476906200,19.94290625,-0.9953765869140625,0.0085601806640625,-0.016815185546875
1773798195496872400,19.96287255859375,-0.99652099609375,0.0091552734375,-0.0164794921875
1773798195516838400,19.98283837890625,-0.9951171875,0.0086669921875,-0.017333984375
1773798195536804400,20.002804443359373,-0.9960784912109375,0.0092010498046875,-0.0175933837890625
1773798195556770300,20.022770263671877,-0.9951934814453125,0.0089569091796875,-0.0171356201171875
1773798195576736500,20.042736572265625,-0.99505615234375,0.00872802734375,-0.01763916015625
1773798195596703700,20.062703857421877,-0.99468994140625,0.0097198486328125,-0.018035888671875
1773798195616670000,20.082669921875,-0.99517822265625,0.0087890625,-0.01690673828125
1773798195636636000,20.102635986328124,-0.995941162109375,0.0087738037109375,-0.0167694091796875
1773798195656601900,20.122601806640624,-0.9963226318359375,0.0083465576171875,-0.017547607421875
1773798195676567800,20.14256787109375,-0.9962158203125,0.0082855224609375,-0.0172882080078125
1773798195696534000,20.162533935546875,-0.99517822265625,0.0083465576171875,-0.0192413330078125
1773798195716500700,20.182500732421875,-0.996734619140625,0.0099029541015625,-0.0167999267578125
1773798195736467000,20.202467041015623,-0.995147705078125,0.008575439453125,-0.0178985595703125
1773798195756433000,20.222432861328127,-0.997467041015625,0.0083160400390625,-0.017913818359375
1773798195776398800,20.24239892578125,-0.995880126953125,0.00909423828125,-0.0176239013671875
1773798195796364800,20.26236474609375,-0.99652099609375,0.0092620849609375,-0.0178070068359375
1773798195816331000,20.2823310546875,-0.9964752197265625,0.008331298828125,-0.01806640625
1773798195836296700,20.302296630859374,-0.9965057373046875,0.00836181640625,-0.0174102783203125
1773798195856264000,20.322263916015626,-0.9956207275390625,0.00958251953125,-0.0175933837890625
1773798195876230000,20.34222998046875,-0.9965667724609375,0.0080108642578125,-0.016357421875
1773798195896195800,20.36219580078125,-0.995574951171875,0.0079345703125,-0.01861572265625
1773798195916161800,20.382161865234377,-0.9963836669921875,0.009185791015625,-0.0173187255859375
1773798195936128000,20.4021279296875,-0.9958343505859375,0.008392333984375,-0.018463134765625
1773798195956093700,20.42209375,-0.9944305419921875,0.00921630859375,-0.0177764892578125
1773798195976060000,20.442059814453124,-0.99615478515625,0.0081024169921875,-0.0168914794921875
1773798195996027000,20.46202685546875,-0.99578857421875,0.0092315673828125,-0.0183563232421875
1773798196015992800,20.481992919921876,-0.9958343505859375,0.00848388671875,-0.018310546875
1773798196035958800,20.501958740234375,-0.996917724609375,0.007965087890625,-0.0171661376953125
1773798196055925000,20.521925048828123,-0.99578857421875,0.0092010498046875,-0.0183258056640625
1773798196075890700,20.541890625,-0.996307373046875,0.0098114013671875,-0.017730712890625
1773798196095857000,20.56185693359375,-0.9962615966796875,0.0085906982421875,-0.017669677734375
1773798196115822800,20.58182275390625,-0.9958038330078125,0.0095672607421875,-0.0185546875
1773798196135789800,20.601789794921874,-0.9958953857421875,0.0087890625,-0.0171966552734375
1773798196155755800,20.621755859375,-0.99627685546875,0.0092926025390625,-0.0171661376953125
1773798196175722000,20.641721923828126,-0.9941864013671875,0.0089263916015625,-0.0174560546875
1773798196195687700,20.661687744140625,-0.9955596923828125,0.009613037109375,-0.017120361328125
1773798196215654000,20.68165380859375,-0.9939117431640625,0.0081939697265625,-0.0186614990234375
1773798196235619800,20.701619873046877,-0.9963226318359375,0.009765625,-0.0170745849609375
1773798196255585800,20.721585693359376,-0.9965667724609375,0.009124755859375,-0.016845703125
1773798196275552800,20.741552734375,-0.994781494140625,0.00946044921875,-0.018341064453125
1773798196295519000,20.76151904296875,-0.9961090087890625,0.009613037109375,-0.0167694091796875
1773798196315484700,20.781484619140624,-0.9961395263671875,0.0087890625,-0.01751708984375
1773798196335451000,20.801450927734376,-0.9955902099609375,0.009246826171875,-0.0176239013671875
1773798196355416800,20.821416748046875,-0.9956512451171875,0.00927734375,-0.0183258056640625
1773798196375382800,20.8413828125,-0.995758056640625,0.0096588134765625,-0.0174560546875
1773798196395348700,20.8613486328125,-0.9965057373046875,0.0084991455078125,-0.01812744140625
1773798196415315000,20.88131494140625,-0.994476318359375,0.0084686279296875,-0.017120361328125
1773798196435281700,20.90128173828125,-0.99700927734375,0.0091094970703125,-0.0175018310546875
1773798196455248000,20.921247802734374,-0.9954071044921875,0.0097503662109375,-0.0175628662109375
1773798196475213800,20.9412138671875,-0.9957275390625,0.008697509765625,-0.0177459716796875
1773798196495179800,20.9611796875,-0.9948272705078125,0.0093994140625,-0.01708984375
1773798196515145700,20.981145751953125,-0.993988037109375,0.008514404296875,-0.016021728515625
1773798196535112000,21.00111181640625,-0.9944610595703125,0.00823974609375,-0.0167694091796875
1773798196555078000,21.021077880859377,-0.9951629638671875,0.0090789794921875,-0.0182647705078125
1773798196575043800,21.0410439453125,-0.9964599609375,0.008819580078125,-0.016998291015625
1773798196595010800,21.0610107421875,-0.9956817626953125,0.009033203125,-0.01885986328125
1773798196614976800,21.080976806640624,-0.9973297119140625,0.0091400146484375,-0.0166778564453125
1773798196634942700,21.100942626953124,-0.9974365234375,0.0085601806640625,-0.017578125
1773798196654909000,21.120908935546876,-0.994873046875,0.0090179443359375,-0.0167999267578125
1773798196674875000,21.140875,-0.99627685546875,0.0083770751953125,-0.0175933837890625
1773798196694840800,21.1608408203125,-0.996002197265625,0.0085296630859375,-0.0179443359375
1773798196714806800,21.180806884765627,-0.9961700439453125,0.0090179443359375,-0.018280029296875
1773798196734773000,21.20077294921875,-0.996124267578125,0.0104522705078125,-0.0181732177734375
1773798196754738700,21.22073876953125,-0.9958648681640625,0.00885009765625,-0.01812744140625
1773798196774706000,21.240705810546874,-0.9962158203125,0.0086517333984375,-0.017730712890625
1773798196794671900,21.260671875,-0.99566650390625,0.009033203125,-0.017974853515625
1773798196814637800,21.280637939453126,-0.9960479736328125,0.0083465576171875,-0.0179443359375
1773798196834603800,21.300603759765625,-0.9962615966796875,0.00927734375,-0.0174713134765625
1773798196854570000,21.320570068359373,-0.99664306640625,0.0085601806640625,-0.018218994140625
1773798196874535700,21.34053564453125,-0.9958648681640625,0.008514404296875,-0.0182952880859375
1773798196894502000,21.360501953125,-0.9955291748046875,0.0087890625,-0.0173187255859375
1773798196914467800,21.3804677734375,-0.9953155517578125,0.008941650390625,-0.0180816650390625
1773798196934434000,21.40043408203125,-0.9946746826171875,0.0085296630859375,-0.016845703125
1773798196954400800,21.42040087890625,-0.9965667724609375,0.009124755859375,-0.0185089111328125
1773798196974367000,21.440366943359376,-0.9964599609375,0.009796142578125,-0.0174102783203125
1773798196994332700,21.460332763671875,-0.9955596923828125,0.008392333984375,-0.0174102783203125
1773798197014299000,21.480298828125,-0.99566650390625,0.0088653564453125,-0.01812744140625
1773798197034264800,21.500264892578127,-0.996551513671875,0.0092010498046875,-0.0177154541015625
1773798197054231000,21.52023095703125,-0.996246337890625,0.008819580078125,-0.0171051025390625
1773798197074196700,21.54019677734375,-0.9958648681640625,0.0096435546875,-0.017547607421875
1773798197094163000,21.560162841796874,-0.994598388671875,0.009521484375,-0.0169677734375
1773798197114129000,21.58012890625,-0.995269775390625,0.0086212158203125,-0.0177001953125
1773798197134094800,21.6000947265625,-0.994781494140625,0.0092315673828125,-0.01715087890625
1773798197154061800,21.620061767578125,-0.996795654296875,0.008209228515625,-0.0175628662109375
1773798197174028000,21.640028076171873,-0.996551513671875,0.008575439453125,-0.0168914794921875
1773798197193993700,21.65999365234375,-0.9949951171875,0.0080108642578125,-0.017242431640625
1773798197213960000,21.6799599609375,-0.9964599609375,0.0083160400390625,-0.016632080078125
1773798197233926000,21.69992578125,-0.9958343505859375,0.009307861328125,-0.0187835693359375
1773798197253891800,21.719891845703124,-0.9959716796875,0.00830078125,-0.0181732177734375
1773798197273857800,21.73985791015625,-0.996978759765625,0.0092315673828125,-0.0182342529296875
1773798197293824000,21.759823974609375,-0.9956207275390625,0.008544921875,-0.0172271728515625
1773798197313790000,21.7797900390625,-0.9947967529296875,0.0094146728515625,-0.0177764892578125
1773798197333757000,21.7997568359375,-0.9966888427734375,0.00860595703125,-0.0165252685546875
1773798197353723000,21.819722900390627,-0.99615478515625,0.0084686279296875,-0.0180816650390625
1773798197373688800,21.839688720703126,-0.996124267578125,0.0094451904296875,-0.0190277099609375
1773798197393654800,21.85965478515625,-0.9941253662109375,0.00830078125,-0.0185394287109375
1773798197413621000,21.87962109375,-0.99578857421875,0.009124755859375,-0.017578125
1773798197433587000,21.8995869140625,-0.99530029296875,0.0090179443359375,-0.01739501953125
1773798197453553000,21.919552978515625,-0.996429443359375,0.008575439453125,-0.0173187255859375
1773798197473518800,21.939518798828125,-0.9954681396484375,0.0098114013671875,-0.018280029296875
1773798197493485000,21.959485107421877,-0.9964447021484375,0.0078582763671875,-0.016998291015625
1773798197513450800,21.97945068359375,-0.997314453125,0.0093231201171875,-0.016204833984375
1773798197533416700,21.999416748046876,-0.9939727783203125,0.00830078125,-0.0171356201171875
1773798197553383000,22.0193828125,-0.99578857421875,0.009429931640625,-0.017547607421875
1773798197573350000,22.039349853515624,-0.9958648681640625,0.0092010498046875,-0.016693115234375
1773798197593315800,22.05931591796875,-0.996978759765625,0.0089111328125,-0.0176849365234375
1773798197613282000,22.079281982421875,-0.995269775390625,0.0082244873046875,-0.0174102783203125
1773798197633247700,22.099247802734375,-0.9957733154296875,0.0091400146484375,-0.0181884765625
1773798197653214000,22.1192138671875,-0.995819091796875,0.0078277587890625,-0.01715087890625
1773798197673180000,22.139179931640626,-0.9967041015625,0.0091552734375,-0.018524169921875
1773798197693146000,22.15914599609375,-0.9953155517578125,0.0089569091796875,-0.01593017578125
1773798197713111800,22.17911181640625,-0.99755859375,0.0071563720703125,-0.0172119140625
1773798197733078000,22.199078125,-0.9963836669921875,0.0091705322265625,-0.0171966552734375
1773798197753044000,22.2190439453125,-0.996429443359375,0.008697509765625,-0.017974853515625
1773798197773010000,22.239010009765625,-0.997161865234375,0.008819580078125,-0.0169830322265625
1773798197792976000,22.258975830078125,-0.994903564453125,0.00799560546875,-0.01715087890625
1773798197812941800,22.27894189453125,-0.994293212890625,0.009307861328125,-0.0180816650390625
1773798197832908800,22.29890869140625,-0.9970855712890625,0.0084381103515625,-0.0167999267578125
1773798197852875000,22.318875,-0.99493408203125,0.008270263671875,-0.0170135498046875
1773798197872841000,22.338841064453124,-0.9944000244140625,0.008758544921875,-0.017578125
1773798197892807000,22.358806884765624,-0.997100830078125,0.0084686279296875,-0.0171661376953125
1773798197912772900,22.37877294921875,-0.9970703125,0.0077056884765625,-0.0184783935546875
1773798197932739000,22.398739013671875,-0.996307373046875,0.0096588134765625,-0.016693115234375
1773798197952705000,22.418705078125,-0.995574951171875,0.0085296630859375,-0.017974853515625
1773798197972670700,22.438670654296875,-0.99554443359375,0.009613037109375,-0.017181396484375
1773798197992637000,22.458636962890626,-0.995513916015625,0.0089874267578125,-0.017608642578125
1773798198012603000,22.478602783203126,-0.9955902099609375,0.0080413818359375,-0.019073486328125
1773798198032568800,22.49856884765625,-0.9973297119140625,0.00982666015625,-0.0174102783203125
1773798198052534800,22.51853466796875,-0.9961700439453125,0.0098724365234375,-0.01824951171875
1773798198072501000,22.5385009765625,-0.9965362548828125,0.00909423828125,-0.0182342529296875
1773798198092467000,22.558467041015625,-0.9942169189453125,0.0098724365234375,-0.0169677734375
1773798198112433000,22.578432861328125,-0.9951629638671875,0.0084381103515625,-0.017578125
1773798198132398800,22.59839892578125,-0.99603271484375,0.0081787109375,-0.016998291015625
1773798198152365800,22.61836572265625,-0.9948272705078125,0.0086212158203125,-0.0168304443359375
1773798198172331800,22.638331787109376,-0.996246337890625,0.008636474609375,-0.01849365234375
1773798198192298000,22.658298095703124,-0.9956207275390625,0.0089263916015625,-0.017120361328125
1773798198212264000,22.678263916015624,-0.9954986572265625,0.010162353515625,-0.0170135498046875
1773798198232230000,22.69822998046875,-0.9959716796875,0.0095672607421875,-0.0177764892578125
1773798198252195800,22.71819580078125,-0.99530029296875,0.0091705322265625,-0.017303466796875
1773798198272162000,22.738162109375,-0.99627685546875,0.0094757080078125,-0.01788330078125
1773798198292127700,22.758127685546874,-0.9958343505859375,0.009552001953125,-0.0179290771484375
1773798198312094000,22.778093994140626,-0.9959716796875,0.00970458984375,-0.017242431640625
1773798198332060000,22.798059814453126,-0.996307373046875,0.0097198486328125,-0.01708984375
1773798198352026000,22.818026123046874,-0.9944305419921875,0.00799560546875,-0.0172271728515625
1773798198371991800,22.83799169921875,-0.996429443359375,0.00885009765625,-0.0175628662109375
1773798198391958000,22.8579580078125,-0.9958038330078125,0.008819580078125,-0.017669677734375
1773798198411924000,22.877924072265625,-0.9959716796875,0.0089874267578125,-0.01708984375
1773798198431890000,22.897889892578124,-0.9952392578125,0.00958251953125,-0.01715087890625
1773798198451856000,22.91785595703125,-0.9963836669921875,0.0084686279296875,-0.016693115234375
1773798198471821800,22.93782177734375,-0.9953765869140625,0.0087890625,-0.01727294921875
1773798198491788000,22.9577880859375,-0.99688720703125,0.0101318359375,-0.017669677734375
1773798198511753700,22.977753662109375,-0.9967041015625,0.008453369140625,-0.016143798828125
1773798198531721000,22.997720947265623,-0.99627685546875,0.008819580078125,-0.0170745849609375
1773798198551687000,23.01768701171875,-0.9946136474609375,0.009185791015625,-0.0166168212890625
1773798198571652900,23.03765283203125,-0.99481201171875,0.0086212158203125,-0.017547607421875
1773798198591619300,23.057619384765626,-0.9939727783203125,0.0092315673828125,-0.0172576904296875
1773798198611585300,23.077585205078126,-0.9956512451171875,0.009918212890625,-0.019012451171875
1773798198631551200,23.09755126953125,-0.996337890625,0.0080108642578125,-0.0179443359375
1773798198651517400,23.117517333984374,-0.994873046875,0.008697509765625,-0.0184478759765625
1773798198671483400,23.1374833984375,-0.99481201171875,0.0085296630859375,-0.016754150390625
1773798198691449300,23.157449462890625,-0.9956207275390625,0.00933837890625,-0.0188446044921875
1773798198711415300,23.177415283203125,-0.99554443359375,0.0093994140625,-0.0176239013671875
1773798198731381500,23.197381591796876,-0.9962615966796875,0.0096282958984375,-0.0180511474609375
1773798198751347200,23.21734716796875,-0.9962615966796875,0.0084228515625,-0.0170440673828125
1773798198771313400,23.2373134765625,-0.995635986328125,0.0093841552734375,-0.017333984375
1773798198791279400,23.257279296875,-0.9958953857421875,0.0090484619140625,-0.0174407958984375
1773798198811245600,23.27724560546875,-0.995941162109375,0.008819580078125,-0.018341064453125
1773798198831211300,23.297211181640623,-0.994537353515625,0.0098724365234375,-0.0174102783203125
1773798198851177500,23.317177490234375,-0.9961700439453125,0.0090789794921875,-0.0166473388671875
1773798198871143400,23.337143310546875,-0.996185302734375,0.008636474609375,-0.0178985595703125
1773798198891109400,23.357109375,-0.9946746826171875,0.008331298828125,-0.0166015625
1773798198911075300,23.377075439453126,-0.994903564453125,0.009124755859375,-0.01715087890625
1773798198931041500,23.39704150390625,-0.995758056640625,0.00848388671875,-0.01751708984375
1773798198951007500,23.417007568359374,-0.995941162109375,0.0083770751953125,-0.018096923828125
1773798198970973200,23.43697314453125,-0.9944000244140625,0.0093231201171875,-0.017059326171875
1773798198990939400,23.456939453125,-0.99591064453125,0.0079498291015625,-0.0178070068359375
1773798199010905300,23.4769052734375,-0.99609375,0.0073089599609375,-0.0181121826171875
1773798199030871300,23.496871337890624,-0.9955596923828125,0.008514404296875,-0.0167083740234375
1773798199050837200,23.516837158203124,-0.9954986572265625,0.0084686279296875,-0.0178375244140625
1773798199070803500,23.536803466796876,-0.9948577880859375,0.0077667236328125,-0.0174713134765625
1773798199090770200,23.556770263671876,-0.996429443359375,0.0087890625,-0.0166168212890625
1773798199110736400,23.576736328125,-0.99609375,0.008697509765625,-0.0177001953125
1773798199130702300,23.596702392578123,-0.9962921142578125,0.009124755859375,-0.017120361328125
1773798199150668300,23.616668212890627,-0.9957733154296875,0.009033203125,-0.0171051025390625
1773798199170634200,23.63663427734375,-0.994964599609375,0.0087127685546875,-0.0168914794921875
1773798199190600400,23.656600341796874,-0.9951934814453125,0.00830078125,-0.01861572265625
1773798199210566400,23.67656640625,-0.9949951171875,0.0083770751953125,-0.016510009765625
1773798199230532400,23.696532470703126,-0.9965362548828125,0.0097198486328125,-0.01666259765625
1773798199250498300,23.716498291015625,-0.996490478515625,0.00946044921875,-0.0168609619140625
1773798199270464500,23.736464599609373,-0.99664306640625,0.0092620849609375,-0.0172119140625
1773798199290430200,23.75643017578125,-0.99664306640625,0.0085296630859375,-0.0173187255859375
1773798199310396400,23.776396484375,-0.9946746826171875,0.0083770751953125,-0.0173797607421875
1773798199330362400,23.7963623046875,-0.9961395263671875,0.009429931640625,-0.0177001953125
1773798199350328300,23.816328369140624,-0.9956512451171875,0.0092620849609375,-0.0169219970703125
1773798199370294300,23.836294189453124,-0.9960479736328125,0.00860595703125,-0.0169677734375
1773798199390260500,23.856260498046876,-0.997222900390625,0.0079498291015625,-0.0174713134765625
1773798199410226400,23.876226318359375,-0.9947967529296875,0.008636474609375,-0.0185089111328125
1773798199430192400,23.8961923828125,-0.9965362548828125,0.0093536376953125,-0.017608642578125
1773798199450158300,23.916158447265627,-0.9958038330078125,0.0096282958984375,-0.01690673828125
1773798199470124300,23.936124267578126,-0.9952545166015625,0.0089569091796875,-0.0177154541015625
1773798199490090500,23.956090576171874,-0.9962158203125,0.0095367431640625,-0.0181884765625
1773798199510056200,23.97605615234375,-0.9944000244140625,0.0081634521484375,-0.0167388916015625
1773798199530022400,23.9960224609375,-0.9959564208984375,0.0088348388671875,-0.0184326171875
1773798199549988400,24.01598828125,-0.9958038330078125,0.009552001953125,-0.0176239013671875
1773798199569954300,24.035954345703125,-0.9947052001953125,0.0082244873046875,-0.0176544189453125
1773798199589920300,24.055920166015625,-0.9959716796875,0.00872802734375,-0.019073486328125
1773798199609886200,24.07588623046875,-0.99560546875,0.008575439453125,-0.0169830322265625
1773798199629852400,24.095852294921876,-0.99566650390625,0.008392333984375,-0.018035888671875
1773798199649818000,24.115818115234376,-0.9964752197265625,0.009796142578125,-0.017059326171875
1773798199669784300,24.135784423828124,-0.9958648681640625,0.00836181640625,-0.016448974609375
1773798199689750300,24.155750244140624,-0.995361328125,0.0082550048828125,-0.01727294921875
1773798199709716200,24.17571630859375,-0.99432373046875,0.0088348388671875,-0.0174102783203125
1773798199729682200,24.19568212890625,-0.9960174560546875,0.009368896484375,-0.017730712890625
1773798199749648400,24.2156484375,-0.9954833984375,0.0088348388671875,-0.0179595947265625
1773798199769614300,24.2356142578125,-0.9972381591796875,0.00958251953125,-0.017303466796875
1773798199789580300,24.255580322265626,-0.99603271484375,0.0089263916015625,-0.01727294921875
1773798199809546200,24.275546142578126,-0.995635986328125,0.0077972412109375,-0.0157318115234375
1773798199829512400,24.295512451171874,-0.996307373046875,0.0092315673828125,-0.0157012939453125
1773798199849478100,24.31547802734375,-0.994232177734375,0.0078125,-0.0173187255859375
1773798199869444400,24.3354443359375,-0.9945068359375,0.0093994140625,-0.0182342529296875
1773798199889410300,24.355410400390625,-0.995574951171875,0.0079345703125,-0.0181427001953125
1773798199909376300,24.375376220703124,-0.9983673095703125,0.0083465576171875,-0.0169830322265625
1773798199929342200,24.39534228515625,-0.99566650390625,0.0087738037109375,-0.0184783935546875
1773798199949308400,24.415308349609376,-0.996856689453125,0.0085906982421875,-0.0177764892578125
1773798199969274400,24.4352744140625,-0.9953460693359375,0.0091705322265625,-0.0174560546875
1773798199989240000,24.455239990234375,-0.995330810546875,0.008087158203125,-0.0167083740234375
1773798200009206300,24.475206298828127,-0.9973602294921875,0.0095367431640625,-0.016571044921875
1773798200029172200,24.495172119140626,-0.9960174560546875,0.008880615234375,-0.0174102783203125
1773798200049138400,24.515138427734374,-0.9966278076171875,0.0081024169921875,-0.0175018310546875
1773798200069104000,24.535104248046874,-0.99505615234375,0.0077056884765625,-0.017578125
1773798200089070300,24.5550703125,-0.996368408203125,0.007965087890625,-0.018798828125
1773798200109036300,24.575036376953125,-0.996124267578125,0.009002685546875,-0.0162811279296875
1773798200129002200,24.595002197265625,-0.995147705078125,0.0091094970703125,-0.016632080078125
1773798200148968200,24.61496826171875,-0.9958038330078125,0.0078887939453125,-0.0178680419921875
1773798200168934400,24.634934326171877,-0.995880126953125,0.0088653564453125,-0.0188140869140625
1773798200188900400,24.654900390625,-0.9960479736328125,0.009185791015625,-0.0182037353515625
1773798200208866300,24.6748662109375,-0.9967193603515625,0.00885009765625,-0.0172119140625
1773798200228832300,24.694832275390624,-0.995391845703125,0.008544921875,-0.017852783203125
1773798200248798500,24.714798583984376,-0.995452880859375,0.007720947265625,-0.0176239013671875
1773798200268764200,24.73476416015625,-0.99456787109375,0.007843017578125,-0.0176544189453125
1773798200288730400,24.75473046875,-0.99560546875,0.0103607177734375,-0.017547607421875
1773798200308696300,24.7746962890625,-0.99603271484375,0.0082855224609375,-0.0177459716796875
1773798200328662300,24.794662353515626,-0.9951019287109375,0.00848388671875,-0.0173797607421875
1773798200348628200,24.814628173828126,-0.99664306640625,0.008758544921875,-0.015777587890625
1773798200368594200,24.83459423828125,-0.9947357177734375,0.0095062255859375,-0.0178375244140625
1773798200388560400,24.854560302734374,-0.9949798583984375,0.0085601806640625,-0.016754150390625
1773798200408526000,24.874526123046873,-0.9972381591796875,0.0095977783203125,-0.017242431640625
1773798200428492300,24.8944921875,-0.9957427978515625,0.00836181640625,-0.017120361328125
1773798200448458200,24.914458251953125,-0.9945526123046875,0.0090789794921875,-0.01763916015625
1773798200468424400,24.934424560546876,-0.9951324462890625,0.0088653564453125,-0.0166473388671875
1773798200488390100,24.95439013671875,-0.9957733154296875,0.008636474609375,-0.0173187255859375
1773798200508356400,24.9743564453125,-0.9955596923828125,0.0095977783203125,-0.017120361328125
1773798200528322300,24.994322265625,-0.9959716796875,0.0088958740234375,-0.01812744140625
1773798200548288300,25.014288330078124,-0.9972686767578125,0.008880615234375,-0.0176239013671875
1773798200568254200,25.034254150390623,-0.994964599609375,0.008453369140625,-0.017913818359375
1773798200588219600,25.0542197265625,-0.9949951171875,0.0092315673828125,-0.01702880859375
1773798200608185600,25.074185546875,-0.997161865234375,0.0087738037109375,-0.017547607421875
1773798200628151600,25.094151611328126,-0.99517822265625,0.0088653564453125,-0.0173187255859375
1773798200648117500,25.114117431640626,-0.9948577880859375,0.00921630859375,-0.018218994140625
1773798200668083700,25.134083740234374,-0.9961090087890625,0.0096282958984375,-0.0178985595703125
1773798200688049700,25.154049560546873,-0.9954833984375,0.0080413818359375,-0.016021728515625
1773798200708015600,25.174015625,-0.9956817626953125,0.0087432861328125,-0.0164031982421875
1773798200727981600,25.193981689453125,-0.994964599609375,0.0091552734375,-0.016876220703125
1773798200747947800,25.21394775390625,-0.9954833984375,0.009521484375,-0.0174102783203125
1773798200767913500,25.23391357421875,-0.9961700439453125,0.009246826171875,-0.017669677734375
1773798200787879700,25.253879638671876,-0.9949188232421875,0.009490966796875,-0.0172119140625
1773798200807845600,25.273845703125,-0.9953460693359375,0.0087432861328125,-0.01702880859375
1773798200827811800,25.293811767578124,-0.99560546875,0.0073699951171875,-0.0174102783203125
1773798200847777500,25.313777587890623,-0.9942626953125,0.008758544921875,-0.01751708984375
1773798200867743700,25.33374365234375,-0.995880126953125,0.00836181640625,-0.016754150390625
1773798200887709700,25.353709716796875,-0.9962615966796875,0.0094757080078125,-0.018585205078125
1773798200907675400,25.37367529296875,-0.9960479736328125,0.0082550048828125,-0.0173492431640625
1773798200927641600,25.3936416015625,-0.9951171875,0.0088653564453125,-0.0176239013671875
1773798200947607600,25.413607666015626,-0.9956512451171875,0.0083770751953125,-0.017303466796875
1773798200967573800,25.43357373046875,-0.9959564208984375,0.0081634521484375,-0.017974853515625
1773798200987539500,25.45353955078125,-0.9968109130859375,0.0088043212890625,-0.0176544189453125
1773798201007505700,25.473505615234377,-0.9953765869140625,0.00921630859375,-0.017303466796875
1773798201027470600,25.493470703125,-0.996612548828125,0.009033203125,-0.017120361328125
1773798201047437600,25.5134375,-0.996826171875,0.0091705322265625,-0.0177154541015625
1773798201067403500,25.533403564453124,-0.995269775390625,0.0088348388671875,-0.0175933837890625
1773798201087368700,25.55336865234375,-0.996337890625,0.008392333984375,-0.01654052734375
