time,seconds_elapsed,z,y,x
1773798175580133600,0.046133544921875,0.04249824851155281,0.002632805322157219,0.007727872572001069
1773798175600100900,0.066100830078125,0.04594283600747585,0.00036798392902128395,0.0009886457111686468
1773798175620068900,0.08606884765625,0.039358781442046166,0.007566781992465257,0.00010095789013430476
1773798175640035600,0.10603564453125,0.04130348576903343,0.00636568084070459,0.00028475349182263015
1773798175660002800,0.1260029296875,0.045347208201885224,0.011118492257827892,0.002009421859961003
1773798175679969800,0.1459697265625,0.035171266624331475,0.009210950736608355,0.0051256176517345
1773798175699936500,0.1659365234375,0.05342530071735382,-0.002339366200380027,0.006386559231951833
1773798175719903700,0.18590380859375,0.04190437427163124,0.0014006697113160044,0.019939594293478875
1773798175739870700,0.20587060546875,0.03861176246702671,0.007545574807655065,0.009290189985278993
1773798175759838700,0.225838623046875,0.04250175564289093,0.011310617296444251,0.0022412030555307863
1773798175779805700,0.2458056640625,0.039808278775215145,-0.005640115645667538,-0.007379771520383656
1773798175799772700,0.265772705078125,0.04549392319619655,0.011870972859254106,0.0012624759501777588
1773798175819740000,0.285739990234375,0.042350948995351786,-0.0010422938608564435,-0.011726312824711203
1773798175839706600,0.30570654296875,0.0321767609834671,-0.0038763391098473217,0.004826397243142128
1773798175859673900,0.325673828125,0.05102876096963882,0.003771289566485211,0.0018032134970650076
1773798175879640800,0.345640869140625,0.05641629922688007,-0.002352746271761134,0.008811904949042946
1773798175899608800,0.36560888671875,0.05267477461099624,0.009081789665296673,-0.007293499742727726
1773798175919575800,0.385575927734375,0.03277472687661648,0.004319653297401965,-0.004824990737345069
1773798175939542800,0.405542724609375,0.04968260705769062,-0.0017714757850859314,0.0027560389761812983
1773798175959509800,0.425509765625,0.03502045997679233,0.003113127051852643,0.006246401842590421
1773798175979476700,0.445476806640625,0.040110476592183114,0.011113003231957554,-0.006249415783584117
1773798175999443700,0.465443603515625,0.02529576929807663,-0.007705706405965611,-0.003284318900294602
1773798176019411000,0.485410888671875,0.04190495879352092,-0.004477766468562186,0.0029955285541713238
1773798176039377700,0.505377685546875,0.04804126959145069,-0.0005077668590471148,0.0009316548269242048
1773798176059345700,0.525345703125,0.0558224249869585,0.00312826068890281,0.0021621830025687814
1773798176079313000,0.54531298828125,0.04804010054767131,0.006738487075315788,-0.0006934621568769217
1773798176099279600,0.565279541015625,0.0417535676240921,-0.001815442790975794,0.0003143266461789608
1773798176119246800,0.585246826171875,0.022751345512270926,0.0035141364676412193,-0.0024535488982684907
1773798176139213800,0.6052138671875,0.04579553649127483,-0.004200173369888216,0.007933788673952221
1773798176159180500,0.6251806640625,0.02828676780760288,-0.012099393053958192,0.0038696810401976107
1773798176179147800,0.645147705078125,0.03277531139850616,-0.005413951340131461,-0.003124032038357109
1773798176199115800,0.66511572265625,0.03591770107746124,0.005100017419597134,0.009762355807982384
1773798176219082800,0.685082763671875,0.036814942178130146,0.012082862044265494,0.008869443822558968
1773798176239049700,0.7050498046875,0.03771393684446812,-0.007212050270661711,-0.0034745990416966376
1773798176259016700,0.7250166015625,0.0481891536295414,0.0008218012442812323,-0.0006844020675867796
1773798176278984000,0.74498388671875,0.03861176246702671,-0.004470396012859419,0.002627663356158882
1773798176298950700,0.76495068359375,0.03995440924763679,0.002603597493981942,-0.006202416570391505
1773798176318917600,0.784917724609375,0.04698562305867671,0.00010394443166442215,-0.002340991901885718
1773798176338884900,0.804884765625,0.029327216771245,0.004234066506335512,-0.001708009494282305
1773798176358851600,0.8248515625,0.04519055633544922,0.012543428760720416,-0.010514836409408599
1773798176378819600,0.844819580078125,0.030674539726972577,0.0007416943459305911,0.0026605609787628054
1773798176398786800,0.864786865234375,0.05236906966269016,0.00292296564145945,0.000554747805930674
1773798176418753500,0.88475341796875,0.03067278616130352,0.007343622494768351,0.0017256730151362716
1773798176438096600,0.9040966796875,0.039649288821220395,0.004155859304126352,0.0026129772436805066
1773798176458064000,0.92406396484375,0.04623334338665008,-0.0004358432671520859,-0.002060403128527105
1773798176478030600,0.944030517578125,0.05251870726644992,-0.000981019527139142,-0.0010953026897273957
1773798176497997800,0.963997802734375,0.03785188401043415,0.0008889116637408733,0.010745375495962798
1773798176517965800,0.9839658203125,0.04413724789023399,0.006746259389817715,-0.005881349656172096
1773798176537932500,1.0039326171875,0.03755027071535587,-0.0015741539815440774,0.007855280077643693
1773798176557899800,1.023899658203125,0.03979425024986267,-0.016741446706140414,0.0035002632059156894
1773798176577867000,1.043866943359375,0.03904606223106384,0.0009572733253706246,0.009579473521746694
1773798176597834000,1.063833984375,0.0403939697086811,0.0034573373796418306,-0.002634750684071332
1773798176617801200,1.08380126953125,0.0522147558838129,-0.0006584365092683583,-0.008454780340753495
1773798176637768000,1.103767822265625,0.04727613043785095,0.005074225391214713,0.0018528065261431037
1773798176657735200,1.123735107421875,0.038297289690375325,0.0025022286118939517,0.0027666151691228148
1773798176677702100,1.1437021484375,0.038747371545434,-0.006237634014245122,0.0054979215628467495
1773798176697669000,1.163669189453125,0.03351239350140094,0.0021327103129122403,0.004635806574486196
1773798176717637000,1.18363720703125,0.03904723127484321,-0.00018431619149632752,0.001978496998734772
1773798176737604000,1.20360400390625,0.047128246399760244,0.0009576021189335733,-0.007482428177259862
1773798176757571300,1.2235712890625,0.04308803109824657,-0.003919648528611287,0.0019488507791422306
1773798176777538000,1.2435380859375,0.042191374519467355,-0.007971864795172586,0.0023389095426537094
1773798176797505000,1.263505126953125,0.032165655067563054,0.002683046805206686,-0.0010252696608193219
1773798176818096000,1.28409619140625,0.04907470429241657,-0.001957582074869424,-0.0011750168624334036
1773798176838063000,1.30406298828125,0.04503390446901321,-0.008341940216580405,-0.011745218454580753
1773798176858030000,1.324030029296875,0.051767012116312974,0.0008200750780757516,0.0019316987149417398
1773798176877997000,1.3439970703125,0.04309036918580532,0.0016740432925987988,0.003665481971297413
1773798176897964000,1.363964111328125,0.03725800977051258,-0.005549122027121484,0.01623142395792529
1773798176917931000,1.383930908203125,0.044589667832851405,-0.004736682266229763,0.0011850998650304973
1773798176937898200,1.403898193359375,0.03725391811728477,0.01563145790393464,0.0015364523196592925
1773798176957866200,1.4238662109375,0.040994273689389224,0.00037603937131352723,0.002609433579724282
1773798176977833000,1.4438330078125,0.027529811960458755,0.0024494755113497373,-0.004421597568225116
1773798176997800200,1.46380029296875,0.03396422892212868,0.006324481180636212,0.006182323630433529
1773798177017767200,1.48376708984375,0.0472825601786375,-0.0014823109796270727,-0.002985025426466018
1773798177037734100,1.503734130859375,0.03321545638144016,0.0037202900316100564,0.0013949797560460864
1773798177057701000,1.523701171875,0.045783261531591415,0.0012598730011377482,0.00004190291296690702
1773798177077668000,1.543668212890625,0.03216623958945274,0.012370218485128134,0.004026442504487931
1773798177097635000,1.563635009765625,0.02049333745241165,0.00021099413586780428,-0.00737062009954825
1773798177117602000,1.58360205078125,0.0632861849963665,-0.0018123557847458868,0.008041906957235187
1773798177137569300,1.6035693359375,0.045183542072772975,0.0035468057613819836,0.004905125035159289
1773798177157536000,1.623535888671875,0.03051847238242626,0.002433264162065461,0.007313355220668017
1773798177177503200,1.643503173828125,0.04952127901613712,0.008646996710915117,0.002699011559318751
1773798177197470200,1.66347021484375,0.04069149135053157,-0.013701284425798804,-0.009089826841279864
1773798177217438200,1.683438232421875,0.03979425024986267,-0.00009579765782691538,-0.005892747833020985
1773798177237405200,1.7034052734375,0.037250410985946655,-0.0026373536331113427,-0.0030634974901564416
1773798177257372200,1.7233720703125,0.04129121080935001,-0.004838206411944702,0.006667878657672554
1773798177277339100,1.743339111328125,0.0403939697086811,0.00894536773613654,0.0030470030130818485
1773798177297306000,1.76330615234375,0.031118191841244695,0.003180977256828919,-0.0012140519648790359
1773798177317273000,1.783273193359375,0.04084346704185009,-0.010995751794148237,-0.005476732644345611
1773798177337240300,1.803240234375,0.045479894670844075,0.00040343883489258583,-0.004791727788560092
1773798177357207000,1.82320703125,0.03814531399905682,0.004445809560874476,0.00901393032716587
1773798177377174000,1.843174072265625,0.0535568181425333,0.0053822410276159645,0.004012139984499663
1773798177397141200,1.863141357421875,0.03934066126346588,-0.00567334206183441,0.0036166926598176358
1773798177417108000,1.88310791015625,0.04487783712446689,0.007206214184919372,-0.00889340922003612
1773798177437075200,1.9030751953125,0.045775662747025485,-0.0032907212416175753,-0.001895494890399277
1773798177457042200,1.923042236328125,0.044727030476927755,0.006933607788616791,-0.00293285684781149
1773798177477010000,1.943010009765625,0.04368132081627846,0.003045496042585,0.008214286115765572
1773798177496977200,1.96297705078125,0.04338146108686924,-0.0003718289870768785,-0.0010300189011730253
1773798177516944100,1.982944091796875,0.04816752631962299,-0.003253613234777003,0.0020868162114173173
1773798177536911000,2.0029111328125,0.04622106842696667,0.002886168161872774,0.0033318113038316366
1773798177556878000,2.022878173828125,0.043676644641160965,-0.006314471243275329,0.00035045740548521277
1773798177576845000,2.042844970703125,0.04322539374232292,-0.001588538699923083,-0.011140822820644825
1773798177596812000,2.06281201171875,0.03828559925258159,-0.0031079302869271483,-0.0035762693178839977
1773798177616779000,2.082779052734375,0.034094577303528786,-0.0013548212755937128,0.004077843898162245
1773798177636746000,2.10274609375,0.05564473033249378,-0.002715104177594185,0.004843037850689143
1773798177656713000,2.122712890625,0.04217851503789424,-0.002214945236267522,-0.008500099053513259
1773798177676680200,2.14268017578125,0.03604337328374386,0.00344882527962327,0.011686784531921148
1773798177696647000,2.16264697265625,0.035143794095516205,-0.0026448062872048467,0.0012423647439107298
1773798177716614000,2.18261376953125,0.03469488128423691,0.006805880622565746,0.00597311959285289
1773798177736581000,2.2025810546875,0.03529401622116565,0.004378132885834202,0.010188654928654431
1773798177756547800,2.2225478515625,0.04038286379277706,-0.0033409170588944107,0.0013451309986412525
1773798177776515000,2.24251513671875,0.0426250897616148,-0.0029299707709811626,-0.004378580410405993
1773798177796483000,2.262483154296875,0.0421761769503355,0.0018067571610212326,-0.002852704283688217
1773798177816450000,2.282449951171875,0.031252631875872613,-0.005408197452779859,-0.008553272279165684
1773798177836417000,2.3024169921875,0.043971243673563004,-0.0001329147978220135,-0.0009299743264913558
1773798177856384000,2.322384033203125,0.03798573952317238,-0.003760786438779905,-0.00948573082368821
1773798177876351200,2.342351318359375,0.02750993821620941,-0.0008907839604187757,0.011167637762334197
1773798177896318000,2.36231787109375,0.03813537712693214,0.0003624127047602087,0.0003416347782127559
1773798177916285000,2.382284912109375,0.04741115499436855,-0.0012900306773837656,-0.0005970160450786352
1773798177936252200,2.402252197265625,0.04022621192634106,0.00797471433938481,-0.004958407858666032
1773798177956219000,2.422218994140625,0.03753273505866527,0.0004816186376381665,0.00027147388514131305
1773798177976186000,2.44218603515625,0.04516483737230301,-0.01028612395375967,-0.005883176287077367
1773798177996153000,2.462153076171875,0.04965513452887535,0.0029441454268060623,-0.009295286285504698
1773798178016120000,2.4821201171875,0.03858078280687332,0.006838988307723775,0.008204239645786583
1773798178036087000,2.502087158203125,0.04501344620287418,0.006619116745656356,-0.006712448451761156
1773798178056054000,2.522053955078125,0.023466800305247306,0.00456089644106105,0.003590681435726583
1773798178076021000,2.54202099609375,0.029151860204339027,-0.0010858224753290415,-0.0015660620066337287
1773798178095988000,2.561988037109375,0.03768237266242504,0.0101899609697517,0.007978413266967981
1773798178115955200,2.581955078125,0.037383097454905506,-0.01201092018606141,0.00747471979483962
1773798178135922000,2.601921875,0.04097498446702957,0.0012293591318652034,-0.006863108968827873
1773798178155889200,2.62188916015625,0.04965338096320629,-0.011113368558138608,-0.006119049135874957
1773798178175857200,2.641857177734375,0.04531096784472465,-0.009033877136651425,0.002249916084948927
1773798178195824000,2.66182421875,0.044563948869705196,-0.001181985459337011,-0.000022558891680091617
1773798178215791000,2.681791015625,0.05039923089444637,-0.0010104008852504192,-0.008211126044299454
1773798178235758000,2.701758056640625,0.03947393225431442,0.0003349401759449392,0.006258786400128156
1773798178255725000,2.72172509765625,0.029001053556799886,-0.0001869739394634962,0.0008968392418697476
1773798178275692000,2.741692138671875,0.04471534003913402,-0.007153652880620211,0.0021359525827690956
1773798178295659000,2.761658935546875,0.0328957229077816,-0.007833360506780445,0.004915043640974909
1773798178315626200,2.781626220703125,0.031101240706443784,0.001179610839160159,-0.0025989121857099232
1773798178335593000,2.801593017578125,0.02840659479498863,-0.004394097639946267,-0.004675298334658145
1773798178355560200,2.821560302734375,0.04037935666143894,0.0017093338016886262,-0.002242773958109319
1773798178375527200,2.841527099609375,0.048909869119524954,0.0005379336684476584,-0.0000427796958014369
1773798178395494000,2.861493896484375,0.046961657661199564,0.0067155445911455895,-0.006819963946845382
1773798178415461000,2.881461181640625,0.04770867663621902,-0.009098064946662635,-0.0012052658702246845
1773798178435428000,2.901427978515625,0.03828326116502285,0.0013321345197502524,-0.002585650845337659
1773798178455395000,2.92139501953125,0.04411854318976402,0.005366586800757796,0.008214541844092309
1773798178475362000,2.941362060546875,0.04531798210740089,-0.006834202534751966,0.00572725507300347
1773798178495329000,2.9613291015625,0.041425650843977924,0.0015995167516637593,-0.0028197153295390306
1773798178515296000,2.9812958984375,0.04471826264858245,-0.005935755857685581,-0.0015934066712856292
1773798178535263000,3.001262939453125,0.03918050226569175,-0.00008281031209044159,-0.009321973363030702
1773798178555230200,3.021230224609375,0.028106735065579414,0.005655779005680233,0.0024790121330879626
1773798178575196700,3.04119677734375,0.03917933322191238,-0.006174980574194341,-0.0055615248509682715
1773798178595164000,3.061163818359375,0.04740823238492012,-0.0024301406232174485,0.009029474956169724
1773798178615131000,3.081130859375,0.031848844203352926,-0.003413817898323759,0.0018664149263873694
1773798178635097900,3.101097900390625,0.04681318910121918,-0.0003801036250777542,0.007386603119969367
1773798178655064800,3.12106494140625,0.0448690692961216,0.004923683605156839,0.00346279900604859
1773798178675031800,3.14103173828125,0.03499357196986675,-0.004456751079997047,-0.0007443520938977599
1773798178694999000,3.1609990234375,0.040831776604056354,0.0055422538949176665,0.01146159747391939
1773798178714965800,3.1809658203125,0.045620179924368856,0.008508602020377292,-0.00044173415182158346
1773798178734933000,3.20093310546875,0.03724222767949104,0.0018756850782316178,-0.004520637495908886
1773798178754901000,3.22090087890625,0.05100888722538948,0.004884575437474996,0.004594122857227921
1773798178774867700,3.24086767578125,0.0379933383077383,0.004542301338445395,0.003901884543057531
1773798178794835000,3.2608349609375,0.04412731101810932,0.006645831222645938,0.000007361322548240423
1773798178814802000,3.280802001953125,0.028715806874632835,-0.007745937951654195,0.0009723156308755278
1773798178834769000,3.300768798828125,0.033653847798705096,0.0011334244767203926,0.006810648129228502
1773798178854736000,3.32073583984375,0.036347909188270563,0.008495075818523764,-0.007093867251090705
1773798178874702800,3.340702880859375,0.021681670454144476,-0.0026013507379684594,-0.008084832783509046
1773798178894669800,3.360669921875,0.04427753314375877,0.006358684844337404,0.005133380833081901
1773798178914636800,3.38063671875,0.024225509718060492,-0.008819174940045922,0.0001967829474247992
1773798178934604000,3.40060400390625,0.03664426178634166,-0.002432570042321458,0.00390025884155184
1773798178954570800,3.42057080078125,0.04487374547123909,0.007321821654913947,-0.008760375691205262
1773798178974537700,3.440537841796875,0.060734746947884555,0.007926308620395138,-0.000647065731883049
1773798178994505000,3.4605048828125,0.05220657257735729,-0.001462565099541098,0.004098904952500015
1773798179014471700,3.4804716796875,0.03006196078658104,-0.0009405048536602407,-0.004728252364601939
1773798179034439000,3.50043896484375,0.03380348540246486,-0.002688508431613445,0.015623429861105978
1773798179054406000,3.520406005859375,0.0445768083512783,0.0030966234416235235,-0.0017284677604213355
1773798179074372900,3.540372802734375,0.037544425496459005,0.006482128560915589,0.00508159584691748
1773798179094339800,3.56033984375,0.05235796374678611,0.0053834192045498636,0.0010563223862089216
1773798179114306800,3.580306884765625,0.029463994893431662,-0.005902511175209656,0.0027948731492273508
1773798179134273800,3.600273681640625,0.03814239138960838,-0.002660634043999016,-0.00417765101082623
1773798179154240800,3.62024072265625,0.0384422511190176,-0.0017887465802952647,0.0037131205053068696
1773798179174208000,3.6402080078125,0.03245323983728885,0.009448157025966793,-0.004986190914735198
1773798179194174700,3.6601748046875,0.04188216243982315,0.003285341813601553,0.00013232114277780056
1773798179214142000,3.680141845703125,0.041431496062874794,-0.0032555951293092218,-0.0013231383625417947
1773798179234109000,3.70010888671875,0.050257776597142215,0.003740985759766772,0.0014908778785727918
1773798179254075600,3.72007568359375,0.03858370541632175,0.003209089106461033,-0.010969740570057182
1773798179274043000,3.74004296875,0.03469488128423691,0.009258927197335287,-0.008644128900393844
1773798179294009900,3.760009765625,0.029009821385145185,-0.00045476716333068905,-0.00570942715536803
1773798179313976800,3.779976806640625,0.04023264166712761,-0.0007555767408106475,-0.004383183520287275
1773798179333943800,3.79994384765625,0.03334989641606807,-0.003471301972912624,-0.011766297775227575
1773798179353911000,3.8199111328125,0.04158405627608299,0.000034468525182455775,-0.002579750827513635
1773798179373877800,3.839877685546875,0.02886485995650291,-0.00045252040731720626,-0.008463237641844899
1773798179393844700,3.8598447265625,0.04517477424442768,0.009261356616439297,-0.00155574154201895
1773798179413812000,3.87981201171875,0.029613632497191428,0.004261447703605517,0.00667041767463088
1773798179433778700,3.89977880859375,0.042481297376751895,0.006565523394895717,0.010640435550455003
1773798179453746000,3.919745849609375,0.046971010011434555,-0.00389627678617835,0.0034313444218598303
1773798179473713000,3.939712890625,0.041434418672323226,0.014883142020972445,-0.003992686365358531
1773798179493679900,3.959679931640625,0.03963759838342666,0.0011397994185797869,-0.002577869397681206
1773798179513646800,3.979646728515625,0.05310498272180557,-0.007088789217174053,-0.008697247327119111
1773798179533613800,3.99961376953125,0.048016135150194164,0.0008631561679765581,0.004386599320080131
1773798179553580800,4.019580810546875,0.018687164813280106,0.0033396201509516684,0.002562489165458828
1773798179573547500,4.039547607421875,0.0388864877551794,0.00442028239397332,0.011789295058324932
1773798179593514800,4.0595146484375,0.04053191687464714,-0.00442125964150764,0.002606200443021953
1773798179613481700,4.079481689453125,0.04666530506312847,0.003723514035157859,-0.00525233103763312
1773798179633448700,4.09944873046875,0.04322364017665386,0.00526292549688369,0.005702869550418108
1773798179653415700,4.119415771484375,0.03589373567998409,-0.004218850670894608,0.0069489788876846426
1773798179673382700,4.139382568359375,0.038137130692601204,-0.009057276278547943,-0.0016889942665584384
1773798179693349600,4.159349609375,0.05504617991745472,0.0030087533619254825,0.006086882165633142
1773798179713316600,4.179316650390625,0.03948036199510097,0.00821606708089821,-0.011417228609230369
1773798179733283800,4.199283935546875,0.05324935962855815,-0.006223788151983171,0.013928225049469618
1773798179753250600,4.21925048828125,0.040379941183328626,-0.005594650802435353,-0.0023307627688162027
1773798179773217800,4.2392177734375,0.026314590951800346,0.006872424786444753,0.004627605001721531
1773798179793184800,4.259184814453125,0.04546469710171223,-0.0029529041219968346,-0.00194722507763654
1773798179813151500,4.2791513671875,0.043968321064114566,-0.010267939843097701,-0.00045780850378796456
1773798179833118700,4.29911865234375,0.03604045067429543,0.0019190766953863202,0.002402951222192496
1773798179853085700,4.319085693359375,0.03963058412075043,-0.004606151221739128,0.005061155847087502
1773798179873052700,4.339052734375,0.034840427234768864,-0.007293326212791725,0.0014779270654544233
1773798179893019600,4.35901953125,0.04232172290086746,-0.0019395349615253508,0.008982950667012482
1773798179912987000,4.37898681640625,0.037085575813055036,-0.003097618955466896,-0.010506306043080985
1773798179932952600,4.39895263671875,0.04127601324021816,0.009277156973769888,0.007612118971534073
1773798179952919800,4.418919921875,0.03559036881923675,0.0033338297309819607,-0.007669803975522518
1773798179972886500,4.438886474609375,0.04337035517096519,-0.002954054899467155,-0.005961721416004002
1773798179992853800,4.458853759765625,0.037383681976795195,0.0049813046770635985,-0.0028323190827853977
1773798180012820700,4.47882080078125,0.05204875166714191,-0.0020104265069589016,0.0022628668980672955
1773798180032787500,4.498787353515625,0.039327217260003086,0.0030221608327701687,0.0011485124479979276
1773798180052754700,4.518754638671875,0.03648234922289848,0.004008961646724492,-0.011116382499132304
1773798180072721700,4.5387216796875,0.03648118017911911,-0.008578105326322838,0.0072046889481134704
1773798180092688600,4.558688720703125,0.04590601112842559,0.005014942085184156,-0.0013044519283808766
1773798180112655600,4.578655517578125,0.034385084682703015,-0.0016739884936716406,-0.006271810278482735
1773798180132622600,4.59862255859375,0.030043840608000753,0.0009226404034066945,-0.010946779819577932
1773798180152589600,4.618589599609375,0.046053310644626616,0.0033495478899218142,-0.0017645619871094823
1773798180172556500,4.638556640625,0.03961889368295669,-0.003944719037786126,-0.0033950492657721042
1773798180192523800,4.658523681640625,0.0482978747010231,0.006003030673926696,0.002480802231375128
1773798180212490500,4.678490478515625,0.043805823978781695,0.004708926609624177,0.017239084896817802
1773798180232457700,4.698457763671875,0.04036474361419678,0.0012950721786823122,-0.0007104132916778325
1773798180252424700,4.7184248046875,0.03377776643931865,-0.013031696334853767,0.010593326739408075
1773798180272391700,4.7383916015625,0.047844870236516,-0.0037203356973826885,0.0011166560050100088
1773798180292358700,4.758358642578125,0.037220015847682954,-0.0019378453279379755,-0.009778064833767712
1773798180312325600,4.77832568359375,0.03736673084199428,0.00638283290490508,-0.0036578466541133817
1773798180332292600,4.798292724609375,0.03033551703095436,-0.003951660235226154,0.009495174505468457
1773798180352259600,4.818259521484375,0.043055297872424125,0.002162228668341413,0.0051794119318947195
1773798180372226800,4.838226806640625,0.04784136310517788,0.009297542174672708,0.010019015716481953
1773798180392193500,4.858193603515625,0.04379880971610546,-0.0033848383990116417,0.0022311200529336927
1773798180412160500,4.878160400390625,0.03257189778089523,-0.006753511114511638,0.01542882060445845
1773798180432126700,4.898126708984375,0.04454173703789711,-0.008571282859891652,-0.0003829349029809236
1773798180453965600,4.919965576171875,0.056659460332989686,0.0004573244465980678,-0.0010158442453481256
1773798180473932800,4.939932861328125,0.04274140961766243,0.013129749881848693,0.0022010354419238864
1773798180493899500,4.9598994140625,0.03914835356175899,-0.005932778449309989,0.005564812786597758
1773798180513866800,4.97986669921875,0.04528407983779907,0.016508806994045153,0.006635364627558738
1773798180533833700,4.999833740234375,0.04857435355484485,0.002125677783926949,-0.0031320509480312463
1773798180553800700,5.01980078125,0.040941666719317434,-0.01649253171267919,0.013496427769772707
1773798180573767200,5.03976708984375,0.04468026872575283,0.0072043510213959955,0.007360299634933471
1773798180593734100,5.059734130859375,0.03929273046851158,0.0002278722054325044,0.00031699352730065584
1773798180613701000,5.079701171875,0.03749532565772533,0.000756389591563493,-0.0004383000857196748
1773798180633668000,5.099668212890625,0.04782148936092853,0.005461096683796495,0.010322327778302132
1773798180653635000,5.119635009765625,0.03420329837501049,-0.004732024357421323,-0.0010166114303283393
1773798180673602000,5.13960205078125,0.0339022696018219,-0.0007541154360864312,0.006398432332836091
1773798180693569300,5.1595693359375,0.03509995495378971,0.006549494708701968,-0.0075849569699727
1773798180713536000,5.179535888671875,0.04841945525407791,0.00572309948769398,0.01839576238496229
1773798180733503000,5.1995029296875,0.03944061450660229,-0.007788160525029525,0.003516118362173438
1773798180753470200,5.21947021484375,0.030464696368575093,-0.004160416748235002,0.0008016169727779925
1773798180773436200,5.239436279296875,0.047971711486577986,0.014344569031707942,0.0008768376334570348
1773798180793403100,5.259403076171875,0.03405716790258884,-0.006108783470187336,0.0077578658514656125
1773798180813994200,5.279994140625,0.04019523226618767,0.004840626697894186,0.004241418695729225
1773798180833961000,5.2999609375,0.0352571913421154,0.01443194592106156,-0.0024229710969142612
1773798180853928200,5.31992822265625,0.03555412846207619,-0.009342331164469942,0.0126808736031875
1773798180873895200,5.339895263671875,0.047076223951578136,-0.0033144217776134607,0.0052249315740540625
1773798180893862000,5.35986181640625,0.04243979632258415,0.0020684951034374535,-0.007920874393451958
1773798180913829000,5.3798291015625,0.039299160209298134,0.016943965274607762,0.014461911801062523
1773798180933796000,5.399796142578125,0.06503858162164687,0.010190015768678859,0.01637474141875282
1773798180953763000,5.41976318359375,0.02912380315363407,0.008125630584778264,0.0015136924985796212
1773798180973730000,5.43972998046875,0.027775311154127118,0.011316937439376487,0.005445040598139167
1773798180993696300,5.4596962890625,0.0496224013030529,0.006899915581569075,0.008950034778099506
1773798181013663000,5.4796630859375,0.03525836038589477,-0.010729712135950102,0.002010590903740376
1773798181033630200,5.499630126953125,0.03750409348607063,0.001247287514200434,0.004636975618265569
1773798181053597200,5.51959716796875,0.04364040428400039,-0.009437416436243802,0.009255684927478433
1773798181073564200,5.539564208984375,0.022992753052711486,0.0038396968938875942,0.012178787566255777
1773798181093531100,5.55953125,0.04932838679254055,0.004700953365722671,0.0010325944507494568
1773798181113498000,5.579498046875,0.038107904598116873,0.0015541706394404172,0.005772829514089971
1773798181133465000,5.599465087890625,0.04319616764783859,-0.0031602358628995716,0.006816310685034841
1773798181153432000,5.61943212890625,0.03317278628349304,0.014306565975723787,0.001814556874986738
1773798181173399300,5.6393994140625,0.039159459477663035,0.0009905088746920228,0.009980839130561798
1773798181193366000,5.659365966796875,0.03152677264213562,0.009268398278579115,-0.000410973687376827
1773798181213332200,5.679332275390625,0.040355975785851476,-0.0005027984229847789,0.008222670351620763
1773798181233299000,5.699298828125,0.04289981504976749,0.0005012823193334043,0.00745250796303153
1773798181253266200,5.71926611328125,0.04170388326346874,-0.001950951404683292,0.00800345637667924
1773798181273233200,5.739233154296875,0.03436813354790211,-0.0007409180277958511,-0.0005430939007550477
1773798181293200100,5.7592001953125,0.04933189392387867,0.0038676534798927605,0.0024505897562019526
1773798181313167000,5.7791669921875,0.03930851255953312,-0.0068575742771849035,0.002120974209345877
1773798181333134000,5.799134033203125,0.06190320620536804,0.006211421860754489,0.009494480385724454
1773798181353101000,5.81910107421875,0.03556874150931835,0.0020608871857170016,0.012109393858164548
1773798181373068000,5.839068115234375,0.04574234499931335,-0.008926416440494358,0.005296151913050562
1773798181393035300,5.85903515625,0.03407353451550007,0.010441451512789354,0.010783077157847583
1773798181413001000,5.8790009765625,0.046641924187541005,0.012645573960943146,0.007998433141689748
1773798181432968200,5.89896826171875,0.04454582869112492,0.006705790382111445,-0.0012930354852229355
1773798181452935200,5.91893505859375,0.04125380140841007,-0.0074361870158929375,0.019562815136648714
1773798181472902100,5.938902099609375,0.049634676262736314,0.00412040439825505,0.0020026085266843436
1773798181492869000,5.958869140625,0.03392214334607124,-0.0011983429390937089,0.004223700375948101
1773798181512836000,5.978836181640625,0.029431261667609215,-0.0014209087817464022,0.013263714992441236
1773798181532803000,5.998802978515625,0.05337444731295109,0.013123566736234351,0.004557042249850929
1773798181552770000,6.01877001953125,0.022998598271608352,0.008399068098142743,0.0014913893352262674
1773798181572737800,6.03873779296875,0.04379880971610546,-0.006398240536591038,0.008927567217964678
1773798181592703500,6.058703369140625,0.04768997193574905,0.0006567012099083512,0.008927055761311203
1773798181612670700,6.078670654296875,0.041404608055949206,0.006344263593340292,0.0019111856498755513
1773798181632637400,6.098637451171875,0.03033025633394718,0.003450432714819908,0.0000032879356294870375
1773798181652604700,6.118604736328125,0.04379880971610546,-0.0067697133306413885,0.007267744246963411
1773798181672571600,6.138571533203125,0.0423024336785078,0.00008246325221844017,-0.0021255955855362116
1773798181692538600,6.15853857421875,0.038114334338903426,0.009324585445225238,0.011605864782817662
1773798181712505600,6.178505615234375,0.04095744881033897,-0.010970315958792344,0.000498323177266866
1773798181732472600,6.19847265625,0.039160043999552724,0.007994186224834993,0.005964899753779173
1773798181752438500,6.2184384765625,0.0316799173772335,0.0009368424586951732,0.005625146405398846
1773798181772405500,6.238405517578125,0.027343349477648732,-0.007959151444071904,0.011950093376915901
1773798181792372700,6.258372802734375,0.039462826338410376,0.002764331880491227,0.0000760791772045195
1773798181812339500,6.27833935546875,0.04440086726248264,0.0015607830433174968,0.008678305164631455
1773798181832306700,6.298306640625,0.04859247373342514,-0.00007634403868578374,0.004638692651316523
1773798181852273700,6.318273681640625,0.041407530665397645,-0.0018001630234532058,0.008216770333796738
1773798181872240600,6.33824072265625,0.04679389987885952,-0.0021889522784855216,0.009783069802448153
1773798181892207600,6.35820751953125,0.054577393361926074,0.0059239740883465855,0.0078092672451399265
1773798181912173600,6.378173583984375,0.0466466003626585,-0.0014801372888498007,0.012037406334187834
1773798181932140500,6.398140625,0.0346732539743185,-0.0027022629623301327,0.00091258480027318
1773798181952107800,6.418107666015625,0.03317687793672085,0.008226752871694042,0.013731825694534927
1773798181972074500,6.438074462890625,0.04185527443289756,0.0007641619060654193,0.013018727255426346
1773798181992041500,6.45804150390625,0.03661678925752639,0.0027981884843204167,0.01470755712520331
1773798182012008700,6.4780087890625,0.044700726991891856,0.00017089045434258876,0.0003222724906168878
1773798182031975400,6.497975341796875,0.030784429842233656,0.0029868977231439203,0.003599412731453776
1773798182051941600,6.517941650390625,0.04380173232555389,0.013810635684942826,0.012590437107067554
1773798182071908600,6.53790869140625,0.04380231684744358,0.00015049612028524278,0.01366630444396287
1773798182091875600,6.55787548828125,0.04050795147716999,-0.007568508158670738,0.00491181050427258
1773798182111842600,6.577842529296875,0.04125613949596882,0.0058484611667227,0.0031839455320499836
1773798182131809800,6.597809814453125,0.02718845117688179,0.00653273537014611,-0.0009488799563609063
1773798182151776500,6.617776611328125,0.041105332848429675,0.007001668056147173,0.005015964998491108
1773798182171743700,6.63774365234375,0.04499474150240421,-0.0013452679959591477,-0.0015797252058051526
1773798182191709400,6.65770947265625,0.033920974302291865,0.006685094653954729,0.002492657065950334
1773798182211676700,6.6776767578125,0.0548725769162178,0.007531007426185533,-0.00469740056861192
1773798182231643600,6.6976435546875,0.03706453302502632,0.004313908543204888,0.011035060891229659
1773798182251610600,6.717610595703125,0.05008242003023624,0.00486911300686188,-0.0010769450491294264
1773798182271577600,6.73757763671875,0.031525603598356246,-0.005662564939493313,0.011697561654262244
1773798182291544600,6.757544677734375,0.03511515252292156,0.0031708303221501407,0.006574994476139545
1773798182311511600,6.777511474609375,0.030625439888238903,-0.0023726291491650044,0.01735922241145745
1773798182331477800,6.797477783203125,0.05037585001885891,-0.0058329074045643204,-0.0010842150401324034
1773798182351444700,6.81744482421875,0.03930266734063625,-0.006695844376832246,0.0010174699468538165
1773798182371411500,6.837411376953125,0.04603694403171539,0.003686479093553498,0.0032457587218843397
1773798182391378700,6.857378662109375,0.03496551491916179,-0.0032885475508403032,0.0007828209407627582
1773798182411345700,6.877345703125,0.046188335201144216,0.01662601276608184,0.0060447965895757075
1773798182431312600,6.897312744140625,0.03930675899386406,-0.008563638409553095,0.011002546861115842
1773798182451278600,6.917278564453125,0.039753918239474294,0.003150746515346691,-0.004951010003499686
1773798182471245600,6.93724560546875,0.03691138828992843,-0.007619599025091156,0.017763017439376562
1773798182491212500,6.957212646484375,0.04244739510715007,0.001069583726581186,0.008509561001602559
1773798182511179800,6.9771796875,0.028231238228082656,0.000058068596478551624,-0.0008623524503782391
1773798182531146500,6.997146484375,0.04214870442152023,-0.003609714929759502,0.0016564985027536748
1773798182551113700,7.01711376953125,0.04259937079846859,0.001709562130551785,0.0002412248773500323
1773798182571080000,7.037079833984375,0.04245031771659851,-0.0019348770527169107,0.006915021819155663
1773798182591047200,7.057047119140625,0.04484335033297539,-0.0014688030440825968,0.0032470190972089764
1773798182611014100,7.07701416015625,0.030478724893927573,0.0069662131502758705,0.001468702579382807
1773798182630980900,7.09698095703125,0.0442459689617157,-0.0034007300878874957,0.03274889831561595
1773798182650948000,7.116947998046875,0.04768704932630062,0.010094647369114682,0.003331171983014792
1773798182670915000,7.1369150390625,0.023745617246627805,0.004379374994849786,0.0071710241405293345
1773798182690881000,7.156881103515625,0.03960895681083202,0.00646114057181403,0.006460391653142869
1773798182710848000,7.176847900390625,0.03826747907400131,0.007125723694078624,0.002824738564528525
1773798182730815000,7.19681494140625,0.04186111965179443,0.004181258606864139,0.016035627391189335
1773798182750782000,7.216781982421875,0.048741526815295214,-0.0057266522848047315,-0.0019134689385071396
1773798182770749200,7.236749267578125,0.03676818042695522,0.012278640344692393,0.004285075174365193
1773798182790715000,7.25671484375,0.05023498024344444,-0.0009053513418883084,0.007701130695547908
1773798182810682000,7.27668212890625,0.05278174211680889,-0.00021375234853476284,0.017009039000608028
1773798182830649000,7.296649169921875,0.043504795205593104,-0.0016051153753884136,0.0052735564887523645
1773798182850616000,7.316615966796875,0.03871697640717029,-0.0032700803123880177,0.010480842808261514
1773798182870583000,7.3365830078125,0.04096270950734615,0.000395419925218448,-0.005103679814562201
1773798182890549000,7.356549072265625,0.03452712350189686,0.010409567670337854,0.004669306985288858
1773798182910516000,7.376515869140625,0.03572480885386467,-0.0006238583862315863,0.003298073431011289
1773798182930483200,7.396483154296875,0.04515373145639896,-0.01210846227640286,0.009959558880515395
1773798182950450000,7.416449951171875,0.040814825469255446,-0.007950602811435238,0.005121452933270484
1773798182970417000,7.4364169921875,0.032736148431897164,0.00832307111932896,-0.002704491452034563
1773798182990384000,7.456384033203125,0.043209027129411694,-0.0010442666222341358,-0.005491802349314093
1773798183010350000,7.47635009765625,0.047996261405944825,-0.0024300127590540796,0.0035280827946029603
1773798183030317000,7.496317138671875,0.029292729979753494,-0.007504238150268793,-0.0013154482464306056
1773798183050284000,7.516283935546875,0.0412654918462038,0.0006131634622812271,-0.00406626305822283
1773798183070251000,7.5362509765625,0.03707505441904068,0.013388921407843007,-0.0013342808110639451
1773798183090218000,7.556218017578125,0.03557926290333271,0.005447533949324861,0.01964596337545663
1773798183110184000,7.576183837890625,0.03602876023650169,-0.0072290653375443065,0.011867036469653248
1773798183130151000,7.59615087890625,0.045156654065847394,-0.014253904206724836,-0.009843257290776819
1773798183150118100,7.6161181640625,0.0524848049968481,-0.005811252695182338,0.0037327385212294756
1773798183170084900,7.6360849609375,0.029290391892194748,-0.0017828100298531353,0.0006339505219832062
1773798183190052000,7.656052001953125,0.0373702379733324,0.004996566178277134,-0.002742467108555138
1773798183210017800,7.676017822265625,0.04679682248830795,-0.0021491773905232547,-0.011246201157569885
1773798183229985000,7.695985107421875,0.03707037824392319,0.0030277229238767174,-0.0027277079308405516
1773798183249952000,7.715951904296875,0.03272913416922092,-0.000012667685328051447,0.006456921054422855
1773798183269919000,7.7359189453125,0.030333178943395614,0.005875577502511441,0.007485898775979876
1773798183289885000,7.755885009765625,0.04350011903047561,0.012646752137877046,0.0057619610602036115
1773798183309852200,7.77585205078125,0.041104163804650304,0.002970485444460064,0.006650726593472063
1773798183329819000,7.79581884765625,0.03691372637748718,0.00452924092747271,0.00011482201870530843
1773798183349786000,7.8157861328125,0.04289806148409843,0.003280683904793113,0.00037471506390720604
1773798183369753000,7.835753173828125,0.03825695767998695,-0.012670498339645564,0.004884904231037945
1773798183389719000,7.855718994140625,0.03915536782443523,0.002453685895586386,-0.00151091601960361
1773798183409686000,7.87568603515625,0.039305005428195,-0.0003722673784941435,0.016752415624726562
1773798183429653000,7.895653076171875,0.044992403414845464,0.0028267843911424276,0.004909709878731519
1773798183449620000,7.915619873046875,0.047239890080690385,0.0028098515226505695,0.009349500690773128
1773798183469586200,7.935586181640625,0.04125730853974819,-0.011604659206420183,-0.007970631819311529
1773798183489553000,7.955552978515625,0.036470074263215066,-0.0006661266253795475,0.006804656779859215
1773798183509520100,7.97552001953125,0.04200549655854702,-0.003393469230039045,0.016719225741177797
1773798183529487000,7.995487060546875,0.03601999240815639,0.0018623232731595635,0.007907010264880955
1773798183549454000,8.0154541015625,0.03811667242646217,0.007059910182561725,0.0027717297356575727
1773798183569420000,8.035419921875,0.0502367338091135,0.004948589717550203,0.011622158330492675
1773798183589387300,8.05538720703125,0.040208676269650453,0.01616100733652711,0.01098895672718063
1773798183609354000,8.07535400390625,0.04484802650809288,0.0035582952697761354,0.012732165399007499
1773798183629321200,8.0953212890625,0.028237083446979522,0.008640411706501618,0.008178593747876583
1773798183649287200,8.115287109375,0.041405192577838895,0.004130213406216353,0.002016180394310504
1773798183669254100,8.135254150390624,0.0376665905714035,0.0013379340728744864,-0.0021246640037745237
1773798183689221000,8.15522119140625,0.02509820089936256,0.007171444265637547,0.00461814305363223
1773798183709188000,8.17518798828125,0.04290566026866436,0.015886172450520097,0.0017566709415987134
1773798183729154000,8.195154052734376,0.02749474064707756,0.0027588611209299414,0.003189443691074848
1773798183749121300,8.215121337890626,0.025252514678239822,0.007474363601813093,0.0015986856346018612
1773798183769088000,8.235087890625,0.04979132812917232,-0.004066180859832093,-0.006324508580099791
1773798183789055200,8.25505517578125,0.03617489070892334,-0.0010496369170956313,-0.00303715747250244
1773798183809022200,8.275022216796875,0.03751987557709217,0.0018915037018712609,0.007874003044422715
1773798183828988200,8.29498828125,0.03766892865896225,0.005755622650962322,0.008128197001200169
1773798183848955100,8.314955078125,0.04036123648285866,0.00336538477987051,-0.004088748884666711
1773798183868922000,8.334922119140625,0.027192542830109596,-0.0008980174188036471,0.010655961913149803
1773798183888889000,8.35488916015625,0.045448330488801,0.009886384046450257,0.012460581916011869
1773798183908855300,8.374855224609375,0.031232173609733578,0.0015554036153014748,0.006742186002898961
1773798183928822000,8.394822021484375,0.046045127338171,-0.0018279826121404767,0.015957593718916176
1773798183948789000,8.4147890625,0.04649287110567093,-0.006745154278120026,0.0010051767208613454
1773798183968756200,8.434756103515625,0.033175708892941476,-0.0037415702816564586,-0.00320829452201724
1773798183988722200,8.45472216796875,0.027189035698771475,0.009007144393352791,0.005096994345448911
1773798184008689200,8.474689208984374,0.035869770282506944,0.000576539512630552,0.005262085246667265
1773798184028656000,8.49465625,0.04589548973441124,0.0011837664244696497,0.008412585166841745
1773798184048623000,8.514623046875,0.03602174597382545,0.000455205554747954,0.012647007866203784
1773798184068589300,8.53458935546875,0.037516952967643735,0.011837116255424916,0.018557547084242104
1773798184088556000,8.55455615234375,0.03602057693004608,-0.003251119883591309,0.0001641227868385613
1773798184108523000,8.57452294921875,0.02360124033987522,0.010965046128630638,0.005273684352915734
1773798184128489000,8.594489013671875,0.03826455646455288,0.005715098844328895,-0.0034729185412637887
1773798184148456200,8.614456298828125,0.03676701138317585,0.0007605543100275098,0.006285528276581317
1773798184168423200,8.634423095703125,0.044100423011183734,0.0015387721409089862,-0.009158690826408564
1773798184188390100,8.65439013671875,0.038711715710163117,0.00037364648482762276,0.012884853476379066
1773798184208356000,8.674356201171875,0.043347558817267415,-0.00533384444178082,0.008670048792939632
1773798184228323300,8.6943232421875,0.042298926547169685,0.0008346789921633899,-0.008655527077242731
1773798184248290000,8.7142900390625,0.034815877315402026,0.004949183372594416,0.002575275581795722
1773798184268257000,8.734257080078125,0.04858195233941078,0.0008863909130915999,-0.002790635365527123
1773798184288223000,8.754222900390625,0.04603869759738445,0.011411429056106134,0.0004996748841367662
1773798184308190200,8.774190185546875,0.03301847250461578,-0.009560540492413564,0.0076174162011593575
1773798184328157200,8.7941572265625,0.05067454070448875,0.011234857779648154,0.002370729453023523
1773798184348124000,8.8141240234375,0.046485272321105,0.001978113406244665,0.005733483884390443
1773798184368090000,8.834090087890624,0.024039047235250473,-0.005607300221454352,0.003157788177486509
1773798184388057000,8.85405712890625,0.04049567651748657,-0.009865478255739435,0.00285960894851014
1773798184408024000,8.874024169921874,0.043189153385162354,-0.0037143169485498216,0.0082695051680319
1773798184427990300,8.893990234375,0.03645721478164196,0.0041185503678862,-0.0007092625142075121
1773798184449829000,8.9158291015625,0.039299744731187816,-0.005292580849630758,0.006214746329002082
1773798184469796000,8.935796142578125,0.028673136776685714,0.004937794328900054,0.0075675491774454704
1773798184489763000,8.95576318359375,0.04139291761815548,0.0008617587953340262,0.001249232876114547
1773798184509729000,8.97572900390625,0.04064414507746696,-0.0077586056369822465,0.010514653746318072
1773798184529696300,8.9956962890625,0.041839492341876026,-0.002643399781407788,0.008004168762732296
1773798184549663000,9.0156630859375,0.04782499649226665,-0.017065491028735412,-0.005062836347520351
1773798184569629200,9.035629150390625,0.032711013990640636,0.011734276935458183,0.01767354905763641
1773798184589596200,9.05559619140625,0.034956747090816497,-0.0004408208363689482,0.010934267397876828
1773798184609563000,9.07556298828125,0.03271452112197876,0.012221348066348581,0.011765676720719783
1773798184629529900,9.09552978515625,0.03361293126642704,0.002416349559882656,0.007851608549524098
1773798184649496000,9.11549609375,0.04887655137181282,0.007387708231667056,0.0036607875298708677
1773798184669463000,9.135463134765626,0.04004851727187633,0.0038197044186294078,0.01418996299188584
1773798184689430000,9.155429931640626,0.04558218600153923,0.005791634679259732,0.006651822572015226
1773798184709396000,9.17539599609375,0.039300329253077505,0.005610825619101524,0.0025780885933898386
1773798184729363000,9.195363037109376,0.03256722160577774,0.014376736001949756,0.006108144149370491
1773798184749330000,9.215329833984375,0.038403088152408595,-0.002382246360881254,0.013883015934564173
1773798184769296000,9.2352958984375,0.04379179545342922,0.005160926427133381,0.011145955653488636
1773798184789263000,9.25526318359375,0.044838674157857895,0.010067375769698992,-0.002023194656986743
1773798184809854000,9.27585400390625,0.04274433222711086,0.003876649637101218,0.0019814926734194158
1773798184829820000,9.29581982421875,0.03990004871189594,-0.006054075874574482,-0.00413262455901131
1773798184849787000,9.315786865234376,0.033168694630265234,-0.008235840360447763,0.006262585792411119
1773798184869754000,9.335754150390626,0.018952537751197814,-0.002220817854627967,0.010841511080507188
1773798184889720800,9.355720947265626,0.036761750686168666,0.0006360785469878465,0.000266943840496242
1773798184909687000,9.37568701171875,0.04214928894340992,0.0024985205511562523,0.007291709644440561
1773798184929653800,9.39565380859375,0.04648761040866375,-0.006236401038384065,0.00045720571558922527
1773798184949621000,9.41562109375,0.040054362490773196,0.01043029079795815,0.007449165228474885
1773798184969587200,9.435587158203125,0.04678805465996265,0.007761592178512364,0.0026778226408176124
1773798184989554000,9.455553955078125,0.03721183254122734,-0.0035768812392372638,0.015974307391699402
1773798185009521000,9.47552099609375,0.02883329577445984,-0.001569697002135217,-0.008387907383311539
1773798185029486800,9.49548681640625,0.03092939127087593,-0.0015892145533580333,0.02072888150764629
1773798185049454000,9.5154541015625,0.03661386664807796,0.005181010233936831,0.01732553933756426
1773798185069421000,9.535421142578125,0.04648936397433281,0.00635032800794579,0.016145681903231887
1773798185089387000,9.555386962890625,0.03915478330254554,0.009239245249330997,0.010221077627222984
1773798185109354000,9.57535400390625,0.044990065327286714,-0.0026703425872605293,0.01239544425792992
1773798185129321200,9.5953212890625,0.03616436931490898,0.004223298517148941,0.011354301174543797
1773798185149287000,9.615286865234374,0.030178280642628667,-0.007268210037844255,-0.004780768003128468
1773798185169254100,9.635254150390624,0.03571604102551937,-0.00514427668643184,0.009975085243210197
1773798185189220900,9.655220947265626,0.04185176730155945,-0.0029845322361215947,0.0029658092693425715
1773798185209187000,9.67518701171875,0.045593291917443275,0.006716558371298015,0.0014068345906212926
1773798185229153800,9.69515380859375,0.054122050809860225,0.004893973453482613,0.0016606814875267445
1773798185249121000,9.71512109375,0.042300680112838746,-0.00267429724317044,-0.010286708475649357
1773798185269087000,9.7350869140625,0.04230301820039749,0.012124655359378084,-0.0027771913620643317
1773798185289054000,9.755053955078125,0.05696633432507515,-0.0040108704760205,-0.0007726283403113484
1773798185309021000,9.77502099609375,0.03407178094983101,-0.006297775836801156,0.015662665892951188
1773798185328987000,9.79498681640625,0.043648587590456006,-0.004320511813927442,0.0014837357517331839
1773798185348953900,9.814953857421875,0.050230888590216634,-0.0029952910921536386,0.0030410299300216138
1773798185368921000,9.834921142578125,0.031224574825167654,0.0009315908948425203,0.00821050498979166
1773798185388887000,9.854886962890625,0.03526420560479164,-0.00488659386462532,0.005486267657671124
1773798185408854000,9.87485400390625,0.027034721919894217,0.00013660459225066005,0.005877020540926605
1773798185428821000,9.894821044921875,0.04274725483655929,0.007732393483491614,0.004787234276533127
1773798185448787000,9.914786865234374,0.04125204784274101,0.009087223892239853,0.017067911314684898
1773798185468754200,9.934754150390624,0.0476835421949625,-0.009962938147690146,0.005236220153048634
1773798185488721000,9.954720947265624,0.03660977499485016,0.004575957012875005,0.012317374053038656
1773798185508687000,9.97468701171875,0.03391688264906406,0.001036019383696839,0.008721504985541105
1773798185528654000,9.994654052734376,0.045290509578585623,-0.003988759108912199,-0.00241155465375632
1773798185548621000,10.01462109375,0.03960252707004547,-0.0005978197626769542,-0.01219150091735646
1773798185568587000,10.0345869140625,0.04543780909478664,-0.0001166121169924736,0.008340579376555978
1773798185588554000,10.054553955078125,0.04184826017022133,0.009274462693184613,0.00643920273464173
1773798185608521000,10.07452099609375,0.02793079397678375,-0.0018480390194803476,0.0030200419409200548
1773798185628487000,10.09448681640625,0.02568739896416664,0.0023364253246225416,0.012530541879683733
1773798185648454000,10.114453857421875,0.04544014718234539,0.0032374110186472534,0.0032326435119844972
1773798185668420900,10.1344208984375,0.03586334054172039,-0.003654878378892317,0.002171261358167976
1773798185688386800,10.15438671875,0.043643911415338514,0.002330872366670519,0.004326466630678624
1773798185708354000,10.17435400390625,0.036458968347311015,0.002469632383389398,0.01251647682171315
1773798185728320000,10.194320068359374,0.03720540280044079,-0.0013774806319735943,0.0022327457544393838
1773798185748287000,10.214286865234374,0.04738134437799454,0.004568020301591605,0.0006839088772423564
1773798185768253700,10.234253662109374,0.05082300926446914,0.005328044888656586,0.015222539176326244
1773798185788220000,10.254219970703126,0.045585693132877345,-0.005179274934576824,0.012189838683232665
1773798185808187000,10.274186767578126,0.0457359152585268,-0.004705191149422899,0.012480199931934475
1773798185828153900,10.29415380859375,0.040351884132623674,0.0065700808390043676,0.01175795007199049
1773798185848120000,10.3141201171875,0.04798281740248203,-0.003952719681151211,-0.0038093656877055764
1773798185868086800,10.334086669921875,0.0502279659807682,0.00173474223758094,0.0048506914341822265
1773798185888054000,10.354053955078125,0.03556464985609054,0.0017633746770210562,0.009278536080103367
1773798185908020000,10.37402001953125,0.04274550127089023,0.001257069122698158,0.008740483680646866
1773798185927987000,10.393987060546875,0.04379296449720859,-0.003673793141916394,0.008457830814365297
1773798185947954000,10.413953857421875,0.036459552869200704,0.009328448769589886,0.0023874613921158016
1773798185967919900,10.433919921875,0.04872866733372211,-0.009889416253753006,-0.0025189057520590722
1773798185987886800,10.453886962890625,0.05381634586155414,-0.00045706871827133,0.003454396503884345
1773798186007852800,10.473852783203125,0.04274374770522117,-0.0032555403303820636,-0.00013931713914498687
1773798186027819800,10.49381982421875,0.04573766882419586,0.002616064249910414,0.0009920067120343446
1773798186047787000,10.513787109375,0.03556114272475242,0.013327126484317704,0.011216427073813973
1773798186067753000,10.5337529296875,0.034064182165265085,0.004726370934769511,0.012404157287348061
1773798186087720000,10.553719970703124,0.037355624926090236,0.0012028364511206745,0.007239559332095086
1773798186107686000,10.573685791015626,0.04049801460504532,-0.002857069931551814,0.006464976496715099
1773798186127652900,10.59365283203125,0.04648351875543594,0.003699804366007447,0.009003628128860146
1773798186147619800,10.613619873046876,0.04528524888157844,0.007459851019270718,0.008334131369460374
1773798186167585800,10.633585693359375,0.03346329366266727,0.009392755310609936,0.009998667048197239
1773798186187553000,10.653552978515625,0.03451134141087532,-0.013514438350498675,0.007438369839824736
1773798186207520000,10.67352001953125,0.03810498198866844,-0.004705373812513426,-0.002080989258829504
1773798186227486000,10.69348583984375,0.03196984023451805,0.0007852320935577154,-0.006578446808550507
1773798186247453000,10.713452880859375,0.044838089635968206,-0.0002367861642502248,0.004550557710137218
1773798186267419000,10.7334189453125,0.054264674150943756,0.005002557527646422,0.014284966065268963
1773798186287385900,10.7533857421875,0.04902852706313133,0.008967077244445681,0.0032100663539953527
1773798186307353000,10.77335302734375,0.03421440429091453,0.005123169966321438,0.0020925883650779725
1773798186327318800,10.79331884765625,0.025085925939679145,-0.000235626253625378,-0.0030882666052319107
1773798186347286000,10.8132861328125,0.03720832540988922,-0.002010563504276797,0.005361928891949356
1773798186367252000,10.833251953125,0.045586277654767034,0.004397860499611124,0.014626235517300664
1773798186387219000,10.853218994140626,0.041246202623844146,0.0010172416179906577,-0.001767301933467388
1773798186407186000,10.87318603515625,0.03810498198866844,0.0017240473136305807,0.020605054198578
1773798186427152000,10.89315185546875,0.038403088152408595,0.003191325120907277,0.005825710478797555
1773798186447119000,10.913119140625,0.03825345054864883,0.003735314070805907,0.002672178351320326
1773798186467084800,10.933084716796875,0.03930266734063625,0.0009228139333426952,0.008413005291949957
1773798186487052000,10.953052001953125,0.03331891675591469,-0.004917226464906707,-0.008951496082823723
1773798186507018800,10.973018798828125,0.04139934735894203,0.007201538009801879,0.005536500007566064
1773798186526985000,10.99298486328125,0.04663432540297508,-0.0030982582762837407,-0.0038981216833926737
1773798186546952000,11.012951904296875,0.03885492357313633,0.0035438283530063925,0.011465944855473935
1773798186566918000,11.03291796875,0.04469195916354656,0.009729494717996567,0.001603288744483143
1773798186586884400,11.05288427734375,0.0514262358546257,0.002286348238354549,0.0013069361464120447
1773798186606851300,11.072851318359374,0.02508826402723789,0.009262680923845619,0.014396828941907733
1773798186626817300,11.0928173828125,0.04618775067925453,0.008219007956655696,0.010012037986423819
1773798186646784300,11.1127841796875,0.03436813354790211,0.0010886994190048426,-0.00021307649509981274
1773798186666750200,11.132750244140626,0.03631459144055843,0.0010210684097371994,0.0009457381512038409
1773798186686717200,11.15271728515625,0.04065466647148132,0.0034133886400610205,0.005096848214976489
1773798186706683400,11.172683349609375,0.03870937762260437,0.0022123696866910903,0.003754128369130194
1773798186726650000,11.192650146484375,0.049782560300827026,0.008749178443755954,0.008744885861128569
1773798186746617300,11.212617431640625,0.03227437613904476,-0.0015890501565765588,0.005338730679452419
1773798186766583300,11.232583251953125,0.03466857779920101,0.0015368359121493995,0.010264880236331373
1773798186786550300,11.25255029296875,0.03841127145886421,0.005164762352034449,0.010767696925625205
1773798186806516200,11.27251611328125,0.03197685449719429,0.002031186167197302,0.0021008264704607425
1773798186826483200,11.292483154296875,0.04424713800549507,-0.006904701354540884,0.0016644260808825492
1773798186846450400,11.312450439453125,0.036468320697546006,0.017072724487120286,0.007096241871267557
1773798186866416000,11.332416015625,0.029884266132116317,-0.004773169218562543,0.013380765500850975
1773798186886383400,11.35238330078125,0.05143091202974319,0.009519340832345187,-0.004857797028403729
1773798186906349000,11.37234912109375,0.043051206219196315,-0.0034933311416301873,0.011154212025180459
1773798186926316300,11.39231640625,0.03302665581107139,0.010857950758654623,0.006445650741737335
1773798186946282500,11.412282470703126,0.03497486726939678,0.0009451262298505752,0.0005029628197662532
1773798186966249200,11.432249267578126,0.04425239870250225,0.0002946538313291967,0.010285338502470404
1773798186986216200,11.45221630859375,0.05203413861989974,0.011064935439685359,0.007554342636000365
1773798187006182100,11.47218212890625,0.03258241917490959,-0.004338641125662252,0.003013740064296871
1773798187026149400,11.4921494140625,0.04201017273366451,0.004185149330692366,0.0077668346092104905
1773798187046115000,11.512114990234375,0.03737257606089115,-0.007416377203725278,0.003854191210120916
1773798187066082300,11.532082275390625,0.031086043137311933,-0.0044838856820948415,0.009312054757215082
1773798187086048300,11.55204833984375,0.03647475043833256,-0.004418035637959838,0.0072980663199909025
1773798187106015200,11.57201513671875,0.037973464563488955,0.00258329449146986,0.004293185415584593
1773798187125982200,11.591982177734375,0.029745734444260596,-0.007681457880698144,0.004343965754751116
1773798187145948200,11.6119482421875,0.04096797020435333,-0.010775907631544396,0.002847790646553039
1773798187165915100,11.6319150390625,0.039922845065593716,0.002095291778817773,0.015294325770903379
1773798187185881300,11.65188134765625,0.03423603160083294,0.0024501696310937405,0.0019595548362471163
1773798187205848300,11.671848388671876,0.04036941978931427,0.006900518369767814,0.009353391414601356
1773798187225814300,11.691814208984376,0.04785013093352317,0.0055877918033860625,0.009885342866834252
1773798187245781200,11.71178125,0.041267829933762545,-0.010867430973052978,0.011154376421961933
1773798187265747200,11.731747314453125,0.039025019443035124,0.002265597711270675,0.010661587936338037
1773798187285714400,11.75171435546875,0.03827800046801567,0.00107470742627047,0.011777969946712255
1773798187305681200,11.77168115234375,0.036034020933508874,0.005472622724808752,0.012016929801739752
1773798187325647400,11.7916474609375,0.04411269797086716,0.008398629706725478,-0.0028885610483586786
1773798187345614000,11.811614013671875,0.048750294643640515,-0.0077915671916678544,0.00014855989152565596
1773798187365580300,11.831580322265625,0.03797814073860645,0.017293034440604968,0.013434030058048664
1773798187385547300,11.85154736328125,0.04247077598273754,0.0035215525891166177,0.0007325885908678174
1773798187405513200,11.87151318359375,0.03454173654913902,0.0006051810852251946,0.01172676948243752
1773798187425480400,11.89148046875,0.033493688800930975,0.0040080483312718565,-0.00553761425241828
1773798187445446100,11.911446044921876,0.04681085101366043,0.0026726806748192757,0.0024525807838886977
1773798187465413400,11.931413330078126,0.03364391092658043,0.005474239293159917,0.005354494504164904
1773798187485380000,11.951380126953126,0.04995499425828456,-0.00033893136447295545,0.005994089315645396
1773798187505346300,11.97134619140625,0.03888298062384128,-0.0026057529184501617,-0.006333623468317091
1773798187525313300,11.991313232421875,0.03858312089443207,0.0030363080891314892,0.010414700503181665
1773798187545279200,12.011279296875,0.04352349990606308,0.006468657157989218,0.0014477511228993534
1773798187565246500,12.03124658203125,0.04502046046555042,0.007030117832496762,0.019670166234951464
1773798187585212200,12.051212158203125,0.02990764700770378,0.0040830223967786876,0.0067076992114074524
1773798187605179400,12.071179443359375,0.045023383074998855,-0.007758660435909405,0.005739913625176995
1773798187625145000,12.09114501953125,0.0382896909058094,-0.007048119280068203,-0.005037080851756036
1773798187645112300,12.1111123046875,0.029761516535282133,0.008798935869615524,-0.009735376469511538
1773798187665078300,12.131078369140624,0.03709317459762096,0.0034178273531608283,0.0030869331646710633
1773798187685045200,12.151045166015624,0.04726911617517471,0.013986512841656803,0.004205835925694555
1773798187705011500,12.171011474609376,0.03544774547815323,0.0060797035061754285,0.003789510209765285
1773798187724978200,12.190978271484376,0.050713119149208064,0.010473600216722116,0.00803145862845704
1773798187744944400,12.2109443359375,0.03993979620039463,-0.0013747224193066357,-0.005194554702099412
1773798187764911000,12.2309111328125,0.04263268854618072,0.009993141489708795,-0.010567626042570917
1773798187784878300,12.25087841796875,0.029465163937211034,-0.006254384219646454,-0.002842456884309649
1773798187804844300,12.27084423828125,0.03620002515017986,0.0006657612991984933,-0.00020008914936333895
1773798187824811300,12.290811279296875,0.035304537615180015,-0.000056899552699178456,-0.007718447156529873
1773798187844777500,12.310777587890625,0.026926000848412512,-0.008932142928382382,0.00825956829590723
1773798187864744200,12.330744140625,0.04533142611086368,0.01514311726456508,0.007737608514726162
1773798187884710400,12.35071044921875,0.04503331994712353,-0.011893440419388935,-0.0025433278072625395
1773798187904677400,12.370677490234375,0.0390478157967329,-0.0007803641221951693,0.008755133260507137
1773798187924643300,12.390643310546874,0.04967208566367626,-0.003264162028254941,0.008927932544145733
1773798187944610300,12.4106103515625,0.033809915143251414,-0.00030491036386229097,0.00445571903353557
1773798187964576300,12.430576171875,0.028571429967880247,0.0017805358743760735,0.0015219488702714443
1773798187984543200,12.450543212890626,0.04159048601686954,-0.008314997410727665,0.006100600163731724
1773798188004509200,12.47050927734375,0.03515723809897899,0.000777459779055789,0.00392199574932456
1773798188024476400,12.490476318359375,0.036955811953544616,0.010959100445033981,-0.0034184301413595674
1773798188044442000,12.510442138671875,0.039949148550629615,-0.0013084796495269984,-0.000888747266959399
1773798188064409300,12.530409423828125,0.037405309286713595,-0.0030343444609083232,-0.007519581849873065
1773798188084375300,12.550375244140625,0.03231821528077125,0.009263073649490252,0.0012747509098611771
1773798188104342300,12.57034228515625,0.03980184903442859,0.01331301576057449,0.004946863551344723
1773798188124308200,12.59030810546875,0.03426467317342758,-0.0024720892019569874,-0.0033099830645136534
1773798188144275200,12.610275146484375,0.03172317199707031,0.0014500070120673626,0.00929009865373373
1773798188164241400,12.630241455078124,0.04324409844279289,-0.001446554679656401,0.0026036066271364687
1773798188184208400,12.65020849609375,0.03785772922933101,0.0010438099645078182,-0.005076846606563776
1773798188204174300,12.67017431640625,0.038756139373779294,-0.005657733500748873,-0.0060020168937742705
1773798188224141300,12.690141357421876,0.05237433035969734,0.00460484518064186,0.0047418242322281
1773798188244107300,12.710107177734375,0.04085340391397476,0.009048873776383698,0.008248827706184238
1773798188264074200,12.73007421875,0.04175122953653335,0.007781749050552025,0.002242025039438158
1773798188284040200,12.750040283203125,0.03920797479450702,-0.004111042914865538,-0.012555256195832042
1773798188304007200,12.770007080078125,0.04339665865600109,0.0040445626830682155,0.0011440189359709619
1773798188323973000,12.78997314453125,0.031575872480869294,0.004054645685665309,0.01490001095738262
1773798188343940400,12.8099404296875,0.049233109724521634,-0.003100130572961643,-0.003353201151732355
1773798188363906300,12.82990625,0.03666355100870132,0.00381671787709929,-0.0015301139104180036
1773798188383873300,12.849873291015625,0.03337210824787617,-0.0013832345193251967,-0.003788213301822543
1773798188403839200,12.869839111328124,0.035467034700512885,-0.002420422946801409,0.010261519235465675
1773798188423806200,12.88980615234375,0.03531505900919437,-0.004280590795492753,-0.005653331320267171
1773798188444396300,12.910396240234375,0.03815817348062992,-0.006439175335178151,0.010794237872678785
1773798188464363300,12.93036328125,0.04803659341633319,-0.008824737031152472,0.00514242265606299
1773798188484329200,12.9503291015625,0.04190028261840343,-0.0007612758292350918,-0.0029867789921350775
1773798188504296200,12.970296142578125,0.0396580566495657,0.007051982604432851,0.008343958643730729
1773798188524262100,12.99026220703125,0.039512510699033734,-0.0009924999023787676,0.0058934054201468826
1773798188544229400,13.0102294921875,0.03307984730303287,-0.002722410701215267,-0.0008298201539553701
1773798188564195300,13.0301953125,0.048342882886528965,0.01572639704523608,0.007067892559617758
1773798188584163000,13.0501630859375,0.037568975415825843,0.0013908698365092276,-0.00041367710111662743
1773798188604129000,13.07012890625,0.04086158722043037,-0.008797538496972993,0.006294752762652933
1773798188624096000,13.090095947265626,0.045049102038145064,0.012171709371497854,0.004774922784231603
1773798188644062000,13.11006201171875,0.04430032949745655,0.0016138649374246596,0.00612359744682908
1773798188664029000,13.13002880859375,0.03382569723427296,0.018039715488906947,-0.002132975174393505
1773798188683995100,13.1499951171875,0.050884968584775925,0.004933693542517721,0.016815361325722186
1773798188703962000,13.169962158203125,0.030832360637187955,0.0076327051018364725,-0.006773549255542456
1773798188723928000,13.189927978515625,0.04250643181800842,0.0018327957845758645,0.008681885361205786
1773798188743895000,13.20989501953125,0.0416097752392292,0.004090155390463769,0.01355767470402643
1773798188763861000,13.229861083984375,0.02964052050411701,0.00033364326800219715,0.0017784261156804859
1773798188783828000,13.249827880859375,0.041160862427949904,-0.005986983721423894,0.010997724555525928
1773798188804418000,13.27041796875,0.04729717322587967,-0.003114670554967597,0.008998568361252545
1773798188824384000,13.290384033203125,0.043404257440567015,-0.004175860912539064,0.002221530240681022
1773798188844351000,13.31035107421875,0.04654898520708084,0.001441111319558695,0.006914510362502187
1773798188864317000,13.33031689453125,0.0483458054959774,0.002733388752955943,-0.012036657415516674
1773798188884284000,13.350283935546875,0.04071604126989841,0.003263303511729464,0.006612312545534223
1773798188904249900,13.370249755859374,0.0484983657091856,0.0012259615983814,0.003732044401485473
1773798188924217000,13.390217041015624,0.04565642028152942,-0.004692861390812322,0.01179939632723108
1773798188944182800,13.410182861328124,0.04700432775914669,0.004112796480534598,-0.013651125141140072
1773798188964150000,13.43014990234375,0.0342857159614563,-0.007242710270406678,0.008084942381363362
1773798188984116000,13.450115966796876,0.05194353772699833,-0.003996147830924019,-0.012088223205972462
1773798189004083000,13.4700830078125,0.043864860689640045,-0.0026741328463889655,0.02178591627990827
1773798189024049200,13.490049072265625,0.038030747708678245,-0.002477295100037008,0.010632562771253287
1773798189044014800,13.510014892578125,0.04117313738763332,0.0018641864366829395,0.008992997136991471
1773798189063982000,13.529982177734375,0.03817980079054832,0.004313461018633097,0.0000548354597762227
1773798189083947800,13.54994775390625,0.04476560892164707,-0.003395277594635263,0.005084025266021489
1773798189103915000,13.5699150390625,0.03788403271436691,-0.000550866215256974,0.004837210898101329
1773798189123881200,13.589881103515625,0.03878244285881519,0.0023612127060070633,0.00005808686278760433
1773798189143848000,13.609847900390625,0.03998129725456238,0.003376901687728241,0.00787531821867451
1773798189163814100,13.629814208984374,0.03639174832999706,0.010871869686152785,0.004339618373196572
1773798189183780900,13.64978076171875,0.0455225647687912,0.005408197452779859,0.0007607552394270896
1773798189203747000,13.6697470703125,0.046720250120759005,-0.008397944720136,0.008709887612983584
1773798189223713800,13.6897138671875,0.03190729639232159,-0.01083291678209789,-0.0005080408536829054
1773798189243680000,13.709679931640625,0.04447919319570064,-0.00840515991221182,-0.0015208894243463873
1773798189263646000,13.72964599609375,0.03640168520212173,-0.0018794936036691068,0.007208488340396434
1773798189283613000,13.749613037109375,0.03655073828399181,-0.00008596125040203332,-0.0016833499770611523
1773798189303579100,13.7695791015625,0.036252632120251656,-0.003954464113665745,-0.009961915234383195
1773798189323545900,13.7895458984375,0.03086392481923103,-0.011362137421127409,0.010303148153796791
1773798189343512000,13.809511962890625,0.041786885371804236,0.0037710886370856313,0.014096275092754513
1773798189363478800,13.829478759765625,0.02727028424143791,0.0017627901551313697,0.0062110930671915405
1773798189383445000,13.849445068359374,0.029068273574113845,-0.00015710852416232228,0.00280411590160802
1773798189403412200,13.869412109375,0.04388064278066158,0.006222436445113271,0.0018386136040091513
1773798189423378000,13.8893779296875,0.03669862232208252,-0.005236941672256216,0.011265088521130383
1773798189443345200,13.90934521484375,0.031461890712380404,0.01336662737764418,0.005848287636786699
1773798189463310800,13.929310791015626,0.0426858800381422,-0.010372724524978548,0.004777516600117087
1773798189483277000,13.949277099609375,0.03849602713286877,0.004473245557071641,-0.003142188749555498
1773798189503244000,13.969244140625,0.03326046456694603,-0.005429468569671735,-0.0067053793901577586
1773798189523210000,13.9892099609375,0.046130467534065245,0.0016365516932681202,0.0024003756726160646
1773798189543177000,14.009177001953125,0.0329611893594265,-0.0055469940021168436,0.0018559483313001692
1773798189563143000,14.029142822265625,0.04014379433989525,0.004753112811222672,0.0025029957968741652
1773798189583109400,14.049109375,0.03281155175566673,0.005308837864687666,0.008626337515376508
1773798189603075600,14.06907568359375,0.036702129453420634,0.004177596211899072,0.004902275490947067
1773798189623041300,14.089041259765626,0.03714870417714119,-0.0012965791491791605,-0.010190445026941598
1773798189643008500,14.109008544921876,0.03490180203318596,-0.010078052427340299,0.0034527708023786544
1773798189662974700,14.128974609375,0.048519993019104,-0.004940579941030592,-0.0010930194010958076
1773798189682941400,14.14894140625,0.028318331989645958,-0.0016111980563029646,0.012509919216763227
1773798189702907600,14.16890771484375,0.04044073145985603,0.0001779412496369332,0.004783836743049323
1773798189722874400,14.188874267578125,0.041186581391096114,-0.00028374884482473134,0.005049520208220928
1773798189742840600,14.208840576171875,0.044026773253083226,0.009542785640014335,-0.00611961539145559
1773798189762806500,14.228806640625,0.043727498045563695,0.009638418901059776,0.004773753740452229
1773798189782773500,14.2487734375,0.03085924864411354,-0.004086803522752598,0.004236614656448364
1773798189802739500,14.268739501953124,0.03594634265005588,-0.0032513025466818363,0.00680334160560742
1773798189822706400,14.28870654296875,0.032055764952301974,-0.01154874603440985,0.007144446660857647
1773798189842672600,14.308672607421874,0.04253156625926494,0.011183876511082052,0.0030928697151131924
1773798189862639400,14.328639404296876,0.05001403096914291,-0.006301949688419699,-0.010386807849258184
1773798189882605600,14.34860546875,0.028465046983957288,-0.0008288794390391558,0.00003799392282962799
1773798189902571500,14.368571533203125,0.046723757252097126,0.010985577460005879,-0.004997059368621558
1773798189922538500,14.38853857421875,0.04044131598174572,0.009900997093692422,0.004448412509914487
1773798189942504400,14.40850439453125,0.04463175340890884,-0.009820570534933359,0.006969217958115041
1773798189962471400,14.428471435546875,0.04103986639678478,0.007408677954459562,0.0028048648202791807
1773798189982437400,14.448437255859375,0.04403437203764915,-0.0019557006450369955,-0.00593625818118453
1773798190002404400,14.468404296875,0.044182256075739855,-0.0015535769843962042,0.0013229009005241096
1773798190022370600,14.48837060546875,0.051663551741838454,0.004486744359461591,0.005793013785593212
1773798190042336500,14.50833642578125,0.04358136757314205,0.007570910178311169,0.003636000148486346
1773798190062303500,14.528303466796874,0.034601357781887054,-0.006003076339699327,-0.00022739728139713406
1773798190082269400,14.54826953125,0.037592356291413304,0.005158734470047057,0.005080682531464845
1773798190102236400,14.568236328125,0.05121054727733135,0.005138851592643186,-0.012777758106403051
1773798190122202400,14.588202392578125,0.047020109850168225,0.007846749711316079,0.008348653085157275
1773798190142168600,14.60816845703125,0.03909282398223877,0.006370905005093664,0.0035068573434837162
1773798190162135600,14.628135498046875,0.040592122629284855,0.002422496172878891,0.0017622056332416832
1773798190182101500,14.6481015625,0.040742929276824,0.002924700940819457,0.00621730361226946
1773798190202068500,14.668068359375,0.044483284848928446,0.006947097457852214,-0.0015594861353747545
1773798190222034400,14.688034423828125,0.029670331120491025,0.0008956975975539535,0.0013406374866142868
1773798190242000600,14.708000732421874,0.04269230977892875,-0.0017428250793367623,-0.0031656426903791724
1773798190261967400,14.72796728515625,0.0286257905036211,-0.005138358402298763,-0.0009518025658093392
1773798190281933600,14.74793359375,0.0440367101252079,0.006547531080478802,-0.002541957834083587
1773798190301900300,14.767900390625,0.04298690881133079,0.012017852250346914,-0.0005899835160933435
1773798190321866500,14.787866455078126,0.03954407488107681,0.006936694794846698,0.005101451324857771
1773798190341832400,14.80783251953125,0.04133738803863525,0.008076174553018062,0.005122073987778276
1773798190361799400,14.82779931640625,0.03220949420928955,-0.0026777495755814012,-0.001439202490262687
1773798190381765600,14.847765625,0.038644495692849154,-0.0014327088173944503,0.0010272789548151195
1773798190401731600,14.867731689453125,0.046726095339655875,-0.004618188719404861,-0.009702844173088669
1773798190421698600,14.887698486328125,0.05226327120065689,0.01065324023310095,0.010091788691747932
1773798190441664500,14.90766455078125,0.03999357221424579,0.0041096546753775325,-0.0007027597081847489
1773798190461631500,14.927631591796874,0.053912207451462746,0.0004352130794897675,0.0031182598846964536
1773798190481597400,14.947597412109374,0.03415945923328399,0.008409863486792893,0.0026262933829799295
1773798190501563600,14.967563720703126,0.036254385685920716,-0.00816019957466051,0.00033131431359797716
1773798190521530400,14.9875302734375,0.05046820447742939,-0.0034717312311753627,-0.001577460183482617
1773798190541496600,15.00749658203125,0.04687631746530532,-0.003973278411990032,0.0040688934067264195
1773798190561463600,15.027463623046875,0.04178454728424549,-0.010108657628158107,-0.004775306376721709
1773798190581429500,15.047429443359375,0.035353052932024,-0.0029732162576634434,-0.004296948275249451
1773798190601395700,15.067395751953125,0.04103869735300541,0.008664431902905926,0.0021727774618193504
1773798190621362400,15.087362548828125,0.04687573294341564,0.00392597780469805,0.0031889139681123197
1773798190641328600,15.10732861328125,0.040890813314914704,-0.009337463193107395,-0.006417995549831539
1773798190661294300,15.12729443359375,0.046727848905324935,0.008557300000311806,-0.002308824931643903
1773798190681261600,15.147261474609374,0.04298749333322048,-0.0035036059404723345,-0.0009044014938175678
1773798190701227500,15.1672275390625,0.041488779208064076,0.00117813126812689,-0.006817461462505161
1773798190721194500,15.187194580078126,0.047326399320364,0.003963834730209783,0.011481854810658842
1773798190741160700,15.20716064453125,0.0438841499119997,-0.0035824433303438125,0.013120799390412866
1773798190761126400,15.22712646484375,0.03191255708932876,-0.0077735748772509395,0.0016192169659771025
1773798190781093600,15.24709375,0.02802314843535423,-0.0004052106668706983,0.011757255952246486
1773798190801059600,15.2670595703125,0.05346154107451439,-0.0005637348299846053,0.0021593151920475066
1773798190821025500,15.287025634765625,0.05286532874703407,0.009386307303514332,-0.005912420647870749
1773798190840992500,15.306992431640625,0.041940614628791804,-0.0072439615125767885,0.007371369018219411
1773798190860958500,15.32695849609375,0.02637888835966587,-0.005013389448914676,0.001479991158377379
1773798190880924400,15.34692431640625,0.04568213924467563,-0.004079652262758463,-0.0013230470309965312
1773798190900891600,15.3668916015625,0.04553191711902618,0.002682754544261843,0.0010274616179056465
1773798190920857300,15.386857421875,0.0447860671877861,0.00401853319266811,0.001503591229673475
1773798190940824600,15.406824462890626,0.052718029230833054,0.011625291002495214,-0.0000750927965156734
1773798190960790500,15.42679052734375,0.04508592691719532,0.0024821082724723964,-0.00776811325084418
1773798190980756500,15.446756591796875,0.03596270926296711,-0.004634062141971662,0.004742280889954418
1773798191000723700,15.4667236328125,0.05392039075791835,0.007065691469376906,0.000927727570477873
1773798191020689400,15.486689453125,0.027286066332459447,-0.0054888888730201865,-0.006540927809756249
1773798191040655600,15.506655517578125,0.0412000253945589,-0.0011289766304660588,0.0013313399353064596
1773798191060622300,15.526622314453125,0.04957739311754703,-0.005884208333538845,0.000026632278598845005
1773798191080588500,15.546588623046874,0.040298692640662194,-0.0022615791232790798,0.0028254326842725276
1773798191100554500,15.566554443359376,0.049129064828157425,0.00022066614651121197,0.0030577436028048394
1773798191120521500,15.586521484375,0.042697570475935934,0.0015344795582816005,-0.0060062912100926034
1773798191140487400,15.6064873046875,0.034765608432888985,0.004453271348122507,-0.0039055926037952302
1773798191160453600,15.62645361328125,0.048231823727488514,0.0010249500004108996,-0.0035338366819545625
1773798191180420600,15.646420654296875,0.0397013112694025,-0.00606189385484904,0.009525715774204581
1773798191200386600,15.666386474609375,0.041047465181350704,-0.002756057242490351,-0.002862221030704677
1773798191220352500,15.6863525390625,0.03401449780464172,0.01105381125747226,-0.006266494782548398
1773798191240319500,15.706319580078125,0.03132043641507625,-0.003385879578627646,-0.003134498633444309
1773798191260285700,15.72628564453125,0.05002572140693664,-0.011073356208158656,-0.0008644530759193003
1773798191280251400,15.74625146484375,0.04568623089790344,0.0020072299028746784,0.01037119015501812
1773798191300218600,15.766218505859374,0.049427755513787267,0.005263683548709377,0.006056249565351754
1773798191320184600,15.7861845703125,0.050475218740105625,-0.006741190489055589,0.0037215595400892196
1773798191340150500,15.806150634765626,0.04733341358304023,-0.003962793550593778,0.003213902278896421
1773798191360117500,15.826117431640625,0.03715805652737617,0.003523086959077045,-0.0015517777529545128
1773798191380083500,15.84608349609375,0.036112346866726874,0.005183512718277052,0.0071596624962985515
1773798191400049400,15.86604931640625,0.023090952730178832,0.0013996833306271581,-0.01109765953235328
1773798191420016600,15.8860166015625,0.05032616565823555,0.008604600607603787,0.008441701663471758
1773798191439982300,15.905982421875,0.051074353677034376,0.009846517826942727,-0.0014794797017239033
1773798191459948500,15.925948486328124,0.037458500778675075,0.001343642294453457,0.005819299004320055
1773798191479915500,15.94591552734375,0.04239595718085765,-0.00043264666306786235,0.004651643464434892
1773798191499881500,15.965881591796874,0.05227320807278156,0.004372689525736496,-0.0029017310571856796
1773798191519847700,15.98584765625,0.03790682906806469,-0.00540972268958576,0.008214286115765572
1773798191539814400,16.005814453125,0.04568681541979313,0.0012445841004606335,0.007874788495711983
1773798191559780600,16.025780517578124,0.042991584986448284,-0.00022750687925145028,0.006861300604231655
1773798191579747000,16.0457470703125,0.03910100728869438,0.0017187409508507697,0.011061181713175028
1773798191599713800,16.0657138671875,0.03640694589912891,-0.006848486788431182,-0.011586648625694215
1773798191619680000,16.085679931640627,0.04328969115018844,0.0007048786000348628,0.005459343118127435
1773798191639645700,16.105645751953126,0.054363458350300785,0.00116581064267084,-0.0029705585096962746
1773798191659613000,16.125613037109375,0.028476152899861332,0.0018344854181632398,-0.0010459105900488793
1773798191679579100,16.1455791015625,0.038650340911746024,-0.00413572983155027,0.00023380875587463378
1773798191699544800,16.165544921875,0.042839609295129776,-0.001762561826268211,-0.0021365736372768876
1773798191719510800,16.1855107421875,0.04493453574776649,-0.013152464037155732,-0.004270151599869132
1773798191739477800,16.205477783203126,0.040595629760622975,0.004220111046219244,-0.004418273099977523
1773798191759444000,16.22544384765625,0.03715104226469993,0.0019075871869921684,-0.0030357692330144344
1773798191779410000,16.245409912109373,0.048372108981013295,-0.002262309775641188,0.0014942388794384896
1773798191799377000,16.265376953125,0.02697276259958744,0.00010009024045430123,-0.0015955803620629012
1773798191819342800,16.2853427734375,0.037598201510310174,0.007745755288563669,-0.003236863029375672
1773798191839309000,16.30530908203125,0.04986906954050064,0.002881217992119491,-0.0069434807286597785
1773798191859275800,16.32527587890625,0.04432780202627182,0.004186820697970688,0.005261884317267686
1773798191879242000,16.345241943359376,0.05016366857290268,-0.0028925431037321687,0.004481346665136516
1773798191899208000,16.3652080078125,0.02831774746775627,-0.0041084947647526855,0.0006018748832866549
1773798191919174000,16.385173828125,0.039836335825920104,0.00537488883822225,-0.008224149922654033
1773798191939140900,16.405140869140624,0.0402852486371994,-0.005507146048918366,0.0034542321071028706
1773798191959106800,16.42510693359375,0.0344511356562376,-0.0014283157700672746,0.011313914365228266
1773798191979072800,16.44507275390625,0.04028466411530971,-0.00615725312125869,0.00018916589654982088
1773798191999040000,16.4650400390625,0.03205284234285354,0.004652839907677844,0.0014945676730014382
1773798192019006000,16.485005859375,0.04327390905916691,-0.004912376759853214,-0.0011028832079842685
1773798192038972000,16.504971923828126,0.034893034204840655,0.0037746414341963824,-0.0011816840652376414
1773798192058939000,16.52493896484375,0.03818564600944519,0.010327131817582994,-0.010947419140394776
1773798192078904800,16.54490478515625,0.03564122222363949,0.001466273160278797,0.0002940875757485628
1773798192098871000,16.56487109375,0.03728489777743816,-0.007881136038107797,0.00877237665625289
1773798192118837000,16.5848369140625,0.033993455016613,0.012600821503764018,-0.003984046401176601
1773798192138804000,16.604803955078125,0.03429331474602222,-0.00311293525560759,-0.0022300788733176885
1773798192158770000,16.62477001953125,0.029355273821949957,-0.005477061437908559,0.005564155199471861
1773798192178735900,16.64473583984375,0.0323468568533659,-0.004094840698735789,0.003550185028556734
1773798192198702800,16.664702880859377,0.057037645995616906,0.0032554855314549055,-0.013314860657788813
1773798192218669000,16.6846689453125,0.04072422457635402,-0.00007313830144703388,0.00914104557186365
1773798192238634800,16.704634765625,0.0413221904695034,0.0016058186282869428,0.012028949033096432
1773798192258601000,16.72460107421875,0.039077626413106914,0.0031016923423856494,0.009481182512734086
1773798192278567700,16.744567626953124,0.04281973555088043,-0.006029754284070804,0.005670666047558188
1773798192298534000,16.764533935546876,0.03728197516798973,-0.003301799758058041,-0.004125044040754438
1773798192318499800,16.784499755859375,0.03249123376011848,-0.007287727589067071,0.01586277330862358
1773798192338466800,16.804466796875,0.046258477827906604,-0.006309466274594887,-0.004043101378343999
1773798192358433000,16.82443310546875,0.050150224569439884,0.004822972310194746,0.0023125147260725496
1773798192378399000,16.84439892578125,0.04042494936883449,-0.007370729697402567,-0.0017838329431600867
1773798192398365000,16.864364990234375,0.04147416616082191,0.004859066536882892,-0.0022604922778904435
1773798192418332000,16.884331787109375,0.03593815934360027,-0.0007127970450092107,-0.0032744002944789827
1773798192438298000,16.904298095703126,0.047608723393082614,-0.0004212210867553949,0.0020182627535425125
1773798192458263800,16.924263916015626,0.0299503171056509,0.0024124040371272712,0.0050805546673014755
1773798192478231000,16.94423095703125,0.04655892207920551,-0.0006245433728210627,0.0009154708771035075
1773798192498196700,16.96419677734375,0.030099370187520978,-0.00665381359970197,-0.00453342391224578
1773798192518163000,16.984162841796874,0.03159749979078769,-0.0081074830067344,-0.002221493708062917
1773798192538129000,17.00412890625,0.030253683966398236,-0.004254177712602541,0.010045374000445008
1773798192558096000,17.024095947265625,0.03519055584669113,0.0013358151810243725,0.004136314353439956
1773798192578061800,17.044061767578125,0.04356967713534832,0.0004412592277862131,0.003490892589371651
1773798192598027800,17.06402783203125,0.030853987947106358,-0.002238947166362777,0.001809387509524822
1773798192617993700,17.08399365234375,0.045368835511803624,-0.0010654007418081164,-0.0068908737585879854
1773798192637960700,17.103960693359376,0.045669279763102526,0.0032542890882119534,0.010329616035614162
1773798192657927000,17.123927001953124,0.03908756328523159,-0.00592714329296723,0.015185440302640199
1773798192677892600,17.143892578125,0.03699088326692581,-0.006687880266085267,0.003968337375391274
1773798192697858800,17.16385888671875,0.049559272938966746,-0.00974088376169093,0.0037016127306036648
1773798192717825800,17.18382568359375,0.03639350189566612,-0.005818796680821105,0.014285678451322018
1773798192737791700,17.203791748046875,0.03803776197135448,0.0008745269453618675,0.008686652867868542
1773798192757757700,17.2237578125,0.040731238839030265,-0.0046808512926101685,-0.0022348098473623395
1773798192777724000,17.243723876953126,0.03175356713533401,-0.010793132760981098,0.0062668235761113465
1773798192797691000,17.26369091796875,0.03863689690828323,0.0014358780220150946,-0.013349383981898427
1773798192817656800,17.28365673828125,0.040135026511549945,-0.01569231211254373,0.011724212199170142
1773798192837622800,17.303622802734374,0.041782793718576426,0.007333813486807048,0.006449961590673774
1773798192857589800,17.32358984375,0.04073708405792713,0.0006011716303881258,0.002390657996200025
1773798192877556000,17.343555908203125,0.03474982634186744,0.007148994971811771,-0.005905570781975985
1773798192897521700,17.363521728515625,0.043428222838044164,-0.002653921175422147,-0.003289871858246624
1773798192917487900,17.38348779296875,0.04612053066194057,-0.005329223065590485,0.010227909226808697
1773798192937454600,17.40345458984375,0.04417641085684299,-0.007860348978405818,0.011462693452462553
1773798192957420800,17.4234208984375,0.02262918043732643,-0.00925155674163252,0.002807001978438347
1773798192977386800,17.44338671875,0.03998597342967987,0.006962870415719226,0.006775229755975306
1773798192997353000,17.46335302734375,0.033251112216711044,0.007303153487062081,0.001614029334206134
1773798193017319700,17.483319580078124,0.033551556468009947,-0.004041329546365886,0.004712415474653244
1773798193037286000,17.503285888671876,0.04417641085684299,0.011170240711374207,0.00022684929212555288
1773798193057251600,17.52325146484375,0.0410346056997776,0.0036062899968121198,0.00472609694013372
1773798193077217800,17.5432177734375,0.04208382249176502,-0.007339192914823069,-0.009733732501696795
1773798193097185000,17.56318505859375,0.03220657159984112,0.015724990539439022,0.005302800849545747
1773798193117150700,17.583150634765627,0.031606267619132995,0.007628686513844877,0.0005112191914580762
1773798193137116700,17.60311669921875,0.03564589839875698,0.014596808493416755,0.0057599882988259195
1773798193157083000,17.623082763671874,0.03953413800895214,0.004048142879642546,0.008716445217933506
1773798193177049900,17.6430498046875,0.0437228218704462,0.0065963477914221585,-0.004165814442560077
1773798193197015800,17.663015869140626,0.04611643900871277,0.005405987229384482,0.011345606411434709
1773798193216981800,17.682981689453126,0.03175122904777527,0.008867169667081906,0.001868570350855589
1773798193236947700,17.70294775390625,0.04371873021721839,-0.0014535506760235874,0.009392956240009517
1773798193256915000,17.7229150390625,0.04102408430576324,-0.0038171654016710813,-0.0006387362949550152
1773798193276880600,17.742880615234377,0.038030747708678245,-0.003438029890973121,-0.0007053169914521276
1773798193296846800,17.762846923828125,0.030547113955020903,0.008509305273275822,-0.0035970929102040823
1773798193316812800,17.782812744140625,0.0564367574930191,0.0035699126423336565,0.0009049129504710436
1773798193336779800,17.80277978515625,0.04311959528028965,0.00974345931126736,-0.004940415544249117
1773798193356745700,17.822745849609376,0.030099370187520978,-0.0075687821533065285,0.012140099523682146
1773798193376712000,17.8427119140625,0.04012508963942527,-0.0027213603884447364,-0.0005558255181647837
1773798193396677600,17.862677734375,0.04012450511753559,-0.00148006422361359,0.005487491500377655
1773798193416643800,17.882643798828123,0.04341711692214012,-0.002081217587692663,0.00769749570004642
1773798193436610800,17.90261083984375,0.024264672684669492,-0.002972211610665545,-0.0034205125005915757
1773798193456576800,17.92257666015625,0.05120119492709636,-0.006642013564053923,-0.0064886131006293
1773798193476542700,17.942542724609375,0.0362374345511198,0.0013694434559904038,0.006205905435420572
1773798193496509000,17.962509033203126,0.03309446035027504,-0.005446675432799384,0.0015648381639271974
1773798193516475600,17.9824755859375,0.028154081338644027,-0.004180646685510873,-0.001179218113515526
1773798193536441900,18.00244189453125,0.03742985920608043,-0.002760459422972053,-0.0006771503428928553
1773798193556407800,18.02240771484375,0.04401449829339981,0.009504645586712285,0.0033276100527495143
1773798193576373800,18.042373779296874,0.04131809881627559,-0.003478663295460865,-0.002558214849140495
1773798193596341000,18.062341064453125,0.047155134406685825,-0.0009285952201578766,-0.0027565686991438266
1773798193616306700,18.082306640625,0.03383797219395637,-0.0061597099398262795,-0.006851856922451406
1773798193636273000,18.10227294921875,0.04431377350091934,-0.003296456862660125,0.018836638020258395
1773798193656238800,18.12223876953125,0.031895021432638164,0.003007730448618531,0.0017215630955994129
1773798193676205800,18.142205810546876,0.04521393721103668,-0.001423356467159465,0.005796192123368382
1773798193696171800,18.162171875,0.04656242921054363,0.01109130285680294,-0.004354651545546949
1773798193716138000,18.182137939453124,0.03863338977694511,-0.001309685225924477,0.004241893619764596
1773798193736103700,18.202103759765624,0.04776303717195987,-0.010455069046188144,0.0012025441901758313
1773798193756070000,18.22206982421875,0.0360936421662569,0.004021081342780963,-0.004552019014861434
1773798193776036900,18.242036865234375,0.03145487644970417,-0.0001855583005119115,0.009959138755407184
1773798193796002800,18.2620029296875,0.029360534518957135,-0.011456473774230107,-0.007684307424910366
1773798193815968800,18.28196875,0.03834054431021213,0.002196030473243445,0.00570504324119538
1773798193835935000,18.30193505859375,0.04612286874949932,-0.007843196914205328,0.0032522980605252084
1773798193855902000,18.32190185546875,0.0334054259955883,0.003060291752917692,0.010609821216482669
1773798193875868000,18.341867919921874,0.036846506360173226,-0.0015482249558437615,0.0004894092184491455
1773798193895833900,18.361833740234374,0.04178454728424549,-0.0068399016231764104,0.01378943763328716
1773798193915799800,18.3817998046875,0.032958266749978066,-0.00019923063283786176,0.017856212148163467
1773798193935765800,18.401765869140625,0.02547697108387947,-0.007743380668386817,-0.002537537387292832
1773798193955732700,18.421732666015625,0.031761750441789624,0.007842210533516481,0.004798449790291488
1773798193975699000,18.441698974609373,0.04403378751575947,-0.00015046872082166373,-0.004081223165336996
1773798193995665000,18.461664794921877,0.04268646456003189,-0.005573060025135055,-0.00391956633022055
1773798194015630800,18.481630859375,0.047175592672824854,-0.0061852188404183835,-0.0013024243680760264
1773798194035597800,18.501597900390625,0.04044306954741478,0.0021666582482866943,0.008694726576469839
1773798194055564000,18.52156396484375,0.046129298490285874,-0.0016111615236848592,0.0019607056137174368
1773798194075529700,18.54152978515625,0.03954582844674587,0.003543764420924708,-0.012420523900259285
1773798194095496000,18.561495849609376,0.046729602470993996,0.0016746004150249062,0.0043952758168801665
1773798194115462000,18.5814619140625,0.030568741264939307,-0.0041375473293010145,0.006664024466462433
1773798194135428900,18.601428955078124,0.04597966088652611,0.0043932847891934215,0.0027709442843683063
1773798194155394800,18.621394775390623,0.04134147969186306,0.0006624368309509008,-0.0012989537693560123
1773798194175361000,18.641361083984375,0.047478375011682505,-0.007809742169175297,-0.0038926783232949673
1773798194195326700,18.66132666015625,0.04014496338367462,0.0013869517132174224,0.004132989885192364
1773798194215293000,18.68129296875,0.037002573704719544,-0.003556039380608126,-0.007167151683010161
1773798194235259600,18.701259765625,0.038050621452927584,-0.0036064909262116997,-0.005588157129567116
1773798194255225900,18.721225830078126,0.03251578367948532,0.009843449087021871,-0.003369531232025474
1773798194275191800,18.74119189453125,0.03625730829536915,-0.0008897245144937187,0.009331197849102317
1773798194295158000,18.761157958984374,0.03595978665351868,0.002263816746138036,-0.0033112617061473427
1773798194315123700,18.781123779296873,0.03596095569729805,-0.0034445692296139895,-0.0004164535800926387
1773798194335091000,18.801091064453125,0.032520459854602814,0.0015184143394697458,-0.007204177491459995
1773798194355056600,18.821056640625,0.0398538714826107,0.0033896789709106086,0.00047715252507477994
1773798194375022800,18.84102294921875,0.029828736552596092,0.010289969011815264,0.005548080847505479
1773798194394988800,18.86098876953125,0.03207388513088226,0.006117551298532635,0.00460639781691134
1773798194414955000,18.880955078125,0.049130818393826485,0.013150984466122463,0.0024043577279895543
1773798194434922000,18.900921875,0.042996845683455465,-0.003269386192644015,-0.006635017567686736
1773798194454888000,18.920887939453124,0.044643443846702574,0.008984439371200277,0.015045483842678366
1773798194474853600,18.940853515625,0.0362637380361557,0.01115924439332448,0.002713533275015652
1773798194494819800,18.96081982421875,0.04225099575221538,-0.017590090291574597,-0.001210818828176707
1773798194514785800,18.980785888671875,0.02668868496119976,0.0011116327700205146,-0.009285806071106344
1773798194534752800,19.000752685546875,0.030882044997811317,-0.003704407475888729,0.01109636262441054
1773798194554719000,19.020718994140626,0.034472762966156006,0.005657121579395607,-0.007476911751925945
1773798194574685000,19.040684814453126,0.033276246657967565,-0.005164424425316974,0.010789141572453082
1773798194594650400,19.060650390625,0.04883738840520382,0.002408440248062834,-0.005310527498275042
1773798194614616300,19.0806162109375,0.045099955442547794,-0.002631252685887739,0.006327778249420225
1773798194634583600,19.10058349609375,0.04524842400252819,0.004379374994849786,-0.002679649271722883
1773798194654549200,19.12054931640625,0.045101709008216855,0.011604659206420183,0.0021119506526738403
1773798194674515200,19.14051513671875,0.03537351119816303,0.0006759538996499032,0.0035720132678747174
1773798194694481400,19.1604814453125,0.03627016777694225,-0.006455825075879692,-0.006525529311224818
1773798194714447400,19.180447265625,0.04255436261296272,-0.004433543734345585,-0.007032802979927509
1773798194734414300,19.200414306640624,0.02474924133121967,-0.012496995803108438,-0.000015197569131851195
1773798194754380500,19.220380615234376,0.04135843082666397,0.0069061626592651,-0.007519490518327802
1773798194774346200,19.24034619140625,0.03971358622908592,0.0030521632453892377,-0.008221720503550023
1773798194794312400,19.2603125,0.050936406511068344,0.0009392810109537094,0.0037483927480876445
1773798194814278400,19.2802783203125,0.05437631783187389,-0.00449666296527721,0.006807177530508488
1773798194834245400,19.300245361328123,0.017715104910731316,-0.0035435178257524967,-0.013586864265892654
1773798194854211300,19.32021142578125,0.0612602321267128,-0.005403959669079631,-0.0016778883506543933
1773798194874177500,19.340177490234375,0.039411388412117956,-0.007428898758580908,0.007934665456786751
1773798194894143200,19.360143310546874,0.03761807525455951,0.000013425737153738737,-0.011875913895852862
1773798194914109400,19.380109375,0.05078618438541889,0.008217089994205161,0.000520662873238325
1773798194934075400,19.400075439453126,0.029987141984701156,-0.003986265757726505,-0.006425101144053042
1773798194954042400,19.42004248046875,0.04150865295231342,0.0003363284154329449,-0.006019351621065289
1773798194974008300,19.44000830078125,0.04420271434187889,-0.002609223517170176,-0.006050678341090679
1773798194993974500,19.459974609375,0.0468950221657753,-0.012150237325206398,0.0048102498259395355
1773798195013940200,19.479940185546877,0.03642214346826076,-0.009577382029360159,0.007485862243361771
1773798195033906400,19.499906494140625,0.03641980538070202,0.010862435137527063,-0.000023472207132726906
1773798195053873400,19.519873291015625,0.05138415027856826,0.007819277182500809,0.00672260451959446
1773798195073839400,19.53983935546875,0.03926467341780662,-0.003709174982551485,0.003054601797647774
1773798195093805300,19.559805419921876,0.04883972649276256,-0.0012386384168639778,-0.0009849376504309476
1773798195113771500,19.579771484375,0.05003507375717163,0.009112805858068168,0.0032409546826034784
1773798195133737200,19.5997373046875,0.04075754232406616,0.00093655019775033,0.0015401786467060445
1773798195153703400,19.619703369140623,0.036269583255052563,0.0039979105297476055,0.006067848671600222
1773798195173670400,19.63967041015625,0.043752047964930534,-0.0018129129071719943,0.008592946702428161
1773798195193636400,19.65963623046875,0.030583354312181472,0.001089283940894529,-0.003981525650527328
1773798195213602300,19.679602294921875,0.04539689256250858,0.010064033035142347,-0.008147449690941722
1773798195233568500,19.699568603515626,0.045698505857586856,-0.0034715485680848358,0.0012012655485421418
1773798195253534200,19.7195341796875,0.04001169239282608,0.0012090652625076472,0.009630801850184797
1773798195273500400,19.73950048828125,0.04809153847396373,0.005409156434005126,0.0009687171679921447
1773798195293467400,19.75946728515625,0.04001461500227451,-0.0034882805071771144,-0.0026042459479533133
1773798195313433300,19.779433349609373,0.037920857593417165,0.007464362797606736,0.010060973428376018
1773798195333399300,19.7993994140625,0.03492869004011154,0.00991329945283942,0.0006953801193274557
1773798195353365500,19.819365478515625,0.04196165741682052,-0.0023347448241896928,-0.0064908050577156245
1773798195373331200,19.839331298828125,0.04270984543561935,0.0138379712164402,0.005358220831211656
1773798195393297400,19.85929736328125,0.03747136026024818,0.011875356773426755,0.006751739282533526
1773798195413264400,19.879264404296876,0.037619244298338884,-0.006936512131756171,-0.011751246336568147
1773798195433230300,19.899230224609376,0.03522504263818264,0.0026654198169708252,0.008902725037652999
1773798195453196300,19.9191962890625,0.037167993399500845,-0.00606141893081367,0.003314659239631146
1773798195473162500,19.93916259765625,0.041508068430423734,0.005463955361163243,-0.0001451440917328
1773798195493128200,19.959128173828127,0.03672024963200092,-0.002500045787962153,-0.0025309249834157524
1773798195513094400,19.979094482421875,0.04405190769433975,0.005421413127379491,0.006865739317331462
1773798195533061400,19.999061279296875,0.03492342934310436,0.00032863829932175577,0.0043564051112160085
1773798195553027300,20.01902734375,0.034326632493734355,0.002826556062279269,0.002211903895810246
1773798195572993300,20.0389931640625,0.03866729204654693,-0.0047549668415915215,-0.005306782904919236
1773798195592960000,20.0589599609375,0.04659808504581451,-0.005856681005796417,0.00305403554206714
1773798195612925700,20.07892578125,0.04674480004012584,-0.005345507480110973,0.0015311368237249552
1773798195632892000,20.098891845703125,0.03656827394068241,-0.0018559848639182746,-0.0011518551825545728
1773798195652859000,20.11885888671875,0.039109190595149994,0.0005177585300989449,-0.0010845621000044048
1773798195672824800,20.138824951171873,0.05497019207179546,-0.0004826506840996444,-0.00694410178316757
1773798195692790800,20.158790771484377,0.04718962119817734,0.012200515340873972,-0.010199285920523106
1773798195712757000,20.178757080078125,0.039108021551370616,0.008257805597083643,0.002110197087004781
1773798195732722700,20.19872265625,0.03731120126247406,-0.0103482750703115,-0.005648381150513887
1773798195752689000,20.21868896484375,0.032819150540232656,-0.0019220632369164375,-0.0028378355081193148
1773798195772654800,20.23865478515625,0.028178631258010862,-0.0026116255368106066,0.0009105755062773823
1773798195792621800,20.258621826171876,0.04314180711209774,0.0011677468714304268,0.00035482305334880946
1773798195812588000,20.278588134765624,0.027432196804881095,-0.009225974775804207,-0.00003463292196393013
1773798195832554000,20.298553955078123,0.028480829074978828,-0.010375190476700663,-0.005014010503422469
1773798195852519700,20.318519775390627,0.04479074336290359,0.009764410767750814,0.0014994447775185107
1773798195872486000,20.33848583984375,0.028628128591179847,0.005235681296931579,0.004426913064159452
1773798195892451800,20.358451904296874,0.04239478813707828,-0.0003697557609993964,-0.00735374202998355
1773798195912417800,20.378417724609374,0.03775543789863586,0.0007445804227609187,0.002561703714169562
1773798195932385000,20.398385009765626,0.0352133522003889,0.0038093382882419973,0.00444930755905807
1773798195952351000,20.41835107421875,0.050175943532586094,0.0008625990455504506,-0.008681994959060102
1773798195972317000,20.43831689453125,0.032819150540232656,-0.0097081231364049,0.012064769265148788
1773798195992283000,20.458282958984373,0.04060030593574047,0.006047034212434664,-0.007974942668247968
1773798196012248800,20.478248779296877,0.04374152657091617,-0.0032239304825663565,0.00047549029095098375
1773798196032214800,20.49821484375,0.03820610427558422,-0.0009417652289848774,0.007322908500302583
1773798196052180700,20.5181806640625,0.029525369691848755,0.010964078014250844,-0.0033935514284297824
1773798196072148000,20.53814794921875,0.03715864104926586,0.006731719407811761,-0.0007357851949520408
1773798196092114000,20.558114013671876,0.0426946478664875,-0.006269636587705463,-0.005774254286196083
1773798196112080000,20.578079833984376,0.040001755520701406,-0.0004543927039951086,-0.002918663925677538
1773798196132045800,20.5980458984375,0.034767361998558045,-0.0014133830624166875,-0.00504480750048533
1773798196152011800,20.61801171875,0.03566401857733726,0.006469150348333641,-0.0008324139698408544
1773798196171977700,20.637977783203127,0.04030395333766937,-0.0022165618046186865,0.0018669811819680034
1773798196191944000,20.65794384765625,0.032819735062122345,0.003821010459726676,0.0032487543965689838
1773798196211911000,20.677910888671875,0.05855564934313297,0.007521061420906335,-0.004912139297835528
1773798196231876900,20.697876953125,0.03237023772895336,0.005358759687328711,-0.00036748160552233454
1773798196251843000,20.717843017578126,0.02878127332627773,-0.003073498294362798,0.010684110295400022
1773798196271808800,20.737808837890626,0.04838263037502765,0.009040562605764716,0.0070121437843888995
1773798196291774700,20.757774658203125,0.04254793287217617,-0.001836531244777143,0.004571819693874568
1773798196311741000,20.777740966796873,0.04344575849473476,-0.006748442213749512,0.005612743581552058
1773798196331707000,20.797706787109377,0.04314882137477398,0.005422874432103708,0.0005972352407872676
1773798196351673900,20.817673828125,0.050481063959002495,0.009831375056738033,0.0038977746235206723
1773798196371640000,20.83764013671875,0.03372223685979843,0.007775438040774315,0.004352532653696835
1773798196391605800,20.857605712890624,0.029534137520194053,-0.00807450318573974,-0.004512709917780012
1773798196411572000,20.877572021484376,0.046293549141287804,-0.0017257004145998507,-0.0017796864910051226
1773798196431538000,20.897537841796876,0.03821253401637077,0.0047628487539477645,0.0034543599712662395
1773798196451503900,20.91750390625,0.039112113204598425,-0.0008183032460976392,-0.00843733601560816
1773798196471469800,20.9374697265625,0.041807343637943264,-0.003982475498598068,0.0026223661265335975
1773798196491435800,20.957435791015627,0.03402443467676639,0.009583912234846502,-0.00023948957799002526
1773798196511402800,20.97740283203125,0.05018529588282108,0.001246876522246748,0.009372388376016168
1773798196531369000,20.997368896484375,0.045395723518729204,0.0036341552512720223,0.005531860365066677
1773798196551335000,21.0173349609375,0.042402971443533895,0.0000728643068112433,-0.0043360929755494
1773798196571300900,21.03730078125,0.02519289344549179,0.010405256821401417,0.004775342909339815
1773798196591266800,21.057266845703126,0.047637949487566944,-0.004390371312899515,-0.0029774814408272503
1773798196611232800,21.077232666015625,0.03641454468369484,0.0029046993324067442,0.0043015331188216805
1773798196631199000,21.097198974609373,0.03012859628200531,-0.004991031486634164,-0.004382507666852325
1773798196651164700,21.11716455078125,0.05167524217963219,0.0008510273387655616,0.011270714544318616
1773798196671131000,21.137130859375,0.03955576531887054,0.0010771003127563745,0.0043462307770736515
1773798196691097900,21.157097900390625,0.036114100432395935,-0.003765499146515503,0.003730528297834098
1773798196711063800,21.177063720703124,0.03282207314968109,-0.0035836397735867645,0.0031336035843007263
1773798196731029800,21.19702978515625,0.03596270926296711,0.012525975302420556,0.0015779168412089347
1773798196750996000,21.216995849609376,0.04090016566514969,0.00025507987276650963,0.013707896829675882
1773798196770961700,21.236961669921875,0.027584172496199606,0.00124682172331959,0.0034837139299139378
1773798196790928000,21.256927978515623,0.038806992778182024,0.0017385324967093764,-0.005165182477142661
1773798196810893800,21.276893798828127,0.03731295482814312,-0.005496633788058534,-0.0013664660476148127
1773798196830859800,21.29685986328125,0.03431961823105812,0.0006370283950585872,0.0037517354826442895
1773798196850827000,21.316826904296875,0.04674070838689804,-0.001277646119846031,0.0014471483347006141
1773798196870793000,21.33679296875,0.04060556663274765,-0.00039601358026266096,-0.0015421514080837368
1773798196890758700,21.356758544921874,0.045693829682469364,0.009804797577066347,0.01162254192298278
1773798196910724900,21.376724853515626,0.044644612890481945,0.0074090980795677745,-0.005497647568210959
1773798196930690800,21.39669091796875,0.048533437022566794,-0.0020190390716772525,0.0016207513359375297
1773798196950656800,21.41665673828125,0.036712650847435,0.005667332446156069,-0.0040567097785882645
1773798196970622700,21.436622802734377,0.044940965488553045,0.005729291766462847,0.008578680715057999
1773798196990589000,21.4565888671875,0.049582069292664524,0.005706742007937282,0.0036366942682303487
1773798197010555000,21.476554931640624,0.05227613068222999,0.0073251826557796445,-0.004407495977636427
1773798197030520800,21.496520751953124,0.03626490707993507,-0.005449634574865922,-0.006170633192639797
1773798197050487800,21.51648779296875,0.03551730358302593,0.00865878761340864,0.002584573133103549
1773798197070453800,21.536453857421876,0.02803542339503765,0.003405917719658464,-0.002077372529637068
1773798197090419700,21.556419677734375,0.04943476977646351,0.00020946889906190336,-0.003133457453828305
1773798197110386000,21.576385986328123,0.047487727361917496,-0.0012711067812051623,-0.0015283786110579967
1773798197130351900,21.596351806640627,0.04060264402329922,0.011659987856540828,-0.005601034877449273
1773798197150317800,21.61631787109375,0.03656301324367523,0.00369078080933541,0.0006436316657811403
1773798197170283800,21.63628369140625,0.0310264219045639,0.003744273695396259,0.01562993266712874
1773798197190250000,21.65625,0.04688976146876812,-0.009712013860233128,-0.0034609358425252137
1773798197210215700,21.676215576171874,0.040305122381448746,-0.0016244137309025972,0.0039047706198878586
1773798197230182000,21.696181884765625,0.04389876295924187,0.0016794135874602942,-0.013448862300999462
1773798197250148900,21.71614892578125,0.032978140494227405,-0.0006106609779410063,-0.006659604019671678
1773798197270114800,21.73611474609375,0.03791618141829967,0.002093958338256925,-0.012348317180573939
1773798197290080800,21.756080810546877,0.043451603713631624,0.006652571490686387,0.0067665349928662175
1773798197310047000,21.776046875,0.04180442102849483,0.012912618266139179,-0.0023081308118999004
1773798197330012700,21.7960126953125,0.031928339180350304,0.008897847933135927,-0.0027518559914082286
1773798197349979000,21.815978759765624,0.03132920424342155,-0.0030925591878592966,-0.002648176421225071
1773798197369944800,21.83594482421875,0.035220366463065145,0.0005107351342681795,-0.005596998023148626
1773798197389911000,21.8559111328125,0.04689093051254749,-0.001562554875295609,0.00014543635267764328
1773798197409876700,21.875876708984375,0.025489830565452575,-0.0021198508313391355,0.006698054600227624
1773798197429843000,21.895843017578127,0.04598725967109203,0.005553542473912239,0.0020233590537682175
1773798197449809000,21.915808837890626,0.04239595718085765,0.009663580741779879,0.004768401711899787
1773798197469776000,21.93577587890625,0.04284370094835758,0.010864855423476547,0.004670676958467811
1773798197489741800,21.955741943359374,0.031920740395784374,-0.0020322364799678326,0.012122691731154918
1773798197509708000,21.9757080078125,0.03161971162259578,0.0052888453894294795,-0.001271901365648955
1773798197529673700,21.995673828125,0.053316579645872116,-0.005471800740901381,0.012535437250509858
1773798197549640000,22.015639892578125,0.04463642958402633,-0.0019084457035176455,-0.0017575294581241906
1773798197569606000,22.03560595703125,0.043888241565227505,0.001065519472816959,0.012292404008563608
1773798197589571800,22.05557177734375,0.040893735924363135,0.0035106476026121524,0.007778908639494329
1773798197609537800,22.075537841796876,0.03520750698149204,-0.005530746120214462,-0.005807882561162114
1773798197629504000,22.09550390625,0.02937222495675087,0.003506966941338032,-0.00970392188532278
1773798197649470000,22.115469970703124,0.03984627269804478,-0.0012210936270188539,0.006213266757968813
1773798197669436000,22.135435791015624,0.030120412975549696,0.0030402627450414,0.004578486896678805
1773798197689401900,22.15540185546875,0.042538580521941184,-0.000005963949905708432,0.012287051980011164
1773798197709368800,22.175368896484375,0.033110242441296574,-0.00444843077622354,0.008264463666733354
1773798197729334800,22.195334716796875,0.04538052594959736,0.007264118384616449,-0.0016736140343360602
1773798197749301000,22.215301025390627,0.03834814309477806,0.009199251165660097,-0.013092504877690226
1773798197769267000,22.235266845703126,0.033413609302043915,0.006655886825779452,0.005211085711792111
1773798197789233000,22.25523291015625,0.044935704791545864,-0.001942128777410835,0.0003118972270749509
1773798197809198800,22.27519873046875,0.053766076979041094,0.006930292453523725,0.006362831296492367
1773798197829165000,22.2951650390625,0.03745616269111633,-0.004151046131690964,-0.0016255919078364967
1773798197849130800,22.315130859375,0.04015080860257148,-0.006527584270993247,0.0032548553437925874
1773798197869097000,22.335096923828125,0.05407002836167812,-0.00011323284981772303,0.0003377623206935823
1773798197889063000,22.35506298828125,0.03296995718777179,0.009654621117189526,0.007747380990069359
1773798197909029000,22.375029052734376,0.028179800301790237,-0.008144700611429289,0.002146419177856296
1773798197928994800,22.394994873046876,0.03581307165920734,0.00712438112036325,0.00984225264377892
1773798197948961000,22.4149609375,0.03925590558946133,-0.003731359414895996,0.005854552980791777
1773798197968927000,22.434927001953124,0.04269581691026687,0.011319366858480498,0.006080196696519852
1773798197988894000,22.45489404296875,0.029379239219427106,0.0019298172851093113,-0.005344703762512654
1773798198008860000,22.47485986328125,0.03177460992336273,0.0003592161006759852,-0.013003712349385022
1773798198028826000,22.494826171875,0.03521744385361671,0.003248781796032563,0.003253375772759318
1773798198048791800,22.514791748046875,0.03746317695379257,0.015327406056597827,-0.004006733157020062
1773798198068758000,22.534758056640626,0.026689269483089445,0.005642599863698705,-0.0063115029680542644
1773798198088724000,22.554723876953126,0.0447948350161314,0.006676774350181222,0.0011126922159455715
1773798198108689700,22.574689697265626,0.03372223685979843,0.005824221774609759,0.003345931160729378
1773798198128656000,22.59465576171875,0.02893383353948593,-0.006605152152385562,0.017696948199532925
1773798198148621800,22.614621826171874,0.030429040533304214,0.000298389291530475,0.007232782531436532
1773798198168588000,22.634588134765625,0.05108078341782093,-0.004456002161325886,-0.01170881370063871
1773798198188553700,22.6545537109375,0.03671557345688343,0.0050099919154308736,0.005066873201820999
1773798198208520000,22.67452001953125,0.04300269090235233,0.012320506725041196,-0.0027849180107936264
1773798198228486000,22.69448583984375,0.04300444446802139,0.0006293839447200298,0.004084638965129852
1773798198248451800,22.714451904296876,0.046294133663177486,0.0011933288372587413,0.00179033574918285
1773798198268417800,22.734417724609376,0.03432429440617561,0.00316842830250971,-0.003935750280041247
1773798198288384000,22.754384033203124,0.04091185610294342,0.01532214535959065,0.002755180459655821
1773798198308350700,22.774350830078124,0.039866146442294116,0.007543602046277373,-0.003459912929218262
1773798198328317000,22.79431689453125,0.037922026637196536,0.0036415348401293156,0.014120130892377345
1773798198348283000,22.814282958984375,0.052585342761874196,-0.0028181078943423925,0.010567753906734288
1773798198368248800,22.834248779296875,0.04450549668073654,0.0031320052822586147,0.005896401094831526
1773798198388214800,22.85421484375,0.03358312065005302,0.0019044910476077347,-0.0012189108030870555
1773798198408181000,22.874180908203126,0.03956804027855396,0.0014630491567309944,0.0073291190453805026
1773798198428147000,22.89414697265625,0.0349304436057806,0.004187834478123114,-0.007067545499745756
1773798198448113000,22.91411279296875,0.04001695308983326,0.0009947009926196187,0.0055250287654809655
1773798198468078800,22.934078857421873,0.04525426922142505,-0.004417469382379204,0.002817194578889757
1773798198488045000,22.954045166015625,0.032686464071273805,0.009746144458698109,0.004134834782406688
1773798198508010800,22.9740107421875,0.026699206355214118,0.0020003983032889664,0.019958554722275583
1773798198527977000,22.99397705078125,0.03313420783877372,0.0017566983410622925,0.0005085523103363812
1773798198547943000,23.01394287109375,0.039269934114813804,0.007248217562586068,0.0077703782731667155
1773798198567909000,23.0339091796875,0.04465747237205505,0.0034677674421109256,0.0065323791771195825
1773798198587875300,23.053875244140624,0.04495908566713333,0.004600561731169,0.004123564469721168
1773798198607841300,23.07384130859375,0.043912206962704654,0.018112744192499666,-0.006837024679500609
1773798198627807500,23.093807373046875,0.0391261417299509,-0.012790845916839315,-0.005278744120523334
1773798198647773200,23.113773193359375,0.04705810377299785,-0.0005646572785917669,-0.0011681852628476917
1773798198667739400,23.133739501953126,0.05783259576559067,-0.002165626201825216,0.0012032200436107813
1773798198687705300,23.153705322265626,0.050502106747031206,0.015671561585459858,-0.013992887783516197
1773798198707671300,23.17367138671875,0.05589022952616214,0.0052630076952744275,0.001021598132699728
1773798198727637200,23.19363720703125,0.04781155248880386,0.009804907174920663,-0.00040390462577342983
1773798198747603500,23.213603515625,0.03494388760924339,0.0013883125532418489,0.01243784036124125
1773798198767569400,23.2335693359375,0.03554126898050308,0.0076472268175333735,0.013717285712528973
1773798198787536400,23.253536376953125,0.03942950859069824,0.0032295473726000634,-0.005814184437785298
1773798198807502300,23.27350244140625,0.03688450028300285,-0.0001272157093975693,-0.009966554876882583
1773798198827468300,23.29346826171875,0.0404769718170166,0.018602043813094497,0.006085146866273134
1773798198847434200,23.313434326171876,0.03658522507548332,0.004060171244153752,0.005444218614231795
1773798198867400400,23.333400390625,0.03718143740296364,-0.002951662012981251,-0.0074981554693542415
1773798198887366400,23.353366455078124,0.043618192452192305,-0.004654620872810483,0.004529222661163658
1773798198907332400,23.373332275390624,0.036737200766801835,0.009534337472077459,0.000723053577542305
1773798198927298300,23.39329833984375,0.03135083155333996,0.003927238180022686,0.001399911659490317
1773798198947264500,23.413264404296875,0.04107902936339378,0.006602923662681132,0.00115804746132344
1773798198967230200,23.433230224609375,0.06292611951231956,0.0026452446786221114,0.012863500161096452
1773798198987196400,23.453196533203126,0.037191958796977995,-0.00901300787855871,-0.011855473896022886
1773798199007162400,23.473162353515626,0.031655367457866665,-0.008781080552516505,0.0035135245462879537
1773798199027128600,23.493128662109374,0.0511082559466362,-0.0011718841904308646,0.0007435483762994408
1773798199047094300,23.51309423828125,0.05275543863177299,-0.0010733557194005697,0.0014499796126037836
1773798199067060500,23.533060546875,0.042728550136089324,0.0031591033517383038,-0.0033282311072573064
1773798199087026400,23.5530263671875,0.03225742500424385,-0.008778550668712705,0.002944547285605222
1773798199106992000,23.5729921875,0.04692366373836994,-0.002966987446276471,0.004991981334704906
1773798199126958300,23.592958251953124,0.04946808752417564,0.013029522644076495,0.013486801424901931
1773798199146924300,23.61292431640625,0.030462358281016347,-0.007810975145036354,0.008474288758821785
1773798199166890500,23.632890380859376,0.03944236807227135,-0.0011548143246211111,-0.004747340657562017
1773798199186856200,23.652856201171875,0.04722293894588947,0.005651258094189688,0.0020533523332327604
1773798199206822400,23.672822509765624,0.04692424826025963,0.004411962090199813,0.006323796194046736
1773798199226788400,23.692788330078123,0.03211012548804283,0.010563424791488796,0.003334350320789963
