time,seconds_elapsed,z,y,x
1773798175580133600,0.046133544921875,-0.0005041144322603941,0.00024109636433422565,-0.0004097740165889263
1773798175600100900,0.066100830078125,0.000055779841204639524,-0.00009399303235113621,-0.0006861379370093346
1773798175620068900,0.08606884765625,-0.0008110218914225698,-0.00011057266965508461,0.0012699514627456665
1773798175640035600,0.10603564453125,-0.00032237140112556517,-0.00001254212111234665,0.0009929710067808628
1773798175660002800,0.1260029296875,-0.0006853973609395325,-0.00004584901034832001,-0.00047094468027353287
1773798175679969800,0.1459697265625,-0.00017529424803797156,0.00022541265934705734,-0.001213819719851017
1773798175699936500,0.1659365234375,-0.00035207378095947206,-0.0008948796894401312,0.0009331409819424152
1773798175719903700,0.18590380859375,-0.0008030070457607508,-0.00013847718946635723,-0.002076429780572653
1773798175739870700,0.20587060546875,-0.0005895759677514434,0.0001808246597647667,0.00015633553266525269
1773798175759838700,0.225838623046875,0.00005713375867344439,0.00006343377754092216,-0.0013660294935107231
1773798175779805700,0.2458056640625,-0.00021153633133508265,-0.00039751711301505566,0.0001179128885269165
1773798175799772700,0.265772705078125,-0.0003235367767047137,0.0009840091224759817,0.0009550810791552067
1773798175819740000,0.285739990234375,-0.0005479503888636827,-0.0007826634682714939,0.0001301574520766735
1773798175839706600,0.30570654296875,0.0014395072357729077,0.0008014845661818981,0.0010139853693544865
1773798175859673900,0.325673828125,0.0002734700683504343,-0.00002140621654689312,0.00010560126975178719
1773798175879640800,0.345640869140625,0.00009514752309769392,-0.00028125173412263393,0.0004252074286341667
1773798175899608800,0.36560888671875,0.0006934721022844315,-0.00018101464956998825,0.0007735607214272022
1773798175919575800,0.385575927734375,-0.0004964673426002264,0.00013725529424846172,0.00036199577152729034
1773798175939542800,0.405542724609375,-0.0012820347910746932,0.00005030329339206219,0.001638086512684822
1773798175959509800,0.425509765625,0.00012873116065748036,-0.00005113123916089535,0.0006807213649153709
1773798175979476700,0.445476806640625,0.0004899515770375729,0.0008172604721039534,0.0010613254271447659
1773798175999443700,0.465443603515625,-0.00023975587100721896,-0.0002853698097169399,-0.0005351011641323566
1773798176019411000,0.485410888671875,-0.00028666944126598537,-0.0005977184046059847,0.0006494740955531597
1773798176039377700,0.505377685546875,0.0011079518590122461,-0.00016666739247739315,-0.0000954819843173027
1773798176059345700,0.525345703125,0.0005632901447825134,-0.0006145655643194914,0.0001899641938507557
1773798176079313000,0.54531298828125,0.000765045580919832,0.0006333582568913698,-0.0005977246910333633
1773798176099279600,0.565279541015625,0.001099931076169014,-0.0006217360496520996,0.000025860033929347992
1773798176119246800,0.585246826171875,-0.0005544822779484093,0.00007208948954939842,0.00153268501162529
1773798176139213800,0.6052138671875,0.00017096757073886693,-0.0010190224274992943,0.0020499045494943857
1773798176159180500,0.6251806640625,0.001482203952036798,-0.00012052175588905811,0.001594476867467165
1773798176179147800,0.645147705078125,-0.0014852873282507062,-0.0010806466452777386,0.0005033323541283607
1773798176199115800,0.66511572265625,0.0012743300758302212,-0.000524644972756505,-0.0001912466250360012
1773798176219082800,0.685082763671875,0.0003555063740350306,0.00105968676507473,-0.00004046782851219177
1773798176239049700,0.7050498046875,-0.0002104692393913865,0.000748008955270052,0.00030825333669781685
1773798176259016700,0.7250166015625,0.0009995490545406938,0.00030151475220918655,-0.00004468252882361412
1773798176278984000,0.74498388671875,-0.00100240227766335,-0.00013460032641887665,-0.000849435105919838
1773798176298950700,0.76495068359375,0.00012311720638535917,-0.0007766187191009521,-0.0006998120807111263
1773798176318917600,0.784917724609375,0.0009004662279039621,0.000037137651816010475,-0.0015063341706991196
1773798176338884900,0.804884765625,0.0005472095217555761,-0.0004095665644854307,-0.0005390224978327751
1773798176358851600,0.8248515625,-0.00018749313312582672,-0.00003999611362814903,0.00032724253833293915
1773798176378819600,0.844819580078125,-0.001229559537023306,-0.0008609704673290253,-0.002104358281940222
1773798176398786800,0.864786865234375,0.0014066813746467233,-0.00011996482498943806,-0.0008321227505803108
1773798176418753500,0.88475341796875,0.0006537585286423564,-0.00033781840465962887,0.0000734422355890274
1773798176438096600,0.9040966796875,0.001481103477999568,-0.0008970089256763458,-0.000312665943056345
1773798176458064000,0.92406396484375,0.0009416332468390465,0.0008562412112951279,-0.0014608828350901604
1773798176478030600,0.944030517578125,0.0009460441069677472,-0.0008548186160624027,-0.0003742328844964504
1773798176497997800,0.963997802734375,-0.0017359964549541473,0.0004180425312370062,-0.0009599165059626102
1773798176517965800,0.9839658203125,-0.0017264968482777476,-0.0003582590725272894,-0.0007760431617498398
1773798176537932500,1.0039326171875,-0.0002729652333073318,0.0004449249245226383,-0.0016793240793049335
1773798176557899800,1.023899658203125,0.00027604796923696995,-0.00015461258590221405,-0.0008687865920364857
1773798176577867000,1.043866943359375,-0.0007199593237601221,-0.0009240838699042797,-0.00018478929996490479
1773798176597834000,1.063833984375,0.0009344948339276016,0.00038020266219973564,0.00030360277742147446
1773798176617801200,1.08380126953125,-0.00029973030905239284,-0.00009362283162772655,-0.0005846410058438778
1773798176637768000,1.103767822265625,0.0007076004985719919,-0.0001230000052601099,-0.00020016590133309364
1773798176657735200,1.123735107421875,-0.0016645074356347322,0.0016374243423342705,-0.0004091220907866955
1773798176677702100,1.1437021484375,0.0009742443216964602,0.0007655625231564045,0.0006565907970070839
1773798176697669000,1.163669189453125,-0.000039129285141825676,-0.0003184836823493242,-0.0002973065711557865
1773798176717637000,1.18363720703125,0.0009440253488719463,-0.0005641356110572815,0.00019319821149110794
1773798176737604000,1.20360400390625,0.00037874490953981876,0.0011248914524912834,-0.0007621827535331249
1773798176757571300,1.2235712890625,0.00022309743508230895,-0.0004900372587144375,-0.00016231602057814598
1773798176777538000,1.2435380859375,-0.0010980888037011027,-0.00044817221350967884,-0.00014077918604016304
1773798176797505000,1.263505126953125,0.0013700976269319654,-0.0012224712409079075,0.0010923519730567932
1773798176818096000,1.28409619140625,0.0008476183284074068,0.00046889460645616055,0.0012718881480395794
1773798176838063000,1.30406298828125,0.000490515143610537,-0.00029111350886523724,-0.0005660927854478359
1773798176858030000,1.324030029296875,0.0007689586491324008,-0.0014817307237535715,0.0008061709813773632
1773798176877997000,1.3439970703125,-0.0008690454997122288,-0.0009302110411226749,0.00012257182970643044
1773798176897964000,1.363964111328125,-0.00009254325414076447,0.0005061493720859289,0.001112552359700203
1773798176917931000,1.383930908203125,0.00017611734801903367,0.00016665621660649776,-0.0002390029840171337
1773798176937898200,1.403898193359375,0.000386780098779127,-0.001625217031687498,0.0007230178453028202
1773798176957866200,1.4238662109375,-0.0004423338978085667,0.00046211271546781063,-0.0010422770865261555
1773798176977833000,1.4438330078125,-0.00022323965094983578,0.0009402523282915354,-0.00047444039955735207
1773798176997800200,1.46380029296875,0.00030140229500830173,0.0008489356841892004,-0.0011667823418974876
1773798177017767200,1.48376708984375,0.0017043984262272716,0.0007144093979150057,-0.0008159549906849861
1773798177037734100,1.503734130859375,0.0009202898945659399,0.00047662248834967613,-0.0011936980299651623
1773798177057701000,1.523701171875,-0.00017462865798734128,-0.00043505942448973656,-0.0012382147833704948
1773798177077668000,1.543668212890625,0.00043686776189133525,0.000008345814421772957,-0.0007641338743269444
1773798177097635000,1.563635009765625,0.0008990560891106725,-0.00011861976236104965,0.000837213359773159
1773798177117602000,1.58360205078125,-0.0003233359020669013,-0.00023739365860819817,0.0008152564987540245
1773798177137569300,1.6035693359375,0.0008291121339425445,-0.0003673324827104807,0.0010130242444574833
1773798177157536000,1.623535888671875,0.0003412853111512959,0.00007732585072517395,-0.00041351839900016785
1773798177177503200,1.643503173828125,0.00016526057152077556,-0.0009025020990520716,0.00013524852693080902
1773798177197470200,1.66347021484375,0.0003026763442903757,0.00114168890286237,0.000002066139131784439
1773798177217438200,1.683438232421875,0.000849013333208859,0.00032909680157899857,-0.000005753710865974426
1773798177237405200,1.7034052734375,-0.00021564593771472573,0.0005360275972634554,0.00002341344952583313
1773798177257372200,1.7233720703125,0.0013716438552364707,0.0007640584371984005,0.0002890457399189472
1773798177277339100,1.743339111328125,-0.00019264833827037364,0.00022834190167486668,-0.00045133428648114204
1773798177297306000,1.76330615234375,-0.00011413183528929949,-0.00015596114099025726,0.000143430195748806
1773798177317273000,1.783273193359375,-0.0006884842296130955,-0.0008116303943097591,0.0005770986899733543
1773798177337240300,1.803240234375,0.00045668153325095773,-0.0005467766895890236,0.00030494946986436844
1773798177357207000,1.82320703125,-0.0004159998497925699,0.00005051353946328163,0.00016299821436405182
1773798177377174000,1.843174072265625,-0.001393897575326264,-0.001849935855716467,0.0003559277392923832
1773798177397141200,1.863141357421875,0.0009266592096537352,-0.00013418332673609257,0.0007746424525976181
1773798177417108000,1.88310791015625,-0.0008559383568353951,-0.0005974113009870052,0.0009838989935815334
1773798177437075200,1.9030751953125,-0.00008039573731366545,-0.00035629887133836746,-0.0012538270093500614
1773798177457042200,1.923042236328125,-0.0009740563691593707,0.0009518172591924667,0.0012106867507100105
1773798177477010000,1.943010009765625,0.0005799500504508615,0.0005310163833200932,-0.00022836634889245033
1773798177496977200,1.96297705078125,-0.000453769724117592,-0.0007648400496691465,0.000023265834897756577
1773798177516944100,1.982944091796875,-0.0005831516464240849,-0.00024837395176291466,0.0006679892539978027
1773798177536911000,2.0029111328125,-0.0005609740037471056,0.0004992771428078413,-0.00014476105570793152
1773798177556878000,2.022878173828125,0.00021533739345613867,-0.00015586917288601398,-0.0015057297423481941
1773798177576845000,2.042844970703125,-0.0005952756619080901,0.00007639057002961636,-0.0009652003645896912
1773798177596812000,2.06281201171875,0.0002319941995665431,-0.0011921862605959177,-0.0014156973920762539
1773798177616779000,2.082779052734375,-0.00014620539150200784,0.00001957640051841736,-0.00046213017776608467
1773798177636746000,2.10274609375,0.00019931167480535805,0.0004614926874637604,-0.0010062693618237972
1773798177656713000,2.122712890625,0.00046761438716202974,0.00021376251243054867,0.0008584223687648773
1773798177676680200,2.14268017578125,0.0003584373334888369,0.0004417623858898878,-0.0008554672822356224
1773798177696647000,2.16264697265625,0.00008043617708608508,-0.00014982884749770164,-0.0014812727458775043
1773798177716614000,2.18261376953125,0.0000320784020004794,-0.0006040425505489111,-0.0003761881962418556
1773798177736581000,2.2025810546875,0.0006150200497359037,0.00047772866673767567,0.0011230125091969967
1773798177756547800,2.2225478515625,-0.0010628484888002276,0.00035359710454940796,-0.0002621356397867203
1773798177776515000,2.24251513671875,0.0001115705817937851,-0.0002135634422302246,0.00041119707748293877
1773798177796483000,2.262483154296875,-0.001610100851394236,0.00038385624065995216,0.0007744743488729
1773798177816450000,2.282449951171875,0.000350961578078568,-0.00048340996727347374,-0.00047755753621459007
1773798177836417000,2.3024169921875,0.0005470365285873413,-0.000043871114030480385,0.00018149381503462791
1773798177856384000,2.322384033203125,0.0005990549689158797,0.0007409981917589903,0.0002593998797237873
1773798177876351200,2.342351318359375,0.0005403214017860591,0.00017610006034374237,0.0015591704286634922
1773798177896318000,2.36231787109375,0.0012198305921629071,-0.0005080308765172958,0.00035003991797566414
1773798177916285000,2.382284912109375,0.0012756353244185448,0.00004062894731760025,0.00010951561853289604
1773798177936252200,2.402252197265625,0.0010123498504981399,-0.0009186344686895609,-0.0009585944935679436
1773798177956219000,2.422218994140625,0.0008394689648412168,-0.00010320916771888733,-0.000592453870922327
1773798177976186000,2.44218603515625,-0.0004164978163316846,0.0013411256950348616,-0.0007428787648677826
1773798177996153000,2.462153076171875,0.0012015416286885738,0.0003843149170279503,0.0006101541221141815
1773798178016120000,2.4821201171875,-0.00012423447333276272,-0.0005381519440561533,-0.00006504496559500694
1773798178036087000,2.502087158203125,0.001060886075720191,0.00014619668945670128,0.0015030791983008385
1773798178056054000,2.522053955078125,-0.0013980632647871971,-0.0002452575135976076,0.0003247801214456558
1773798178076021000,2.54202099609375,0.0004029783303849399,0.00006245938129723072,-0.000956384465098381
1773798178095988000,2.561988037109375,0.00008310396515298635,0.001034292858093977,0.0016219737008213997
1773798178115955200,2.581955078125,-0.00006935858982615173,-0.0009913993999361992,0.0008004754781723022
1773798178135922000,2.601921875,0.00015858067490626127,0.00025426200591027737,0.0002708612009882927
1773798178155889200,2.62188916015625,0.0019153873436152935,0.000041990773752331734,-0.000260054599493742
1773798178175857200,2.641857177734375,0.0007817737641744316,0.00038824835792183876,-0.00015326263383030891
1773798178195824000,2.66182421875,0.0005544113228097558,-0.00022839452140033245,-0.00016621733084321022
1773798178215791000,2.681791015625,0.0005035540089011192,-0.00048290123231709003,-0.0004893895238637924
1773798178235758000,2.701758056640625,0.001421246095560491,0.0016805015038698912,-0.0014033983461558819
1773798178255725000,2.72172509765625,-0.0011316211894154549,0.00015927874483168125,0.0002504517324268818
1773798178275692000,2.741692138671875,-0.0011650690576061606,0.0017590608913451433,-0.0005990182980895042
1773798178295659000,2.761658935546875,0.0004714967217296362,-0.0006424086168408394,0.0011943494901061058
1773798178315626200,2.781626220703125,-0.000540063192602247,-0.00031323242001235485,0.0000817570835351944
1773798178335593000,2.801593017578125,-0.000665194820612669,0.00050500244833529,0.0010525044053792953
1773798178355560200,2.821560302734375,0.0010413528652861714,0.0006513642147183418,-0.0006216960027813911
1773798178375527200,2.841527099609375,-0.00040547610842622817,-0.0005215369164943695,0.0011064987629652023
1773798178395494000,2.861493896484375,-0.00032065698178485036,-0.00021123583428561687,0.001654207706451416
1773798178415461000,2.881461181640625,-0.001218524994328618,-0.0001207853201776743,0.0001690858043730259
1773798178435428000,2.901427978515625,0.0005100496346130967,-0.0003272306639701128,0.00028283707797527313
1773798178455395000,2.92139501953125,0.001160010346211493,0.0013260962441563606,0.0001599336974322796
1773798178475362000,2.941362060546875,-0.000690109736751765,-0.0011050901375710964,0.0009166281670331955
1773798178495329000,2.9613291015625,0.00019441415497567505,-0.0004905145615339279,0.0005025649443268776
1773798178515296000,2.9812958984375,0.0002347693225601688,-0.0004549205768853426,-0.0005060546100139618
1773798178535263000,3.001262939453125,-0.000918279227335006,0.0005407561548054218,-0.0009652520529925823
1773798178555230200,3.021230224609375,-0.0002149748324882239,0.00047016912139952183,-0.0015521002933382988
1773798178575196700,3.04119677734375,0.0005156040424481034,-0.0010390249080955982,0.00039017852395772934
1773798178595164000,3.061163818359375,0.0008678913000039756,0.00034318817779421806,0.00036121997982263565
1773798178615131000,3.081130859375,0.001173809403553605,-0.00012824591249227524,-0.0003648800775408745
1773798178635097900,3.101097900390625,0.0006322141853161156,-0.00012597558088600636,0.0006609871052205563
1773798178655064800,3.12106494140625,0.0010328576900064945,-0.0009358366951346397,-0.001510842703282833
1773798178675031800,3.14103173828125,-0.000057840486988425255,0.0006794694345444441,0.00061416020616889
1773798178694999000,3.1609990234375,0.0008476604125462472,-0.000002349959686398506,0.00007100263610482216
1773798178714965800,3.1809658203125,0.0007530286675319076,0.0004917341284453869,0.0012404159642755985
1773798178734933000,3.20093310546875,0.0019257841631770134,0.001283010351471603,-0.0006752177141606808
1773798178754901000,3.22090087890625,0.0008727259119041264,0.0010747932828962803,0.00008347723633050919
1773798178774867700,3.24086767578125,-0.0006641236832365394,0.0012184680672362447,-0.00018137646839022636
1773798178794835000,3.2608349609375,0.00006340201070997864,-0.0004902384243905544,-0.0004695341922342777
1773798178814802000,3.280802001953125,-0.0005146985058672726,0.00039084372110664845,-0.0006638406775891781
1773798178834769000,3.300768798828125,0.00034450882230885327,-0.0002409517765045166,-0.001628662459552288
1773798178854736000,3.32073583984375,-0.0003724010894075036,-0.00017666933126747608,-0.00011153891682624817
1773798178874702800,3.340702880859375,0.00012680744112003595,-0.00033109448850154877,0.0005737603642046452
1773798178894669800,3.360669921875,-0.0012267541605979204,0.00002563721500337124,0.0002437788061797619
1773798178914636800,3.38063671875,0.00037582789082080126,-0.00044433167204260826,0.00034464336931705475
1773798178934604000,3.40060400390625,0.00010576546628726646,-0.0005551702342927456,-0.0002883998677134514
1773798178954570800,3.42057080078125,-0.0013190880417823792,0.00031165173277258873,0.0007016905583441257
1773798178974537700,3.440537841796875,0.0007956565823405981,0.0006700612138956785,0.0017564943991601467
1773798178994505000,3.4605048828125,-0.0001468040863983333,0.0003110200632363558,0.00020209141075611115
1773798179014471700,3.4804716796875,-0.00016384734772145748,0.00011250167153775692,-0.00024074967950582504
1773798179034439000,3.50043896484375,0.0012066629715263844,-0.0011095921508967876,0.000847094226628542
1773798179054406000,3.520406005859375,-0.0005433757905848324,0.0007857743185013533,-0.0007699043489992619
1773798179074372900,3.540372802734375,0.0013662559213116765,-0.000244565075263381,-0.0006992174312472343
1773798179094339800,3.56033984375,-0.0005074411747045815,0.0009190381970256567,0.0006689885631203651
1773798179114306800,3.580306884765625,-0.00014308697427622974,-0.00019326037727296352,-0.0005408157594501972
1773798179134273800,3.600273681640625,-0.0001820148463593796,0.0005383619572967291,0.0010443739593029022
1773798179154240800,3.62024072265625,0.00009778169624041766,-0.0007726890034973621,-0.0015906943008303642
1773798179174208000,3.6402080078125,-0.000039590595406480134,0.00026780785992741585,0.00024390406906604767
1773798179194174700,3.6601748046875,-0.0008665808709338307,0.0003575957380235195,-0.0006566732190549374
1773798179214142000,3.680141845703125,0.0007917576585896313,-0.0013143830001354218,-0.00030716415494680405
1773798179234109000,3.70010888671875,0.00014047769946046174,-0.0010759772267192602,-0.0011670729145407677
1773798179254075600,3.72007568359375,0.0017480726819485426,-0.0003472969401627779,0.0004199715331196785
1773798179274043000,3.74004296875,0.00027761299861595035,0.00027766707353293896,0.00020611518993973732
1773798179294009900,3.760009765625,-0.0003028447972610593,0.00031849159859120846,-0.000522061251103878
1773798179313976800,3.779976806640625,0.0004105333355255425,0.0006595877930521965,-0.0002787490375339985
1773798179333943800,3.79994384765625,-0.0013190177269279957,0.0018453617813065648,-0.0003700545057654381
1773798179353911000,3.8199111328125,-0.00035792021662928164,0.00040983082726597786,-0.0009648771956562996
1773798179373877800,3.839877685546875,0.0012182960053905845,0.0003504888154566288,-0.0007380768656730652
1773798179393844700,3.8598447265625,-0.0012844770681113005,-0.00007001240737736225,-0.0004852474667131901
1773798179413812000,3.87981201171875,0.000826039002276957,-0.0008402164094150066,0.0009764977730810642
1773798179433778700,3.89977880859375,-0.00039983203168958426,0.0005240293685346842,0.0010648313909769058
1773798179453746000,3.919745849609375,-0.000009885116014629602,0.0004950629081577063,-0.00003290735185146332
1773798179473713000,3.939712890625,-0.00018038714188151062,-0.0013874878641217947,0.0007884190417826176
1773798179493679900,3.959679931640625,-0.00017432088498026133,0.00023863301612436771,-0.0006321510300040245
1773798179513646800,3.979646728515625,0.0010599936358630657,-0.0009802826680243015,-0.0004396215081214905
1773798179533613800,3.99961376953125,-0.000979954027570784,-0.0000713118351995945,-0.00003243330866098404
1773798179553580800,4.019580810546875,0.0006247059791348875,0.00014084228314459324,0.000024584587663412094
1773798179573547500,4.039547607421875,-0.000560430868063122,0.00011443812400102615,0.0014045755378901958
1773798179593514800,4.0595146484375,-0.0009680786752142012,0.00019960920326411724,-0.0006448985077440739
1773798179613481700,4.079481689453125,0.00014832023589406163,0.0010168644366785884,-0.0015307520516216755
1773798179633448700,4.09944873046875,0.0008892439072951674,-0.001796314725652337,0.0009135035797953606
1773798179653415700,4.119415771484375,0.0005283324280753732,-0.0010808263905346394,-0.00009956816211342812
1773798179673382700,4.139382568359375,-0.00030310629517771304,-0.00007696892134845257,0.000303568784147501
1773798179693349600,4.159349609375,0.0006737984949722886,0.00017654872499406338,-0.0010688831098377705
1773798179713316600,4.179316650390625,0.000028965412639081478,-0.0008579837158322334,0.0008890135213732719
1773798179733283800,4.199283935546875,0.0006557301967404783,0.0002563083544373512,-0.0005376534536480904
1773798179753250600,4.21925048828125,-0.0007850885740481317,-0.00003511132672429085,-0.000554689671844244
1773798179773217800,4.2392177734375,0.0011353784939274192,-0.0009934988338500261,-0.00031937751919031143
1773798179793184800,4.259184814453125,0.0002321584615856409,0.0002562273293733597,-0.0007711104117333889
1773798179813151500,4.2791513671875,-0.0005197674036026001,0.00041992333717644215,0.0009402083232998848
1773798179833118700,4.29911865234375,0.00007818366430001333,0.0001846731174737215,0.0000967998057603836
1773798179853085700,4.319085693359375,-0.0007665419252589345,-0.0005328527186065912,-0.0003145216032862663
1773798179873052700,4.339052734375,-0.0020499618258327246,-0.0008350573480129242,-0.0006910222582519054
1773798179893019600,4.35901953125,-0.0013969779247418046,0.0008058781968429685,0.00022563431411981583
1773798179912987000,4.37898681640625,0.00012394531222525984,-0.00022239494137465954,0.001524273306131363
1773798179932952600,4.39895263671875,-0.000035697390558198094,-0.0005362546071410179,-0.0008731046691536903
1773798179952919800,4.418919921875,-0.0011371695436537266,-0.00010765879414975643,0.0007968447171151638
1773798179972886500,4.438886474609375,0.0007539470680058002,-0.0005035074427723885,-0.00020968681201338768
1773798179992853800,4.458853759765625,0.00010114219185197726,0.0009109101956710219,-0.0006323056295514107
1773798180012820700,4.47882080078125,-0.0003497994621284306,0.0005736192688345909,-0.00038302550092339516
1773798180032787500,4.498787353515625,0.0003537286538630724,-0.0006097501609474421,0.0015359725803136826
1773798180052754700,4.518754638671875,-0.00011298095341771841,-0.0008731149137020111,-0.0006212661974132061
1773798180072721700,4.5387216796875,0.0002469720784574747,0.001116780680604279,-0.0012890095822513103
1773798180092688600,4.558688720703125,-0.0012316785287111998,-0.0011054219212383032,-0.0012385318987071514
1773798180112655600,4.578655517578125,0.0001953686587512493,0.0017682461766526103,0.00007306691259145737
1773798180132622600,4.59862255859375,-0.00012306676944717765,-0.0006118672899901867,-0.000044800806790590286
1773798180152589600,4.618589599609375,-0.00021633945289067924,0.00009085703641176224,-0.0007534786127507687
1773798180172556500,4.638556640625,0.001362430164590478,0.0003782203420996666,0.0015193899162113667
1773798180192523800,4.658523681640625,-0.0005544518353417516,-0.00070982426404953,0.000027505680918693542
1773798180212490500,4.678490478515625,0.000047807421651668847,-0.00054370635189116,-0.0010532350279390812
1773798180232457700,4.698457763671875,0.0008239040616899729,0.00016869069077074528,0.0001801145263016224
1773798180252424700,4.7184248046875,-0.0005786607507616282,0.0007275901734828949,-0.0012813280336558819
1773798180272391700,4.7383916015625,0.0012208264088258147,-0.0008181086741387844,-0.0000283154658973217
1773798180292358700,4.758358642578125,0.0005719934706576169,0.00012832088395953178,0.00001993263140320778
1773798180312325600,4.77832568359375,-0.001445119152776897,-0.0008755954913794994,0.00014082808047533035
1773798180332292600,4.798292724609375,-0.000013727607438340783,-0.0007708852645009756,0.0008985744789242744
1773798180352259600,4.818259521484375,0.002028576796874404,-0.00016075000166893005,-0.0006873062811791897
1773798180372226800,4.838226806640625,-0.0003282840771134943,-0.0006283018738031387,-0.00018749292939901352
1773798180392193500,4.858193603515625,-0.00017989054322242737,-0.0011624866165220737,0.000024050474166870117
1773798180412160500,4.878160400390625,-0.0008183494210243225,-0.0010590218007564545,-0.0008517904207110405
1773798180432126700,4.898126708984375,0.00011885801359312609,-0.0008695886936038733,-0.0016513592563569546
1773798180453965600,4.919965576171875,0.0002590718795545399,-0.0020608240738511086,-0.00030603306367993355
1773798180473932800,4.939932861328125,0.00031497099553234875,0.00042757531628012657,-0.0010531144216656685
1773798180493899500,4.9598994140625,0.0009554591379128397,-0.0007894625887274742,-0.0012072473764419556
1773798180513866800,4.97986669921875,0.0004412962298374623,-0.001276858150959015,-0.00007826369255781174
1773798180533833700,4.999833740234375,0.0009448404889553785,-0.00006281235255300999,-0.0005825911648571491
1773798180553800700,5.01980078125,-0.0007309642969630659,0.0008658928563818336,-0.0013851909898221493
1773798180573767200,5.03976708984375,-0.0009255746263079345,-0.0009218065533787012,-0.0007893401198089123
1773798180593734100,5.059734130859375,0.001123548485338688,-0.0006060486193746328,-0.0008795987814664841
1773798180613701000,5.079701171875,-0.0011841863160952926,0.0006049610674381256,-0.00028706761077046394
1773798180633668000,5.099668212890625,-0.0003913886030204594,-0.0010552562307566404,-0.001834807451814413
1773798180653635000,5.119635009765625,0.0012791403569281101,0.0003122640773653984,0.0001049218699336052
1773798180673602000,5.13960205078125,0.0005900692194700241,0.0006860105786472559,0.00048540253192186356
1773798180693569300,5.1595693359375,0.0005553971277549863,0.0005191485397517681,0.00045474572107195854
1773798180713536000,5.179535888671875,0.00004300513683119789,0.00014363299123942852,-0.0005467911250889301
1773798180733503000,5.1995029296875,-0.0002520187699701637,-0.00017437362112104893,0.001821247860789299
1773798180753470200,5.21947021484375,0.000590487674344331,-0.0009342795237898827,0.0005553672090172768
1773798180773436200,5.239436279296875,-0.0008957095560617745,-0.0008318845648318529,0.001937630120664835
1773798180793403100,5.259403076171875,0.0011017585638910532,0.0002714416477829218,0.0006552627310156822
1773798180813994200,5.279994140625,-0.0001845622609835118,0.001365038100630045,0.0005744560621678829
1773798180833961000,5.2999609375,-0.0006217340705916286,0.0009356404189020395,0.0011283918283879757
1773798180853928200,5.31992822265625,-0.000630111142527312,0.000027380185201764107,0.0008029933087527752
1773798180873895200,5.339895263671875,-0.000737191061489284,0.000059687066823244095,0.000753515399992466
1773798180893862000,5.35986181640625,0.0017894187476485968,0.0001840977929532528,-0.0011505899019539356
1773798180913829000,5.3798291015625,0.0013463967479765415,-0.00042002717964351177,0.001147072296589613
1773798180933796000,5.399796142578125,0.0018979475134983659,-0.0013146670535206795,0.00043549807742238045
1773798180953763000,5.41976318359375,0.000042375788325443864,0.0011194980470463634,-0.0022329590283334255
1773798180973730000,5.43972998046875,0.0006212177686393261,0.0003403695300221443,0.0014891787432134151
1773798180993696300,5.4596962890625,-0.00027437711833044887,0.0006912110839039087,-0.0006101992912590504
1773798181013663000,5.4796630859375,0.0009142222115769982,0.00040488014928996563,-0.0005018468946218491
1773798181033630200,5.499630126953125,0.00034062270424328744,-0.000048152171075344086,0.00042980676516890526
1773798181053597200,5.51959716796875,0.0005539734265767038,-0.0003288104198873043,-0.0012672594748437405
1773798181073564200,5.539564208984375,0.0004995904164388776,0.00023637758567929268,0.0003719381056725979
1773798181093531100,5.55953125,0.0013752500526607037,0.00033498043194413185,0.0007825759239494801
1773798181113498000,5.579498046875,0.0007758453721180558,0.0003442899323999882,0.0007579592056572437
1773798181133465000,5.599465087890625,0.00017689990636426955,0.00026264553889632225,0.0013654683716595173
1773798181153432000,5.61943212890625,0.0009269316215068102,-0.00039878813549876213,0.0010276800021529198
1773798181173399300,5.6393994140625,-0.0005708974786102772,-0.00127196847461164,-0.0004991143941879272
1773798181193366000,5.659365966796875,-0.00019310088828206062,0.0007951685693114996,-0.001076667569577694
1773798181213332200,5.679332275390625,-0.00036879073013551533,0.00015489431098103523,0.00042738765478134155
1773798181233299000,5.699298828125,-0.0005872937617823482,0.0007442827336490154,0.0007879361510276794
1773798181253266200,5.71926611328125,-0.0005495137302204967,-0.0008180532604455948,0.0007751761004328728
1773798181273233200,5.739233154296875,-0.0006163124344311655,0.0002649857196956873,-0.0004889033734798431
1773798181293200100,5.7592001953125,0.000015580406397930346,-0.0001501869410276413,0.0002795364707708359
1773798181313167000,5.7791669921875,-0.002563245128840208,0.0019777072593569756,0.0020236377604305744
1773798181333134000,5.799134033203125,0.0001443037617718801,-0.00020755617879331112,-0.002554577309638262
1773798181353101000,5.81910107421875,0.0009409295744262636,-0.001363209681585431,0.000951030757278204
1773798181373068000,5.839068115234375,0.00009894656977849081,-0.0010794259142130613,-0.0017290273681282997
1773798181393035300,5.85903515625,0.0006791133200749755,0.0004849052056670189,-0.00019127130508422852
1773798181413001000,5.8790009765625,-0.00018678285414353013,-0.0001979402732104063,-0.0012707500718533993
1773798181432968200,5.89896826171875,-0.0005426988354884088,0.0008075605146586895,-0.00037470879033207893
1773798181452935200,5.91893505859375,-0.0009126292425207794,-0.0008695062715560198,-0.001023411750793457
1773798181472902100,5.938902099609375,-0.0005170509684830904,-0.00022126897238194942,-0.0011753174476325512
1773798181492869000,5.958869140625,0.0003068341757170856,-0.0007636391092091799,0.00012877536937594414
1773798181512836000,5.978836181640625,0.0007787105278111994,0.0011060729157179594,-0.0006535244174301624
1773798181532803000,5.998802978515625,0.0007191031472757459,0.00007111928425729275,-0.0021166056394577026
1773798181552770000,6.01877001953125,-0.0007194652571342885,0.0008951637428253889,0.0006616264581680298
1773798181572737800,6.03873779296875,-0.00027902983129024506,0.000017603160813450813,-0.0009488849900662899
1773798181592703500,6.058703369140625,-0.00021454077796079218,0.0003066032659262419,0.0005071614868938923
1773798181612670700,6.078670654296875,-0.0003887713828589767,0.0008277730084955692,0.0003185281530022621
1773798181632637400,6.098637451171875,-0.00008505886216880754,0.00030954484827816486,-0.0014016195200383663
1773798181652604700,6.118604736328125,-0.0009243355016224086,0.0007650945335626602,0.00034674396738409996
1773798181672571600,6.138571533203125,0.0005964422016404569,0.0010978871723636985,0.0012380625121295452
1773798181692538600,6.15853857421875,-0.0005003198166377842,0.0005388855934143066,-0.00013209041208028793
1773798181712505600,6.178505615234375,-0.000017000202205963433,-0.0007798662409186363,0.0004091039299964905
1773798181732472600,6.19847265625,-0.000302904867567122,0.0005279358010739088,0.002643604064360261
1773798181752438500,6.2184384765625,-0.0005649109371006489,0.0004318833816796541,0.0018234150484204292
1773798181772405500,6.238405517578125,-0.00006949248199816793,0.00032952893525362015,-0.0012562298215925694
1773798181792372700,6.258372802734375,-0.0008120695711113513,0.00018111895769834518,-0.00027845799922943115
1773798181812339500,6.27833935546875,-0.0007657172973267734,0.00026997062377631664,-0.0011820131912827492
1773798181832306700,6.298306640625,0.0018952905666083097,-0.00009610084816813469,-0.0004666498862206936
1773798181852273700,6.318273681640625,-0.000008054397767409682,-0.00044858967885375023,0.0008620447479188442
1773798181872240600,6.33824072265625,-0.00013017948367632926,0.00005027861334383488,0.000007407274097204208
1773798181892207600,6.35820751953125,-0.0013120172079652548,0.00023306976072490215,0.0010152319446206093
1773798181912173600,6.378173583984375,-0.0000920391030376777,-0.000023331958800554276,0.0014172629453241825
1773798181932140500,6.398140625,0.0009434845997020602,-0.00004386948421597481,-0.001163021195679903
1773798181952107800,6.418107666015625,-0.0003651793231256306,0.00011875107884407043,-0.00011455640196800232
1773798181972074500,6.438074462890625,0.00010609265882521868,-0.00003925105556845665,-0.0009168088436126709
1773798181992041500,6.45804150390625,-0.0006518118316307664,0.0003808715846389532,0.0005206908099353313
1773798182012008700,6.4780087890625,0.0005360965733416378,-0.00011307676322758198,-0.00006169313564896584
1773798182031975400,6.497975341796875,-0.0007590471068397164,0.0010839833412319422,-0.001747028436511755
1773798182051941600,6.517941650390625,-0.0003976759035140276,-0.00019595492631196976,0.0010149278677999973
1773798182071908600,6.53790869140625,-0.0011159100104123354,-0.0002477823290973902,-0.0006066733039915562
1773798182091875600,6.55787548828125,-0.0003560009063221514,0.0015166092198342085,-0.00009287567809224129
1773798182111842600,6.577842529296875,-0.0011024889536201954,-0.0004395239520817995,0.00015001138672232628
1773798182131809800,6.597809814453125,-0.00045115716056898236,-0.0009317456278949976,0.00014663394540548325
1773798182151776500,6.617776611328125,-0.00041252680239267647,0.0012757949298247695,0.000775250606238842
1773798182171743700,6.63774365234375,-0.00012705865083262324,0.00040223123505711555,-0.002110084518790245
1773798182191709400,6.65770947265625,0.0017666446510702372,-0.0010380647145211697,0.0014885677956044674
1773798182211676700,6.6776767578125,-0.0011777960462495685,-0.0010736926924437284,-0.000015354715287685394
1773798182231643600,6.6976435546875,-0.0005719122709706426,0.0004596912767738104,0.0006867297925055027
1773798182251610600,6.717610595703125,-0.0005405217525549233,0.000485600670799613,-0.00023258617147803307
1773798182271577600,6.73757763671875,0.0004401213373057544,-0.0005501690320670605,-0.0006448705680668354
1773798182291544600,6.757544677734375,-0.0008048831368796527,0.00032020825892686844,0.000704572070389986
1773798182311511600,6.777511474609375,-0.0004480880161281675,-0.0008010549936443567,0.0016532805748283863
1773798182331477800,6.797477783203125,0.0004549897275865078,0.0006895042024552822,0.00007160240784287453
1773798182351444700,6.81744482421875,-0.0006108005763962865,-0.0003844217862933874,-0.00020168116316199303
1773798182371411500,6.837411376953125,-0.000616188975982368,-0.0003123101778328419,0.0004327152855694294
1773798182391378700,6.857378662109375,0.00034640944795683026,0.00003383727744221687,0.0003490014933049679
1773798182411345700,6.877345703125,0.0006143491482362151,0.00012406590394675732,-0.0006080986931920052
1773798182431312600,6.897312744140625,0.0006246406119316816,0.0009858317207545042,0.0005456898361444473
1773798182451278600,6.917278564453125,0.00018285171245224774,-0.000009402632713317871,-0.00046271132305264473
1773798182471245600,6.93724560546875,0.0005247818771749735,0.0008943076245486736,0.00002044299617409706
1773798182491212500,6.957212646484375,0.0007086976547725499,0.00019376957789063454,0.00021342327818274498
1773798182511179800,6.9771796875,-0.0012791496701538563,0.0005093780346214771,0.00013785017654299736
1773798182531146500,6.997146484375,-0.0015409227926284075,0.0004932463634759188,0.0004200325347483158
1773798182551113700,7.01711376953125,0.00006631789437960833,0.000026785070076584816,0.00002040015533566475
1773798182571080000,7.037079833984375,0.0008310112170875072,-0.001289894338697195,0.0006827185861766338
1773798182591047200,7.057047119140625,-0.001323165139183402,0.0006668255664408207,0.00028839288279414177
1773798182611014100,7.07701416015625,0.0012387463357299566,0.00027743796817958355,0.0010744431056082249
1773798182630980900,7.09698095703125,0.00002019415478571318,0.00003795512020587921,-0.0003419644199311733
1773798182650948000,7.116947998046875,0.0018912357045337558,0.00018518860451877117,0.0006425981409847736
1773798182670915000,7.1369150390625,-0.0002105932217091322,-0.00010978360660374165,-0.0016802535392343998
1773798182690881000,7.156881103515625,-0.0010942741064354777,0.001773701747879386,0.00204134127125144
1773798182710848000,7.176847900390625,-0.0003525830979924649,-0.0008406327106058598,-0.0006451462395489216
1773798182730815000,7.19681494140625,0.0005030573229305446,0.0003406703472137451,0.0016327998600900173
1773798182750782000,7.216781982421875,0.0001250242639798671,-0.0005711696576327085,-0.0010341941379010677
1773798182770749200,7.236749267578125,0.0000014658653526566923,-0.0005025980062782764,-0.000713735818862915
1773798182790715000,7.25671484375,0.0005139014683663845,-0.0007586961146444082,0.00016468623653054237
1773798182810682000,7.27668212890625,0.0006140294135548174,0.00007384014315903187,0.00041264574974775314
1773798182830649000,7.296649169921875,0.001283607562072575,0.00011399714276194572,-0.000044154468923807144
1773798182850616000,7.316615966796875,0.0004986088024452329,0.00044810445979237556,0.0005702991038560867
1773798182870583000,7.3365830078125,0.0009105355711653829,-0.000648577231913805,-0.0007450883276760578
1773798182890549000,7.356549072265625,-0.00012786488514393568,-0.0005048252642154694,0.00006216159090399742
1773798182910516000,7.376515869140625,0.0011135588865727186,-0.00020692800171673298,-0.0003151772543787956
1773798182930483200,7.396483154296875,-0.00012968576629646122,0.00013543199747800827,0.00040115322917699814
1773798182950450000,7.416449951171875,0.0005370803410187364,0.0005521078128367662,0.0004475358873605728
1773798182970417000,7.4364169921875,-0.0005927233141846955,-0.0005116686224937439,0.001150614582002163
1773798182990384000,7.456384033203125,0.000220295914914459,0.0011818668572232127,0.00041563855484128
1773798183010350000,7.47635009765625,-0.0008693191921338439,-0.0004250085912644863,-0.0008352566510438919
1773798183030317000,7.496317138671875,0.00010766009654616937,0.00043184543028473854,0.0008361046202480793
1773798183050284000,7.516283935546875,-0.0004176379879936576,0.0006403217557817698,-0.00013011228293180466
1773798183070251000,7.5362509765625,0.00029522416298277676,-0.000009583309292793274,0.0009262566454708576
1773798183090218000,7.556218017578125,0.0013448428362607956,-0.001446473877876997,0.000452614389359951
1773798183110184000,7.576183837890625,0.0007268695044331253,0.0010358988074585795,-0.00022232532501220703
1773798183130151000,7.59615087890625,0.00007321545854210854,-0.00018114689737558365,0.00017884233966469765
1773798183150118100,7.6161181640625,0.00018082946189679205,-0.0010427865199744701,-0.0020255930721759796
1773798183170084900,7.6360849609375,-0.00025819166330620646,0.00030604819767177105,0.0011278125457465649
1773798183190052000,7.656052001953125,0.0001591680193087086,-0.00040654977783560753,-0.00008882395923137665
1773798183210017800,7.676017822265625,0.0008356442558579147,-0.00008871057070791721,0.0006810217164456844
1773798183229985000,7.695985107421875,0.0022806180641055107,-0.0003828813787549734,-0.001037058886140585
1773798183249952000,7.715951904296875,-0.00014615527470596135,-0.00008711148984730244,-0.0008622957393527031
1773798183269919000,7.7359189453125,-0.001790000475011766,-0.00001948256976902485,-0.000021738000214099884
1773798183289885000,7.755885009765625,0.00018451378855388612,0.0006291014142334461,-0.0003187144175171852
1773798183309852200,7.77585205078125,0.00009438539564143866,-0.00036861677654087543,-0.00020959647372364998
1773798183329819000,7.79581884765625,0.00042506627505645156,-0.0009330881293863058,-0.0001417100429534912
1773798183349786000,7.8157861328125,0.00018071442900691181,-0.0002403026446700096,0.0007953322492539883
1773798183369753000,7.835753173828125,0.00019809884543064982,-0.0013178789522498846,0.0011753803119063377
1773798183389719000,7.855718994140625,-0.0006399836856871843,-0.0010296981781721115,0.0010495120659470558
1773798183409686000,7.87568603515625,0.00025809096405282617,0.0005346308462321758,0.0004427698440849781
1773798183429653000,7.895653076171875,0.00019346189219504595,0.0007995960768312216,-0.0003364467993378639
1773798183449620000,7.915619873046875,-0.0002901745028793812,0.0010917780455201864,0.0015469584614038467
1773798183469586200,7.935586181640625,-0.000762289622798562,-0.00034292740747332573,0.0007544346153736115
1773798183489553000,7.955552978515625,-0.0000765798831707798,-0.0007473211735486984,-0.00025942176580429077
1773798183509520100,7.97552001953125,0.0007044573430903256,-0.0004588933661580086,0.000025338493287563324
1773798183529487000,7.995487060546875,-0.00031288954778574407,-0.0005459932144731283,0.0006924867630004883
1773798183549454000,8.0154541015625,-0.00024885882157832384,0.0004990734159946442,-0.00027091847732663155
1773798183569420000,8.035419921875,0.00040076690493151546,0.0003109285607933998,0.0005002184771001339
1773798183589387300,8.05538720703125,0.001280502532608807,0.001897761132568121,-0.0006935205310583115
1773798183609354000,8.07535400390625,-0.0017751588020473719,-0.00012217974290251732,-0.0001838761381804943
1773798183629321200,8.0953212890625,-0.00022593711037188768,-0.00029037054628133774,0.0002173720858991146
1773798183649287200,8.115287109375,-0.00012543812044896185,0.0000019597355276346207,-0.00023880647495388985
1773798183669254100,8.135254150390624,0.0006307321018539369,0.0009588877437636256,0.0007233656942844391
1773798183689221000,8.15522119140625,-0.0002448295126669109,-0.0005885805003345013,0.0010956032201647758
1773798183709188000,8.17518798828125,0.000033489563065813854,-0.0003579098265618086,0.0008466094732284546
1773798183729154000,8.195154052734376,-0.0015359340468421578,0.0003057490102946758,-0.00035380804911255836
1773798183749121300,8.215121337890626,-0.00019356732082087547,-0.0004584086127579212,0.0013789148069918156
1773798183769088000,8.235087890625,-0.0013717964757233858,0.0007671064231544733,-0.00004058610647916794
1773798183789055200,8.25505517578125,0.0006306354189291596,-0.0003772552590817213,-0.000137972179800272
1773798183809022200,8.275022216796875,-0.0009568019304424524,0.0016128974966704845,-0.0014927349984645844
1773798183828988200,8.29498828125,-0.0006426332984119654,0.0003604905214160681,0.0004680892452597618
1773798183848955100,8.314955078125,-0.00023179636627901345,0.00009860703721642494,-0.0003740880638360977
1773798183868922000,8.334922119140625,0.0005741757340729237,-0.0003932493273168802,0.0009554820135235786
1773798183888889000,8.35488916015625,0.0001797428703866899,0.000397286145016551,0.0008114106021821499
1773798183908855300,8.374855224609375,0.0010407947702333331,-0.001055917702615261,0.00039913924410939217
1773798183928822000,8.394822021484375,-0.0001774573465809226,-0.001516850432381034,-0.0006928718648850918
1773798183948789000,8.4147890625,-0.00024017179384827614,-0.00008246302604675293,-0.0005440344102680683
1773798183968756200,8.434756103515625,0.00026821967912837863,-0.0008954473305493593,-0.001093332190066576
1773798183988722200,8.45472216796875,-0.00028383792960084975,0.0007684861775487661,0.0016778074204921722
1773798184008689200,8.474689208984374,-0.00022437702864408493,0.0009014667011797428,-0.001925034448504448
1773798184028656000,8.49465625,-0.0011064015561714768,-0.0001571930479258299,0.0014635305851697922
1773798184048623000,8.514623046875,0.00047343590995296836,0.00001937546767294407,-0.0003592991270124912
1773798184068589300,8.53458935546875,-0.00040787504985928535,-0.0011090789921581745,0.0005587311461567879
1773798184088556000,8.55455615234375,0.0008551678620278835,0.00067346659488976,0.0005004149861633778
1773798184108523000,8.57452294921875,0.0006484374753199518,0.0004702378064393997,-0.0008808914572000504
1773798184128489000,8.594489013671875,-0.0004796314751729369,-0.00009562051855027676,-0.0010606655851006508
1773798184148456200,8.614456298828125,0.0013917733449488878,0.0001718001440167427,0.00012588361278176308
1773798184168423200,8.634423095703125,0.0002303599612787366,0.0000747388694435358,-0.0010874951258301735
1773798184188390100,8.65439013671875,-0.0001943989918800071,0.00020159711129963398,-0.0006210268475115299
1773798184208356000,8.674356201171875,0.0013013525167480111,-0.0014288537204265594,0.00027829408645629883
1773798184228323300,8.6943232421875,0.0009982635965570807,-0.0014855589251965284,0.0008527957834303379
1773798184248290000,8.7142900390625,0.0006076605059206486,0.00015559932217001915,-0.00008418364450335503
1773798184268257000,8.734257080078125,0.0009472383535467088,-0.0006662725936621428,0.0002423468977212906
1773798184288223000,8.754222900390625,-0.0019476615125313401,-0.0006788752507418394,-0.0005400935187935829
1773798184308190200,8.774190185546875,-0.000030134884582366794,0.0002663834020495415,-0.0005291183479130268
1773798184328157200,8.7941572265625,-0.0008752461289986968,-0.00009649875573813915,0.0005093012005090714
1773798184348124000,8.8141240234375,-0.00033302928204648197,0.0014613905223086476,-0.00104184215888381
1773798184368090000,8.834090087890624,0.00023337063612416387,-0.0020626976620405912,-0.0015130010433495045
1773798184388057000,8.85405712890625,0.00013801458408124745,-0.00020424975082278252,-0.0005432129837572575
1773798184408024000,8.874024169921874,-0.0015552123077213764,0.0004866591189056635,-0.0003460836596786976
1773798184427990300,8.893990234375,-0.0012163921492174268,0.0005695810541510582,-0.0014048065058887005
1773798184449829000,8.9158291015625,-0.0007775385747663677,-0.00026532262563705444,0.000553639605641365
1773798184469796000,8.935796142578125,0.00039451709017157555,0.00016188411973416805,-0.00030599208548665047
1773798184489763000,8.95576318359375,0.0006267263670451939,-0.00008495454676449299,-0.0005919807590544224
1773798184509729000,8.97572900390625,0.0009997057495638728,0.0006686006672680378,0.0005716262385249138
1773798184529696300,8.9956962890625,-0.0013964427635073662,-0.0005905518773943186,-0.0017288466915488243
1773798184549663000,9.0156630859375,0.0005682212067767978,0.00029814429581165314,-0.0006007510237395763
1773798184569629200,9.035629150390625,0.000895888137165457,0.0009345917496830225,-0.0005433643236756325
1773798184589596200,9.05559619140625,-0.0005610983353108168,0.00007518217898905277,0.0015834663063287735
1773798184609563000,9.07556298828125,0.0014094479847699404,-0.00013311533257365227,0.00012400047853589058
1773798184629529900,9.09552978515625,0.0007535938057117164,-0.000646557193249464,0.0011674542911350727
1773798184649496000,9.11549609375,0.00027420889819040895,0.00015920773148536682,-0.00020209560170769691
1773798184669463000,9.135463134765626,-0.0008341672946698964,0.00045544770546257496,-0.0008874828927218914
1773798184689430000,9.155429931640626,-0.0010329767828807235,0.00034818495623767376,-0.00006457604467868805
1773798184709396000,9.17539599609375,-0.00012865914322901517,0.0023211033549159765,-0.00025815749540925026
1773798184729363000,9.195363037109376,-0.0004166032886132598,-0.00011783535592257977,0.0010941913351416588
1773798184749330000,9.215329833984375,0.0005420640809461474,-0.00001552840694785118,-0.0004894356243312359
1773798184769296000,9.2352958984375,0.00010132034367416054,0.00014310982078313828,0.0006255903281271458
1773798184789263000,9.25526318359375,0.0009173664730042219,0.00037377397529780865,-0.0009707389399409294
1773798184809854000,9.27585400390625,-0.0005081857088953257,0.00002275523729622364,-0.0001724730245769024
1773798184829820000,9.29581982421875,-0.0011951401829719543,0.00031102984212338924,-0.000431661494076252
1773798184849787000,9.315786865234376,-0.00032862077932804823,-0.00005166511982679367,0.0018268749117851257
1773798184869754000,9.335754150390626,-0.000027905436581932008,0.0005455643404275179,0.0019655085634440184
1773798184889720800,9.355720947265626,-0.000629895890597254,0.001214485033415258,0.0005224402993917465
1773798184909687000,9.37568701171875,0.0010614765342324972,-0.0002841867972165346,-0.0008117151446640491
1773798184929653800,9.39565380859375,0.0009210148127749562,0.0000803524162620306,-0.00030519673600792885
1773798184949621000,9.41562109375,0.00018164450011681765,0.0006195802707225084,-0.0007321229204535484
1773798184969587200,9.435587158203125,0.0004594638885464519,-0.0002233192790299654,0.0009047375060617924
1773798184989554000,9.455553955078125,0.0006139391916804016,0.0006362916901707649,-0.0008253613486886024
1773798185009521000,9.47552099609375,0.0003091293037869036,0.00038131698966026306,0.0021274923346936703
1773798185029486800,9.49548681640625,-0.0007775708800181746,-0.00006659631617367268,-0.0010598408989608288
1773798185049454000,9.5154541015625,0.0007662841235287488,-0.0002842091489583254,-0.0008289562538266182
1773798185069421000,9.535421142578125,0.0006226198165677488,-0.001533294329419732,-0.0017246347852051258
1773798185089387000,9.555386962890625,-0.0009553569834679365,-0.00023287208750844002,-0.00001563131809234619
1773798185109354000,9.57535400390625,-0.00009889606735669076,-0.00003504706546664238,-0.0007948507554829121
1773798185129321200,9.5953212890625,-0.00042827610741369426,0.0005717272870242596,-0.001112489029765129
1773798185149287000,9.615286865234374,-0.00032620917772874236,0.00039557390846312046,-0.00004317937418818474
1773798185169254100,9.635254150390624,0.0008009011507965624,-0.0015511552337557077,0.0000348137691617012
1773798185189220900,9.655220947265626,0.00002259585016872734,-0.0002735820598900318,-0.0013896850869059563
1773798185209187000,9.67518701171875,0.00014783491496928036,-0.0002570266369730234,0.0009603998623788357
1773798185229153800,9.69515380859375,0.0002640655729919672,-0.0008317572064697742,-0.00005835806950926781
1773798185249121000,9.71512109375,0.0008854459156282246,0.0005645831115543842,-0.00030521024018526077
1773798185269087000,9.7350869140625,-0.0009574620053172112,0.00044594635255634785,0.0010307133197784424
1773798185289054000,9.755053955078125,0.0013348067877814174,-0.0007172797340899706,0.0009350050240755081
1773798185309021000,9.77502099609375,-0.00011188168718945235,0.0012014034437015653,-0.00019398005679249763
1773798185328987000,9.79498681640625,0.0007113702595233917,-0.0006985240615904331,0.0007132804021239281
1773798185348953900,9.814953857421875,-0.000586603011470288,-0.0009320189710706472,0.001239133533090353
1773798185368921000,9.834921142578125,0.0008315141312777996,-0.00004731491208076477,-0.00023107556626200676
1773798185388887000,9.854886962890625,0.000532226637005806,-0.0006686723791062832,-0.00023759528994560242
1773798185408854000,9.87485400390625,-0.00030162493931129575,-0.0003607741091400385,0.0005881218239665031
1773798185428821000,9.894821044921875,-0.001096567721106112,-0.0000941343605518341,-0.0006907153874635696
1773798185448787000,9.914786865234374,-0.00017699656018521637,-0.00023880647495388985,-0.00015482306480407715
1773798185468754200,9.934754150390624,0.000547642819583416,-0.0009334464557468891,-0.00040060048922896385
1773798185488721000,9.954720947265624,0.0009055404225364327,0.00039868359453976154,0.0009642718359827995
1773798185508687000,9.97468701171875,-0.0002662643091753125,0.0008738972246646881,0.0007562888786196709
1773798185528654000,9.994654052734376,0.000019495324522722512,-0.0001268591731786728,-0.0012590717524290085
1773798185548621000,10.01462109375,0.00037637026980519295,-0.0005754914600402117,0.0006440901197493076
1773798185568587000,10.0345869140625,-0.0006577310268767178,0.0003915373235940933,-0.0009559998288750648
1773798185588554000,10.054553955078125,0.00031786522595211864,-0.0006114593707025051,-0.0010480736382305622
1773798185608521000,10.07452099609375,-0.0011907081352546811,-0.00041462527588009834,-0.0003788103349506855
1773798185628487000,10.09448681640625,0.0010731478687375784,0.0007145821582525969,-0.0013707252219319344
1773798185648454000,10.114453857421875,-0.0005526415188796818,-0.00035951752215623856,-0.0009486391209065914
1773798185668420900,10.1344208984375,0.0014181104488670826,0.0008307043462991714,-0.00034465640783309937
1773798185688386800,10.15438671875,0.0002541725116316229,0.00020598177798092365,0.00020931381732225418
1773798185708354000,10.17435400390625,-0.000016558042261749506,-0.00042446493171155453,0.00032614683732390404
1773798185728320000,10.194320068359374,-0.0015223236987367272,-0.00006857700645923615,0.0005889120511710644
1773798185748287000,10.214286865234374,-0.0004951748996973038,0.0015688218409195542,0.0001651216298341751
1773798185768253700,10.234253662109374,-0.00022500399791169912,0.000493866391479969,-0.00011630496010184288
1773798185788220000,10.254219970703126,-0.0003438889398239553,-0.000888302456587553,0.0009163371287286282
1773798185808187000,10.274186767578126,-0.00020153733203187585,0.0010792422108352184,0.00030015967786312103
1773798185828153900,10.29415380859375,-0.00038499420043081045,0.00023561809211969376,-0.000688526313751936
1773798185848120000,10.3141201171875,0.0002918519894592464,-0.0002917288802564144,-0.0012382236309349537
1773798185868086800,10.334086669921875,-0.0002570113865658641,0.0013512506848201156,-0.00015165749937295914
1773798185888054000,10.354053955078125,-0.0007703338633291423,-0.001011074986308813,0.00044615287333726883
1773798185908020000,10.37402001953125,0.0003901052405126393,-0.0005955705419182777,0.0007715788669884205
1773798185927987000,10.393987060546875,-0.0002578936982899904,0.00027988594956696033,0.0002240450121462345
1773798185947954000,10.413953857421875,-0.00045184799819253385,0.0003343794960528612,-0.0006426810286939144
1773798185967919900,10.433919921875,0.00019161564705427736,0.0013488710392266512,0.0008407114073634148
1773798185987886800,10.453886962890625,0.0006577300955541432,0.0002514254301786423,-0.00001511862501502037
1773798186007852800,10.473852783203125,-0.00029689614893868566,0.00002591940574347973,0.0002549844793975353
1773798186027819800,10.49381982421875,0.00006581149500561878,0.0009410921484231949,0.0009445124305784702
1773798186047787000,10.513787109375,-0.0010144851403310895,-0.0006556615699082613,0.0006612539291381836
1773798186067753000,10.5337529296875,0.00020461845269892365,-0.0010145236738026142,-0.0001309276558458805
1773798186087720000,10.553719970703124,-0.001360601745545864,-0.00022568926215171814,-0.0004636053927242756
1773798186107686000,10.573685791015626,0.00033286830876022577,-0.00018296320922672749,0.00005746399983763695
1773798186127652900,10.59365283203125,0.000335278658894822,-0.00004137936048209667,0.00006813183426856995
1773798186147619800,10.613619873046876,0.0001379052409902215,0.0005600666627287865,0.000508949626237154
1773798186167585800,10.633585693359375,0.0002949553309008479,-0.0005972869694232941,0.0002743871882557869
1773798186187553000,10.653552978515625,-0.0007829309906810522,-0.00048787728883326054,-0.0010520229116082191
1773798186207520000,10.67352001953125,0.0014706855872645974,0.000013213837519288063,-0.00008841045200824738
1773798186227486000,10.69348583984375,0.001156408921815455,0.0006596706807613373,0.00002748379483819008
1773798186247453000,10.713452880859375,0.0010857203742489219,0.0009310068562626839,0.00025349901989102364
1773798186267419000,10.7334189453125,0.0008205666672438383,0.0005004401318728924,0.0015120920725166798
1773798186287385900,10.7533857421875,-0.0002881883701775223,-0.0004931301809847355,0.0007560728117823601
1773798186307353000,10.77335302734375,0.0005119609413668513,-0.0000417330302298069,-0.0007334938272833824
1773798186327318800,10.79331884765625,-0.0007511686999350786,0.001491506234742701,0.00003451574593782425
1773798186347286000,10.8132861328125,0.000032141229894477874,-0.0013709706254303455,0.0005406448617577553
1773798186367252000,10.833251953125,0.0013210271717980504,-0.0016154516488313675,-0.0005544102750718594
1773798186387219000,10.853218994140626,-0.000014699297025799751,-0.00021330523304641247,0.0010524275712668896
1773798186407186000,10.87318603515625,-0.0005332953296601772,-0.0002992060035467148,0.00014280527830123901
1773798186427152000,10.89315185546875,0.00045098597183823586,-0.0015723928809165955,-0.0004356261342763901
1773798186447119000,10.913119140625,0.0002403853868599981,-0.0004200360272079706,0.0006122454069554806
1773798186467084800,10.933084716796875,-0.0007695910753682256,-0.0004461354110389948,0.00023967912420630455
1773798186487052000,10.953052001953125,-0.0007891436107456684,-0.0010732398368418217,0.00048220064491033554
1773798186507018800,10.973018798828125,0.000006463247700594366,-0.00035111536271870136,-0.0019150013104081154
1773798186526985000,10.99298486328125,-0.00005902239354327321,0.0000010952353477478027,-0.0007648677565157413
1773798186546952000,11.012951904296875,0.0006047769566066563,-0.00012290873564779758,0.0005576955154538155
1773798186566918000,11.03291796875,-0.0012642324436455965,-0.00012472574599087238,0.00047321664169430733
1773798186586884400,11.05288427734375,-0.0008497762028127909,-0.0003619829658418894,-0.0005373479798436165
1773798186606851300,11.072851318359374,0.0002766268444247544,-0.00006330898031592369,-0.0005957703106105328
1773798186626817300,11.0928173828125,-0.0010776853887364268,-0.000011075055226683617,0.0008989861235022545
1773798186646784300,11.1127841796875,0.0005224416381679475,0.0007180147804319859,-0.0004257592372596264
1773798186666750200,11.132750244140626,0.00031172874150797725,-0.0006028253119438887,0.0006390204653143883
1773798186686717200,11.15271728515625,0.00017948538879863918,-0.0013856301084160805,-0.0003170184791088104
1773798186706683400,11.172683349609375,0.00020494134514592588,-0.0005293781869113445,0.000005634035915136337
1773798186726650000,11.192650146484375,0.00016148954455275089,-0.000187290133908391,0.00025667715817689896
1773798186746617300,11.212617431640625,0.00021459908748511225,0.0010316139087080956,-0.0007828604429960251
1773798186766583300,11.232583251953125,0.0005042586126364768,0.000018869992345571518,-0.0003676372580230236
1773798186786550300,11.25255029296875,-0.0006155428709462285,-0.00043326965533196926,0.0012113815173506737
1773798186806516200,11.27251611328125,0.0002935807569883764,0.000039660604670643806,0.0003786841407418251
1773798186826483200,11.292483154296875,0.00015150176477618515,-0.0006708765868097544,-0.0008323830552399158
1773798186846450400,11.312450439453125,-0.00043783331057056785,-0.0003686316777020693,0.0001482982188463211
1773798186866416000,11.332416015625,0.0008326201350428164,0.00006531225517392159,-0.0005327374674379826
1773798186886383400,11.35238330078125,0.0003800023114308715,0.00006542634218931198,0.000007389578968286514
1773798186906349000,11.37234912109375,-0.00041437294567003846,0.00006657978519797325,0.0003791777417063713
1773798186926316300,11.39231640625,-0.0003927020588889718,-0.0003806243184953928,-0.0013652774505317211
1773798186946282500,11.412282470703126,-0.0006895919796079397,0.00031773652881383896,0.0006859302520751953
1773798186966249200,11.432249267578126,-0.0002577604609541595,-0.0010469926055520773,0.0008439095690846443
1773798186986216200,11.45221630859375,0.00035712693352252245,-0.00018322444520890713,-0.00002091098576784134
1773798187006182100,11.47218212890625,-0.00013384647900238633,0.0002867381554096937,0.0024049195926636457
1773798187026149400,11.4921494140625,-0.0013900881167501211,0.00018814369104802608,-0.00021190615370869637
1773798187046115000,11.512114990234375,-0.0007651333580724895,0.00019101309590041637,-0.00021978793665766716
1773798187066082300,11.532082275390625,-0.0001281469885725528,-0.0008369856514036655,-0.0005208048969507217
1773798187086048300,11.55204833984375,-0.0006053359247744083,0.0005698625463992357,0.0005798675119876862
1773798187106015200,11.57201513671875,-0.00011027324944734573,0.0011395623441785574,0.0005790358409285545
1773798187125982200,11.591982177734375,-0.0005817701457999647,-0.00004567345604300499,0.0006599724292755127
1773798187145948200,11.6119482421875,-0.0011312148999422789,0.00004190392792224884,-0.0008783508092164993
1773798187165915100,11.6319150390625,-0.0006525205099023879,0.00039453431963920593,-0.0011001876555383205
1773798187185881300,11.65188134765625,-0.00040610440191812813,0.0004547394346445799,-0.0007671504281461239
1773798187205848300,11.671848388671876,-0.0019578931387513876,-0.0006441641598939896,-0.00046679843217134476
1773798187225814300,11.691814208984376,0.000772313738707453,0.00027734367176890373,-0.0010929186828434467
1773798187245781200,11.71178125,0.00011669548257486895,-0.0002492363564670086,0.0011469526216387749
1773798187265747200,11.731747314453125,-0.00018495744734536856,0.001117803854867816,0.0002204454503953457
1773798187285714400,11.75171435546875,0.001689696917310357,0.001246622414328158,0.0017878375947475433
1773798187305681200,11.77168115234375,-0.0008020364912226796,-0.0004601378459483385,0.0006348513998091221
1773798187325647400,11.7916474609375,0.001063851173967123,-0.0006607205141335726,0.00037954235449433327
1773798187345614000,11.811614013671875,0.0006930450908839703,-0.0007580271922051907,-0.0003450680524110794
1773798187365580300,11.831580322265625,-0.0006538634188473225,0.00043586501851677895,0.0015508257783949375
1773798187385547300,11.85154736328125,-0.00044606547453440726,-0.001970448065549135,0.0006084572523832321
1773798187405513200,11.87151318359375,0.0002106400061165914,-0.0013648711610585451,-0.0002695629373192787
1773798187425480400,11.89148046875,0.0005360105424188077,-0.0004274488892406225,-0.0009055412374436855
1773798187445446100,11.911446044921876,0.0019326823530718684,0.0004011914134025574,0.0006805448792874813
1773798187465413400,11.931413330078126,-0.0012110379757359624,0.001025268342345953,-0.000795446801930666
1773798187485380000,11.951380126953126,-0.0005564671591855586,-0.00031538261100649834,-0.001135271042585373
1773798187505346300,11.97134619140625,0.0011147429468110204,0.0003621031064540148,0.0010762992314994335
1773798187525313300,11.991313232421875,0.0009436036343686283,0.00022136163897812366,-0.00004080263897776604
1773798187545279200,12.011279296875,0.0016824473859742284,0.0015815492952242494,-0.0010678446851670742
1773798187565246500,12.03124658203125,0.0009149548131972551,0.0006576934829354286,0.0006754179485142231
1773798187585212200,12.051212158203125,-0.0009121681214310229,0.00011969939805567265,0.0002437010407447815
1773798187605179400,12.071179443359375,0.0006911776727065444,-0.0006621945649385452,0.00039689987897872925
1773798187625145000,12.09114501953125,-0.0013363809557631612,0.0005802235100418329,-0.00048691965639591217
1773798187645112300,12.1111123046875,0.00041280611185356975,-0.0017246215138584375,-0.000024464447051286697
1773798187665078300,12.131078369140624,0.0001784080668585375,0.0006733059417456388,-0.0003677317872643471
1773798187685045200,12.151045166015624,0.00033417940721847117,0.0007421411573886871,-0.0002756142057478428
1773798187705011500,12.171011474609376,0.0012047893833369017,0.0008820232469588518,-0.0003299764357507229
1773798187724978200,12.190978271484376,0.00027518440037965775,0.0008275997824966908,-0.0007571880705654621
1773798187744944400,12.2109443359375,-0.0025148906279355288,-0.00006597046740353107,0.00010717334225773811
1773798187764911000,12.2309111328125,0.0007686744211241603,0.0002664942294359207,0.00016272859647870064
1773798187784878300,12.25087841796875,0.0009789365576580167,-0.0006430626381188631,0.0004887073300778866
1773798187804844300,12.27084423828125,0.0021152100525796413,0.00015929178334772587,0.00046829646453261375
1773798187824811300,12.290811279296875,-0.0012560781324282289,-0.0005600086878985167,0.00031558703631162643
1773798187844777500,12.310777587890625,-0.0016183543484658003,-0.0008143419399857521,0.0008889385499060154
1773798187864744200,12.330744140625,-0.001656500156968832,-0.0009883688762784004,0.0000948081724345684
1773798187884710400,12.35071044921875,-0.0006188686238601804,-0.0017345910891890526,-0.00012204144150018692
1773798187904677400,12.370677490234375,0.00048110910574905574,-0.0006540557369589806,-0.0013100458309054375
1773798187924643300,12.390643310546874,-0.00016434545977972448,0.0006634416058659554,-0.00022846320644021034
1773798187944610300,12.4106103515625,0.0013700693380087614,0.00047642248682677746,-0.0008395933546125889
1773798187964576300,12.430576171875,-0.0009465293260291219,-0.00008306209929287434,-0.0014691217802464962
1773798187984543200,12.450543212890626,0.0013341426383703947,-0.00024008285254240036,-0.0005365414544939995
1773798188004509200,12.47050927734375,-0.00023740576580166817,0.000030268914997577667,0.00029115937650203705
1773798188024476400,12.490476318359375,-0.00014137968537397683,0.001175697660073638,0.00041364552453160286
1773798188044442000,12.510442138671875,0.0006254457402974367,0.0013843432534486055,0.0001630219630897045
1773798188064409300,12.530409423828125,0.00009165465598925948,0.00045990757644176483,-0.0013002976775169373
1773798188084375300,12.550375244140625,-0.0007576314965263009,-0.00035128556191921234,-0.0005260296165943146
1773798188104342300,12.57034228515625,-0.0007535993354395032,0.0014561958378180861,-0.0008436241187155247
1773798188124308200,12.59030810546875,0.002041608327999711,-0.0005830309819430113,-0.00044852588325738907
1773798188144275200,12.610275146484375,-0.0004185647121630609,0.0007736166007816792,-0.00023317895829677582
1773798188164241400,12.630241455078124,-0.0009099644375964999,0.0006253281608223915,0.00029464950785040855
1773798188184208400,12.65020849609375,0.0000034236727515235543,-0.0004885138478130102,0.0006995913572609425
1773798188204174300,12.67017431640625,0.00006943886546650901,0.0014969292096793652,0.0003050249069929123
1773798188224141300,12.690141357421876,-0.0012576578883454204,-0.000023074913769960403,-0.00023980578407645226
1773798188244107300,12.710107177734375,0.00002846660208888352,0.000226929085329175,-0.00046201981604099274
1773798188264074200,12.73007421875,0.0008558321860618889,-0.00026195659302175045,-0.00010442407801747322
1773798188284040200,12.750040283203125,0.00015668541891500354,-0.0008452241308987141,-0.00017127534374594688
1773798188304007200,12.770007080078125,0.000027258836780674756,-0.00044282060116529465,0.0002501453272998333
1773798188323973000,12.78997314453125,0.0015587571542710066,-0.0002982611767947674,0.0004983572289347649
1773798188343940400,12.8099404296875,-0.0002121615398209542,-0.0005557653494179249,-0.0000059907324612140656
1773798188363906300,12.82990625,-0.000058469013310968876,0.0002006234135478735,-0.000014795921742916107
1773798188383873300,12.849873291015625,0.0001287365739699453,-0.0005852249450981617,0.0007049813866615295
1773798188403839200,12.869839111328124,0.00030221755150705576,-0.0011174373794347048,-0.0008935229852795601
1773798188423806200,12.88980615234375,-0.0028428658843040466,0.0008866491261869669,-0.0013087885454297066
1773798188444396300,12.910396240234375,-0.0010497757466509938,-0.00009645218960940838,0.0007862555794417858
1773798188464363300,12.93036328125,0.0009288695873692632,0.0012928491923958063,0.0004976876080036163
1773798188484329200,12.9503291015625,-0.000822734902612865,0.00109886284917593,-0.000698835588991642
1773798188504296200,12.970296142578125,-0.0010777934221550822,-0.00045425910502672195,0.0007937592454254627
1773798188524262100,12.99026220703125,0.0005888224113732576,0.0006837411783635616,-0.0008763642981648445
1773798188544229400,13.0102294921875,0.0005706916563212872,0.00162962032482028,0.0001488872803747654
1773798188564195300,13.0301953125,0.001004185527563095,-0.00017090537585318089,-0.0015610861591994762
1773798188584163000,13.0501630859375,0.001804109662771225,-0.0009343749843537807,-0.000343425665050745
1773798188604129000,13.07012890625,-0.0010138541692867875,-0.001438627950847149,0.0006206878460943699
1773798188624096000,13.090095947265626,0.0001591231266502291,-0.0014652879908680916,-0.0010230117477476597
1773798188644062000,13.11006201171875,0.00037411946686916053,-0.00011554267257452011,-0.0003776540979743004
1773798188664029000,13.13002880859375,-0.00033065106254070997,-0.00008290424011647701,-0.0002550128847360611
1773798188683995100,13.1499951171875,-0.0009200529311783612,-0.00035989098250865936,-0.0007851235568523407
1773798188703962000,13.169962158203125,0.0003858073614537716,0.0007276777178049088,0.0000824974849820137
1773798188723928000,13.189927978515625,-0.00100750254932791,-0.0002091249916702509,-0.0008719959296286106
1773798188743895000,13.20989501953125,-0.0008470223401673138,0.0002548911143094301,0.0012024464085698128
1773798188763861000,13.229861083984375,0.0003530216636136174,0.00008279690518975258,0.000037167221307754517
1773798188783828000,13.249827880859375,-0.00007880741031840444,-0.00017220503650605679,-0.0011432240717113018
1773798188804418000,13.27041796875,0.001107996329665184,0.00003156345337629318,0.00032382505014538765
1773798188824384000,13.290384033203125,-0.00021845365699846298,0.00035456824116408825,-0.00011365814134478569
1773798188844351000,13.31035107421875,0.000495455926284194,0.0004298575222492218,0.0006973203271627426
1773798188864317000,13.33031689453125,0.0009482724708504975,0.0003371781203895807,0.0005015293136239052
1773798188884284000,13.350283935546875,0.0001920885406434536,0.0008222437463700771,0.000496650580316782
1773798188904249900,13.370249755859374,-0.0007540362421423197,-0.0007361173629760742,0.00042232079431414604
1773798188924217000,13.390217041015624,0.0000875998375704512,-0.000173304695636034,0.0017143660224974155
1773798188944182800,13.410182861328124,0.002483663149178028,-0.00161076826043427,0.0005730362609028816
1773798188964150000,13.43014990234375,0.00016251945635303855,0.0008730348199605942,-0.000027445610612630844
1773798188984116000,13.450115966796876,-0.0014962719287723303,0.0015480471774935722,0.0004633823409676552
1773798189004083000,13.4700830078125,0.000019115701434202492,-0.0000019364524632692337,0.0005783797241747379
1773798189024049200,13.490049072265625,0.0004614210338331759,-0.0006937007419764996,-0.0002179066650569439
1773798189044014800,13.510014892578125,-0.00023854392929933965,0.0004374429117888212,-0.0003847610205411911
1773798189063982000,13.529982177734375,-0.0011670691892504692,-0.00045872200280427933,0.00016293348744511604
1773798189083947800,13.54994775390625,0.0013929370325058699,0.0004983141552656889,0.0005216286517679691
1773798189103915000,13.5699150390625,-0.0006038418505340815,0.0007740715518593788,-0.00013151438906788826
1773798189123881200,13.589881103515625,-0.0017509866738691926,0.0003074102569371462,-0.00142392935231328
1773798189143848000,13.609847900390625,0.00017887835565488786,0.0005448462907224894,-0.0004402194172143936
1773798189163814100,13.629814208984374,0.0012452179798856378,-0.0005900976248085499,-0.00023838458582758904
1773798189183780900,13.64978076171875,-0.00027282582595944405,0.00013488647527992725,-0.00042337412014603615
1773798189203747000,13.6697470703125,-0.00009518196748103946,0.0006782994605600834,0.001309968065470457
1773798189223713800,13.6897138671875,0.0014889681478962302,0.0014537584502249956,-0.0003044968470931053
1773798189243680000,13.709679931640625,0.0011224790941923857,0.00116568966768682,0.0022854898124933243
1773798189263646000,13.72964599609375,-0.0001366658543702215,-0.00018865824677050114,0.0002582087181508541
1773798189283613000,13.749613037109375,0.000060148384363856167,0.0003772194031625986,0.000681199599057436
1773798189303579100,13.7695791015625,0.0012512333923950791,0.00037931976839900017,-0.00009315507486462593
1773798189323545900,13.7895458984375,0.00011340681521687657,-0.0009013433009386063,0.0005821045488119125
1773798189343512000,13.809511962890625,0.0003306225989945233,-0.0010237402748316526,-0.0007905494421720505
1773798189363478800,13.829478759765625,0.00013867304369341582,0.0004992138128727674,-0.0013083107769489288
1773798189383445000,13.849445068359374,0.00017311132978647947,0.0003898346330970526,-0.00005403626710176468
1773798189403412200,13.869412109375,-0.0009203826193697751,0.0001147300936281681,0.000886059831827879
1773798189423378000,13.8893779296875,-0.0005976726533845067,-0.00025828531943261623,-0.0000353492796421051
1773798189443345200,13.90934521484375,0.0011698462767526507,-0.0007514457684010267,0.0007349676452577114
1773798189463310800,13.929310791015626,0.00027003674767911434,-0.0001884009689092636,0.0011257817968726158
1773798189483277000,13.949277099609375,0.0005769113195128739,-0.00002021901309490204,-0.00012282514944672585
1773798189503244000,13.969244140625,-0.00013093987945467234,0.0006097860168665648,0.0010307077318429947
1773798189523210000,13.9892099609375,-0.00017164969176519662,0.0004399949684739113,-0.0002190195955336094
1773798189543177000,14.009177001953125,-0.000385892839403823,-0.0011778143234550953,0.0008382620289921761
1773798189563143000,14.029142822265625,-0.0012346262810751796,-0.0009796647354960442,0.0006226534023880959
1773798189583109400,14.049109375,-0.0006471853121183813,0.0003103194758296013,0.0004077209159731865
1773798189603075600,14.06907568359375,0.0006012242520228028,-0.0001540475059300661,0.0007097423076629639
1773798189623041300,14.089041259765626,-0.000816420535556972,-0.0006169695407152176,-0.00027114059776067734
1773798189643008500,14.109008544921876,-0.00039136153645813465,-0.001026482554152608,0.00046599749475717545
1773798189662974700,14.128974609375,-0.0010693538933992386,-0.00016661826521158218,-0.0010098880156874657
1773798189682941400,14.14894140625,-0.0003483449399936944,0.00014607887715101242,0.0010829237289726734
1773798189702907600,14.16890771484375,0.00029031638405285776,0.000024613458663225174,0.00037336070090532303
1773798189722874400,14.188874267578125,0.0008220968884415925,-0.0008248572703450918,-0.0014223624020814896
1773798189742840600,14.208840576171875,0.0005924124852754176,0.0007590490859001875,-0.00047800689935684204
1773798189762806500,14.228806640625,-0.000709381652995944,-0.0008343369700014591,0.000768633559346199
1773798189782773500,14.2487734375,0.00047338451258838177,0.0001136015634983778,-0.00043735280632972717
1773798189802739500,14.268739501953124,-0.00045149639481678605,-0.000979552511125803,0.0014514154754579067
1773798189822706400,14.28870654296875,0.00022701488342136145,-0.0004486318212002516,0.0016830069944262505
1773798189842672600,14.308672607421874,0.0013115588808432221,-0.00011273263953626156,0.0005626780912280083
1773798189862639400,14.328639404296876,0.0009487283532507718,0.0013981270603835583,-0.0011338717304170132
1773798189882605600,14.34860546875,-0.0002290990814799443,-0.00047390488907694817,0.00031132763251662254
1773798189902571500,14.368571533203125,-0.0003313198103569448,-0.0002322518266737461,0.0004399046301841736
1773798189922538500,14.38853857421875,0.0005387388519011438,-0.00014268443919718266,0.0005294461734592915
1773798189942504400,14.40850439453125,-0.0004957264754921198,-0.00047399289906024933,0.0005578030832111835
1773798189962471400,14.428471435546875,0.0008527421741746366,0.0008599816355854273,-0.00014860881492495537
1773798189982437400,14.448437255859375,-0.00027350636082701385,0.0001562128309160471,0.00005692522972822189
1773798190002404400,14.468404296875,-0.0010541010415181518,-0.0011740019544959068,-0.00035186484456062317
1773798190022370600,14.48837060546875,0.00008119860285660252,0.0002573153469711542,0.00006229057908058167
1773798190042336500,14.50833642578125,0.0008910127216950059,0.00021154573187232018,-0.0004623732529580593
1773798190062303500,14.528303466796874,0.0001748811628203839,0.0000013802200555801392,0.0013783983886241913
1773798190082269400,14.54826953125,0.0008481441182084382,-0.0008759773336350918,-0.00008064322173595428
1773798190102236400,14.568236328125,0.000010335672413930297,0.00031528761610388756,0.0006372923962771893
1773798190122202400,14.588202392578125,0.0002658844750840217,0.0012951031094416976,0.0000380026176571846
1773798190142168600,14.60816845703125,-0.0009940636809915304,-0.00045238062739372253,0.0004703276790678501
1773798190162135600,14.628135498046875,0.0005353046581149101,-0.00010438007302582264,0.0003636647015810013
1773798190182101500,14.6481015625,0.0009699746733531356,0.00001451512798666954,-0.000696142204105854
1773798190202068500,14.668068359375,-0.00037929636891931295,0.0008913059718906879,0.001087212935090065
1773798190222034400,14.688034423828125,-0.0005138315027579665,-0.0006700479425489902,0.0007149283774197102
1773798190242000600,14.708000732421874,-0.00026140056434087455,0.00018677092157304287,-0.0002877800725400448
1773798190261967400,14.72796728515625,0.0005170530639588833,-0.0005733708385378122,-0.0016576391644775867
1773798190281933600,14.74793359375,-0.0004106946289539337,0.0002566124312579632,-0.0006640003994107246
1773798190301900300,14.767900390625,0.00022443992202170193,-0.0010441774502396584,-0.00035489723086357117
1773798190321866500,14.787866455078126,-0.0009948648512363434,0.0010510592255741358,-0.0024393629282712936
1773798190341832400,14.80783251953125,0.00009356062219012529,-0.00047156354412436485,-0.00002579484134912491
1773798190361799400,14.82779931640625,0.0010393646080046892,-0.0004020906053483486,-0.0002784500829875469
1773798190381765600,14.847765625,0.00012071122182533145,0.00009650923311710358,0.0005351980216801167
1773798190401731600,14.867731689453125,-0.0010459688492119312,-0.0009216917678713799,-0.0015666773542761803
1773798190421698600,14.887698486328125,0.0008841456728987396,-0.00026231748051941395,0.001272609457373619
1773798190441664500,14.90766455078125,-0.0015019167913123965,0.00045921606943011284,0.00007251044735312462
1773798190461631500,14.927631591796874,0.0008768326952122152,-0.0004328691866248846,-0.0006334735080599785
1773798190481597400,14.947597412109374,-0.0001873889414127916,0.0002824605908244848,-0.0003176531754434109
1773798190501563600,14.967563720703126,-0.0019896449521183968,0.000590556301176548,0.00012020813301205635
1773798190521530400,14.9875302734375,-0.0006442974554374814,0.0003692992031574249,0.0003357650712132454
1773798190541496600,15.00749658203125,-0.0011165959294885397,-0.00030887965112924576,-0.0007529142312705517
1773798190561463600,15.027463623046875,-0.0003021711600013077,-0.00013131438754498959,0.00036778301000595093
1773798190581429500,15.047429443359375,-0.00022537342738360167,-0.00016003637574613094,0.0012984508648514748
1773798190601395700,15.067395751953125,0.00015227982657961547,-0.00047660362906754017,0.00012007076293230057
1773798190621362400,15.087362548828125,-0.0003240332007408142,0.000367497093975544,0.0002417275682091713
1773798190641328600,15.10732861328125,-0.0002229227393399924,0.0001485117245465517,-0.0007064072415232658
1773798190661294300,15.12729443359375,0.0011548929614946246,0.00040388270281255245,-0.00047388067469000816
1773798190681261600,15.147261474609374,0.0009359576506540179,0.0005335244350135326,-0.0013418481685221195
1773798190701227500,15.1672275390625,0.0007939135539345443,0.000660760561004281,-0.001231190748512745
1773798190721194500,15.187194580078126,0.0015721345553174615,0.0010490322019904852,0.00014829495921730995
1773798190741160700,15.20716064453125,-0.0007442986825481057,0.00006965780630707741,0.0005964501760900021
1773798190761126400,15.22712646484375,-0.0005281779449433088,0.0007735923863947392,-0.0006910613738000393
1773798190781093600,15.24709375,0.0010430236579850316,0.00036914763040840626,0.000387383159250021
1773798190801059600,15.2670595703125,-0.000334734475472942,0.001940322807058692,-0.0007887966930866241
1773798190821025500,15.287025634765625,-0.0005440454697236419,0.00023725884966552258,-0.0016007209196686745
1773798190840992500,15.306992431640625,-0.001002767006866634,0.0017061169492080808,-0.0008709458634257317
1773798190860958500,15.32695849609375,0.00010183929407503456,-0.0011438049841672182,0.0000873529352247715
1773798190880924400,15.34692431640625,0.00009853742812993005,-0.00034323264844715595,-0.0011892886832356453
1773798190900891600,15.3668916015625,0.00004839379107579589,0.0005544186569750309,-0.00020785396918654442
1773798190920857300,15.386857421875,-0.0002340671344427392,0.0012379110557958484,0.0004676496610045433
1773798190940824600,15.406824462890626,0.0007562016835436225,0.0008975537493824959,-0.0004325350746512413
1773798190960790500,15.42679052734375,0.0007538387435488403,0.0009093102999031544,0.0004172106273472309
1773798190980756500,15.446756591796875,0.00015836070815566927,-0.0005661423783749342,-0.00010031741112470627
1773798191000723700,15.4667236328125,-0.0003684425901155919,-0.0006770170293748379,-0.000003755558282136917
1773798191020689400,15.486689453125,-0.0007909943233244121,0.0005209327209740877,-0.00036038924008607864
1773798191040655600,15.506655517578125,0.0013864395441487432,0.00017347419634461403,0.00029138103127479553
1773798191060622300,15.526622314453125,0.00005070184852229431,0.000216285465285182,-0.0006148652173578739
1773798191080588500,15.546588623046874,0.0015423813601955771,0.0000703549012541771,0.0006233267486095428
1773798191100554500,15.566554443359376,0.00034798181150108576,0.0011256965808570385,0.001274826005101204
1773798191120521500,15.586521484375,-0.001445688889361918,0.0009002999868243933,-0.00029421737417578697
1773798191140487400,15.6064873046875,-0.0006509869708679616,-0.0001565741840749979,-0.000801426824182272
1773798191160453600,15.62645361328125,0.0009650751017034054,-0.0006962791085243225,0.0010583838447928429
1773798191180420600,15.646420654296875,-0.00012444847379811108,-0.0005258966702967882,-0.000017486046999692917
1773798191200386600,15.666386474609375,-0.0001699187996564433,0.0007980277296155691,0.0006904443725943565
1773798191220352500,15.6863525390625,0.000783877563662827,0.000032689422369003296,0.0004394408315420151
1773798191240319500,15.706319580078125,-0.0004574308404698968,0.0005944143049418926,-0.0006616562604904175
1773798191260285700,15.72628564453125,-0.000484099960885942,0.0000336675439029932,0.0006374823860824108
1773798191280251400,15.74625146484375,0.0007975680055096745,-0.00025208317674696445,-0.00007988186553120613
1773798191300218600,15.766218505859374,0.0015545899514108896,-0.00044945115223526955,0.0003107055090367794
1773798191320184600,15.7861845703125,0.0009814671939238906,0.000596609665080905,-0.0003231917507946491
1773798191340150500,15.806150634765626,-0.00010817232396220788,-0.00021601282060146332,-0.001560221891850233
1773798191360117500,15.826117431640625,0.0006117640295997262,-0.0003568504471331835,0.0005022198893129826
1773798191380083500,15.84608349609375,-0.0002496391534805298,-0.00005192728713154793,0.0003914646804332733
1773798191400049400,15.86604931640625,-0.00047035119496285915,0.0001115771010518074,0.0000957106240093708
1773798191420016600,15.8860166015625,-0.00008136413816828281,0.00013746274635195732,-0.0016090376302599907
1773798191439982300,15.905982421875,-0.0008155069663189352,0.0000018691644072532654,-0.000025068409740924835
1773798191459948500,15.925948486328124,0.00035067685530520976,0.0009481383021920919,-0.001029368955641985
1773798191479915500,15.94591552734375,0.0012488310458138585,0.00044329348020255566,0.00039302045479416847
1773798191499881500,15.965881591796874,-0.0006129067041911185,0.0008970107883214951,-0.0010151476599276066
1773798191519847700,15.98584765625,-0.0005192867247387767,-0.0009383331052958965,0.0009177490137517452
1773798191539814400,16.005814453125,-0.0010931033175438643,-0.0005312422290444374,-0.001310747116804123
1773798191559780600,16.025780517578124,-0.0005736275343224406,0.00025095813907682896,-0.00037568947300314903
1773798191579747000,16.0457470703125,-0.00011715201253537089,-0.00028354558162391186,-0.000027521047741174698
1773798191599713800,16.0657138671875,-0.00012343231355771422,-0.00023129582405090332,-0.0006308672018349171
1773798191619680000,16.085679931640627,-0.0007497090846300125,-0.0004001650959253311,0.00008047744631767273
1773798191639645700,16.105645751953126,0.000007237601494125556,-0.0012507075443863869,0.0006368593312799931
1773798191659613000,16.125613037109375,-0.00008857527427608147,-0.00012500234879553318,0.0009821453131735325
1773798191679579100,16.1455791015625,-0.0009344251011498272,0.00002959812991321087,-0.0011536478996276855
1773798191699544800,16.165544921875,0.001759077305905521,0.0007124678231775761,-0.0009560510516166687
1773798191719510800,16.1855107421875,0.0005339449271559715,0.00005050795152783394,-0.00017357571050524712
1773798191739477800,16.205477783203126,0.000137432012706995,-0.000993889756500721,-0.0003468533977866173
1773798191759444000,16.22544384765625,-0.0007010182598605752,-0.0002558769192546606,0.0003978339955210686
1773798191779410000,16.245409912109373,-0.00017926425789482892,-0.0002041200641542673,-0.00014578783884644508
1773798191799377000,16.265376953125,-0.0014330095145851374,-0.0006793297361582518,0.0007169367745518684
1773798191819342800,16.2853427734375,-0.0006392342620529234,-0.00007531209848821163,0.0006488049402832985
1773798191839309000,16.30530908203125,-0.0015024421736598015,-0.00014649261720478535,-0.00004439428448677063
1773798191859275800,16.32527587890625,0.0012754403287544847,-0.00017845677211880684,-0.0008458546362817287
1773798191879242000,16.345241943359376,-0.0017059530364349484,0.0004080710932612419,0.00027249613776803017
1773798191899208000,16.3652080078125,-0.00047480984358116984,-0.00011951848864555359,-0.0008649267256259918
1773798191919174000,16.385173828125,-0.0007581556565128267,-0.000787409720942378,0.0004071807488799095
1773798191939140900,16.405140869140624,-0.0005603245226666331,0.0001316191628575325,-0.000012491829693317413
1773798191959106800,16.42510693359375,0.0015172816347330809,-0.0002570031210780144,0.000028230249881744385
1773798191979072800,16.44507275390625,0.0012555394787341356,0.0009178989566862583,-0.0002569509670138359
1773798191999040000,16.4650400390625,0.0006359777180477977,-0.000790496589615941,-0.00014568492770195007
1773798192019006000,16.485005859375,0.0007351099629886448,-0.0009789553005248308,-0.0008800323121249676
1773798192038972000,16.504971923828126,0.00038664788007736206,-0.0002682360354810953,-0.001588253304362297
1773798192058939000,16.52493896484375,-0.0008538063266314566,-0.00028510368429124355,0.00030735600739717484
1773798192078904800,16.54490478515625,-0.0015237333718687296,0.00028347293846309185,-0.0016244519501924515
1773798192098871000,16.56487109375,-0.0007551084272563457,-0.00039501581341028214,-0.0014626351185142994
1773798192118837000,16.5848369140625,0.00031963587389327586,0.000683140940964222,-0.0005763680674135685
1773798192138804000,16.604803955078125,0.0006051793461665511,0.00009963195770978928,0.0005966657772660255
1773798192158770000,16.62477001953125,-0.0005749854608438909,-0.0009875483810901642,0.0016763233579695225
1773798192178735900,16.64473583984375,0.0003525023930706084,-0.0008075020741671324,0.00012865522876381874
1773798192198702800,16.664702880859377,0.0004693386727012694,0.00003298511728644371,-0.000965561717748642
1773798192218669000,16.6846689453125,-0.0003378513501957059,-0.00020069628953933716,0.0012163626961410046
1773798192238634800,16.704634765625,-0.00003956440195906907,0.00020908215083181858,-0.0013544629327952862
1773798192258601000,16.72460107421875,0.0001240283454535529,-0.0002571120858192444,-0.0002254769206047058
1773798192278567700,16.744567626953124,0.00023041432723402977,0.0007151083555072546,-0.0018957913853228092
1773798192298534000,16.764533935546876,-0.00015761953545734286,-0.0005799562204629183,-0.00002144230529665947
1773798192318499800,16.784499755859375,-0.0013445799704641104,-0.0003818992991000414,-0.00014562392607331276
1773798192338466800,16.804466796875,-0.0012626389507204294,-0.001270056702196598,0.0011922987177968025
1773798192358433000,16.82443310546875,-0.000229870158364065,0.0008503887802362442,0.0011316421441733837
1773798192378399000,16.84439892578125,0.0004282797744963318,0.0006179511547088623,0.001984686590731144
1773798192398365000,16.864364990234375,0.00024156139988917857,0.0002016399521380663,0.0005149794742465019
1773798192418332000,16.884331787109375,0.001897194073535502,0.000355937285348773,-0.0002314154990017414
1773798192438298000,16.904298095703126,-0.0015656343894079328,-0.00027307402342557907,-0.0001543094404041767
1773798192458263800,16.924263916015626,0.0009121280163526535,0.0002760991919785738,-0.0003534127026796341
1773798192478231000,16.94423095703125,-0.00046757300151512027,0.0002326148096472025,-0.0009557739831507206
1773798192498196700,16.96419677734375,-0.0007688034675084054,0.0009901230223476887,-0.000596372876316309
1773798192518163000,16.984162841796874,-0.0003324699937365949,0.001244363491423428,0.0006137555465102196
1773798192538129000,17.00412890625,-0.0011960798874497414,-0.0000759810209274292,0.000012375414371490479
1773798192558096000,17.024095947265625,0.00008941771375248209,-0.0004530067089945078,0.000623426865786314
1773798192578061800,17.044061767578125,0.001033446635119617,0.0009404276497662067,0.002063056919723749
1773798192598027800,17.06402783203125,0.00022516731405630708,0.0011241285828873515,0.00018338346853852272
1773798192617993700,17.08399365234375,-0.0001983160909730941,0.0006463162135332823,0.00000770576298236847
1773798192637960700,17.103960693359376,0.0002718427567742765,-0.00015780911780893803,0.00040315138176083565
1773798192657927000,17.123927001953124,0.0010289952624589205,-0.0032033524475991726,-0.00009611109271645546
1773798192677892600,17.143892578125,0.0007606492144986987,0.0010003328789025545,0.0010772403329610825
1773798192697858800,17.16385888671875,0.0005258679739199579,0.001232661190442741,0.00016234582290053368
1773798192717825800,17.18382568359375,-0.0009158910834230483,-0.0012801201082766056,-0.0008588084019720554
1773798192737791700,17.203791748046875,0.0012613937724381685,-0.0017025894485414028,0.0010525276884436607
1773798192757757700,17.2237578125,0.0005584327736869454,0.00044017634354531765,0.0008205641061067581
1773798192777724000,17.243723876953126,-0.0003687656717374921,0.00043194089084863663,0.0014362381771206856
1773798192797691000,17.26369091796875,-0.001459200750105083,0.0008463405538350344,0.0003442964516580105
1773798192817656800,17.28365673828125,0.000296827289275825,-0.0012635188177227974,0.0005324068479239941
1773798192837622800,17.303622802734374,0.00039825146086513996,-0.00011449470184743404,0.0006331196054816246
1773798192857589800,17.32358984375,-0.0005506687448360026,-0.0010632274206727743,-0.0012387135066092014
1773798192877556000,17.343555908203125,0.00046437219134531915,0.0005974601954221725,0.00022744247689843178
1773798192897521700,17.363521728515625,0.0006799981347285211,0.00007567438296973705,-0.0011243494227528572
1773798192917487900,17.38348779296875,-0.0008167035994119942,-0.0008273690473288298,0.0017793220467865467
1773798192937454600,17.40345458984375,-0.0003458768187556416,-0.0009399682749062777,0.0006723315455019474
1773798192957420800,17.4234208984375,0.00019650002650450915,0.00004485086537897587,0.0005996348336338997
1773798192977386800,17.44338671875,0.0014402790693566203,-0.0007999192457646132,-0.000696609728038311
1773798192997353000,17.46335302734375,-0.0005921322153881192,0.000429629348218441,0.00004087761044502258
1773798193017319700,17.483319580078124,0.0007769189542159438,-0.000436458270996809,-0.0005039134994149208
1773798193037286000,17.503285888671876,0.00032013561576604843,-0.0014935072977095842,0.0022149165160954
1773798193057251600,17.52325146484375,-0.00042614186531864107,-0.0006037175189703703,0.0002801273949444294
1773798193077217800,17.5432177734375,0.00009732919716043398,-0.00003078463487327099,-0.0005168267525732517
1773798193097185000,17.56318505859375,-0.00008864083793014288,-0.0009248447604477406,0.00036105886101722717
1773798193117150700,17.583150634765627,0.00036468240432441235,0.00033144489862024784,-0.00035905465483665466
1773798193137116700,17.60311669921875,0.000287184288026765,-0.0010397855658084154,-0.0009160558693110943
1773798193157083000,17.623082763671874,-0.00042614719131961465,0.0006017282139509916,-0.0009880219586193562
1773798193177049900,17.6430498046875,-0.0007441790075972676,-0.00039818184450268745,-0.0009608324617147446
1773798193197015800,17.663015869140626,-0.0004888094263151288,0.0009772698394954205,-0.00013688160106539726
1773798193216981800,17.682981689453126,0.00009581048652762547,-0.0009266315028071404,0.0006317147053778172
1773798193236947700,17.70294775390625,0.0007688437472097576,-0.0010587784927338362,-0.00045829545706510544
1773798193256915000,17.7229150390625,-0.0010594537016004324,0.00008264416828751564,-0.0004908270202577114
1773798193276880600,17.742880615234377,0.0010233303764835,0.000016726553440093994,0.000906703993678093
1773798193296846800,17.762846923828125,0.00016871263505890965,-0.00014658737927675247,-0.0018601622432470322
1773798193316812800,17.782812744140625,-0.0018363271374255419,-0.000527836149558425,0.0011749840341508389
1773798193336779800,17.80277978515625,-0.0009851546492427588,-0.0008601592853665352,-0.0014896448701620102
1773798193356745700,17.822745849609376,0.0002644707274157554,0.00006062421016395092,-0.00043630553409457207
1773798193376712000,17.8427119140625,0.0010910927085205913,0.00007580290548503399,0.0005106786265969276
1773798193396677600,17.862677734375,-0.0006463286699727178,-0.0003312251064926386,0.0008647246286273003
1773798193416643800,17.882643798828123,0.0007672674837522209,0.0020895064808428288,-0.00005518551915884018
1773798193436610800,17.90261083984375,0.00043484565685503185,0.00022983131930232048,0.0001636883243918419
1773798193456576800,17.92257666015625,0.0006635652389377356,-0.0007841433398425579,0.0002743499353528023
1773798193476542700,17.942542724609375,-0.0008510838379152119,-0.001250051660463214,-0.0002376064658164978
1773798193496509000,17.962509033203126,0.00032515666680410504,-0.00029221968725323677,-0.0011661713942885399
1773798193516475600,17.9824755859375,0.00017045233107637614,0.00036522001028060913,-0.0004915939643979073
1773798193536441900,18.00244189453125,-0.0005255696596577764,-0.0010557377245277166,-0.00037812767550349236
1773798193556407800,18.02240771484375,-0.0005759946070611477,-0.0012579949107021093,-0.0005241199396550655
1773798193576373800,18.042373779296874,0.00006130645488156006,-0.0004488562699407339,-0.00006975186988711357
1773798193596341000,18.062341064453125,0.0001974450278794393,0.00009801425039768219,0.00022584525868296623
1773798193616306700,18.082306640625,0.0008881929097697139,0.00018438510596752167,-0.00018584169447422028
1773798193636273000,18.10227294921875,0.001551401219330728,0.0005765901878476143,0.0003710892051458359
1773798193656238800,18.12223876953125,0.0015906724147498608,-0.00005886307917535305,0.0018899221904575825
1773798193676205800,18.142205810546876,0.0003820250276476145,-0.00010105781257152557,-0.0002044718712568283
1773798193696171800,18.162171875,-0.00046306534204632044,0.00024192058481276035,0.00022357050329446793
1773798193716138000,18.182137939453124,-0.0002972273505292833,0.0004903487861156464,-0.00013744086027145386
1773798193736103700,18.202103759765624,-0.0014675287529826164,0.00026440410874783993,0.002474874025210738
1773798193756070000,18.22206982421875,-0.00012523691111709923,-0.0006778563838452101,-0.0005210633389651775
1773798193776036900,18.242036865234375,-0.00004071822331752628,0.0008726960513740778,0.0004703276790678501
1773798193796002800,18.2620029296875,0.0010990346781909466,0.0008058121893554926,0.0002958737313747406
1773798193815968800,18.28196875,0.0013263847213238478,0.0007257345132529736,0.00047691352665424347
1773798193835935000,18.30193505859375,0.00005096261884318665,0.000933685339987278,0.0011284137144684792
1773798193855902000,18.32190185546875,-0.0002768738195300102,0.0002598834689706564,-0.0011941641569137573
1773798193875868000,18.341867919921874,0.00037183440872468054,-0.0009013600647449493,0.00010963669046759605
1773798193895833900,18.361833740234374,0.000038582693377975374,0.0013987722340971231,0.000021132174879312515
1773798193915799800,18.3817998046875,0.0009828555630519986,0.0004846821539103985,0.00015972182154655457
1773798193935765800,18.401765869140625,-0.000418259238358587,0.0005209608934819698,0.0001877867616713047
1773798193955732700,18.421732666015625,-0.0013666904997080564,0.0004654177464544773,0.0000087004154920578
1773798193975699000,18.441698974609373,0.0012102873297408223,-0.0005666613578796387,-0.0007208283059298992
1773798193995665000,18.461664794921877,0.00046856451081112027,-0.00007830723188817501,-0.0009186766110360622
1773798194015630800,18.481630859375,-0.00042785052210092545,-0.0011040947865694761,-0.0005401219241321087
1773798194035597800,18.501597900390625,-0.0005230091628618538,-0.000917613273486495,0.0011104606091976166
1773798194055564000,18.52156396484375,-0.000032545030990149826,0.0005388334393501282,-0.0005156775005161762
1773798194075529700,18.54152978515625,-0.00022959447233006358,0.0013797885039821267,0.00006635161116719246
1773798194095496000,18.561495849609376,0.0006204159581102431,0.0009894114919006824,0.00046186894178390503
1773798194115462000,18.5814619140625,-0.000384796061553061,-0.0001648683100938797,0.0010537207126617432
1773798194135428900,18.601428955078124,0.0006066026980988681,0.00008674920536577702,-0.00003778794780373573
1773798194155394800,18.621394775390623,0.001265928614884615,-0.0007069718558341265,0.0006346208974719048
1773798194175361000,18.641361083984375,0.00013181583199184388,0.000014021527022123337,0.0007031834684312344
1773798194195326700,18.66132666015625,0.00019372519454918802,-0.000794961815699935,0.00037580356001853943
1773798194215293000,18.68129296875,-0.0017734046559780836,0.00034864270128309727,-0.0009734262712299824
1773798194235259600,18.701259765625,-0.0000725588106433861,0.000057064928114414215,0.0006131576374173164
1773798194255225900,18.721225830078126,0.00020911300089210272,-0.0005468409508466721,0.00034429412335157394
1773798194275191800,18.74119189453125,0.00001792964576452505,-0.0005857930518686771,0.0005999295972287655
1773798194295158000,18.761157958984374,0.00044499404611997306,-0.00026550772599875927,0.001009032130241394
1773798194315123700,18.781123779296873,-0.0005277607124298811,0.0012308360310271382,0.0005959081463515759
1773798194335091000,18.801091064453125,0.0019226039294153452,0.0014054439961910248,-0.0005883853882551193
1773798194355056600,18.821056640625,0.0004432384157553315,-0.0003618283662945032,-0.00029671937227249146
1773798194375022800,18.84102294921875,-0.0005779931670986116,-0.00039244932122528553,0.00006835814565420151
1773798194394988800,18.86098876953125,0.0011534070363268256,0.0010582511313259602,0.00037988927215337753
1773798194414955000,18.880955078125,-0.0005156658007763326,-0.0002941323909908533,-0.00035218801349401474
1773798194434922000,18.900921875,-0.0004086208064109087,0.0006893724203109741,-0.0002413364127278328
1773798194454888000,18.920887939453124,-0.0000023036645870888606,-0.0005750085692852736,-0.0009667370468378067
1773798194474853600,18.940853515625,-0.000510694517288357,-0.002502119168639183,0.000494775827974081
1773798194494819800,18.96081982421875,0.0006544292555190623,-0.00021100929006934166,-0.00007869396358728409
1773798194514785800,18.980785888671875,-0.000556904764380306,-0.00044568884186446667,0.0007318598218262196
1773798194534752800,19.000752685546875,-0.00042614032281562686,-0.00018892413936555386,0.001392456702888012
1773798194554719000,19.020718994140626,-0.000707437633536756,0.0023477517534047365,-0.0007021715864539146
1773798194574685000,19.040684814453126,0.0008164893952198327,-0.0002018928062170744,0.0006830738857388496
1773798194594650400,19.060650390625,-0.000300301646348089,0.0013933621812611818,0.00010886602103710175
1773798194614616300,19.0806162109375,-0.0012885567266494036,-0.0016136202029883862,-0.001391703262925148
1773798194634583600,19.10058349609375,0.00047480390639975667,-0.00011019548401236534,0.00013495748862624168
1773798194654549200,19.12054931640625,-0.00040115020237863064,-0.0003051485400646925,-0.0006679315119981766
1773798194674515200,19.14051513671875,0.0003430469078011811,0.001144244335591793,-0.001313976477831602
1773798194694481400,19.1604814453125,0.00026888528373092413,-0.0009097689762711525,-0.0005230591632425785
1773798194714447400,19.180447265625,0.0006097133154980838,-0.00026702089235186577,-0.00008894549682736397
1773798194734414300,19.200414306640624,-0.0005626700585708022,0.001141315558925271,0.0006772149354219437
1773798194754380500,19.220380615234376,0.0013533977326005697,0.0023039961233735085,0.0007599066011607647
1773798194774346200,19.24034619140625,0.0005244729109108448,0.00018699746578931808,-0.0009125461801886559
1773798194794312400,19.2603125,0.00021071302762720734,-0.0015532628167420626,0.0012914943508803844
1773798194814278400,19.2802783203125,0.0004456265887711197,-0.0007599629461765289,-0.0015713833272457123
1773798194834245400,19.300245361328123,0.000665485393255949,0.0005339041817933321,-0.0004160236567258835
1773798194854211300,19.32021142578125,0.0006434038514271379,0.0008007779251784086,-0.002490697894245386
1773798194874177500,19.340177490234375,0.0009543070918880403,0.0009436751715838909,0.0012035295367240906
1773798194894143200,19.360143310546874,-0.0007191364420577884,-0.0006879616994410753,0.0007704566232860088
1773798194914109400,19.380109375,0.0003072984400205314,0.00017676269635558128,0.00008407235145568848
1773798194934075400,19.400075439453126,0.00009949375817086548,0.0007049862761050463,-0.00046279607340693474
1773798194954042400,19.42004248046875,0.0002534659579396248,-0.0005523811560124159,-0.001040138304233551
1773798194974008300,19.44000830078125,-0.00044475868344306946,-0.0013590569142252207,-0.0010548066347837448
1773798194993974500,19.459974609375,-0.0003382372669875622,-0.00019319518469274044,0.0020763264037668705
1773798195013940200,19.479940185546877,-0.0007628469611518085,0.00046036625280976295,0.001035439781844616
1773798195033906400,19.499906494140625,-0.0005198565195314586,-0.0004264805465936661,0.00010838918387889862
1773798195053873400,19.519873291015625,-0.000032009520509745926,-0.00013214373029768467,-0.001385511364787817
1773798195073839400,19.53983935546875,-0.0002993826346937567,0.000008962349966168404,0.00027729570865631104
1773798195093805300,19.559805419921876,0.000016127429262269288,-0.0004561576060950756,0.0006787492893636227
1773798195113771500,19.579771484375,-0.00031911145197227597,0.0003758284728974104,0.00030471011996269226
1773798195133737200,19.5997373046875,-0.0012628072872757912,0.0010068046394735575,0.0005263667553663254
1773798195153703400,19.619703369140623,-0.0005277632153593004,0.00016408623196184635,-0.0017406931146979332
1773798195173670400,19.63967041015625,0.000004935420292895287,-0.00009000767022371292,-0.00017675291746854782
1773798195193636400,19.65963623046875,0.0012080027954652905,0.00003235437907278538,-0.0010915263555943966
1773798195213602300,19.679602294921875,-0.00036056802491657436,-0.0005770046263933182,0.0011033657938241959
1773798195233568500,19.699568603515626,-0.0001272089284611866,0.00044992798939347267,0.0000275392085313797
1773798195253534200,19.7195341796875,-0.0009157226886600256,0.0005471350159496069,0.0008211745880544186
1773798195273500400,19.73950048828125,-0.00007624545833095908,0.0010407264344394207,-0.0007154205814003944
1773798195293467400,19.75946728515625,-0.0013019322650507092,0.00043733231723308563,0.0016956180334091187
1773798195313433300,19.779433349609373,0.0013186130672693253,0.0003814231604337692,-0.0004914253950119019
1773798195333399300,19.7993994140625,-0.00015008699847385287,0.0002048297319561243,-0.00041120871901512146
1773798195353365500,19.819365478515625,-3.08213202515617e-7,-0.000508506316691637,0.0002735517919063568
1773798195373331200,19.839331298828125,-0.0011009920854121447,-0.00007657031528651714,-0.00031989719718694687
1773798195393297400,19.85929736328125,-0.00030323167447932065,0.0001323192846029997,0.0000010044313967227936
1773798195413264400,19.879264404296876,0.000166564408573322,0.00023009511642158031,-0.00006924150511622429
1773798195433230300,19.899230224609376,-0.0004248602781444788,-0.0011448247823864222,0.00002666376531124115
1773798195453196300,19.9191962890625,-0.0007143781986087561,-0.00025780568830668926,0.0002442379482090473
1773798195473162500,19.93916259765625,-0.0008515181252732873,0.0007241666316986084,0.0005845329724252224
1773798195493128200,19.959128173828127,-0.0015235189348459244,0.00018642074428498745,0.0013461494818329811
1773798195513094400,19.979094482421875,0.00008845449337968603,0.0010217062663286924,-0.0021241018548607826
1773798195533061400,19.999061279296875,-0.0006167428800836205,-0.0007119509391486645,0.0010495111346244812
1773798195553027300,20.01902734375,-0.0005954717635177076,0.0007645625155419111,-2.561137080192566e-7
1773798195572993300,20.0389931640625,-0.00045804501860402524,-0.000824890099465847,0.0000814264640212059
1773798195592960000,20.0589599609375,-0.00022871096734888852,-0.000874366145581007,-0.0012883045710623264
1773798195612925700,20.07892578125,0.0006321471882984042,-0.00004239659756422043,-0.0006867893971502781
1773798195632892000,20.098891845703125,0.0012132878182455897,0.000063376035541296,-0.0009195557795464993
1773798195652859000,20.11885888671875,0.0009957427391782403,-0.00033907615579664707,-0.0008497871458530426
1773798195672824800,20.138824951171873,0.0004506812838371843,0.0007044817321002483,-0.001193084754049778
1773798195692790800,20.158790771484377,0.0008450488094240427,0.0005746046081185341,0.0008188360370695591
1773798195712757000,20.178757080078125,-0.0005570653011091053,-0.0005080366972833872,0.0005080732516944408
1773798195732722700,20.19872265625,-0.0007179594831541181,0.00019914726726710796,-0.0011295820586383343
1773798195752689000,20.21868896484375,-0.0009219616185873747,-0.0015160657931119204,-0.000321763101965189
1773798195772654800,20.23865478515625,0.0008718793396838009,0.0007952123414725065,-0.00008184090256690979
1773798195792621800,20.258621826171876,0.000733097258489579,0.00033257342875003815,0.0008182115852832794
1773798195812588000,20.278588134765624,0.0014573779189959168,-0.0013900960329920053,0.0005815536715090275
1773798195832554000,20.298553955078123,0.0001946028060046956,-0.0010130489245057106,0.0007945126853883266
1773798195852519700,20.318519775390627,-0.0005915490910410881,-0.0004199750255793333,0.0011159386485815048
1773798195872486000,20.33848583984375,-0.0005083353025838733,-0.0005322403740137815,-0.0002302173525094986
1773798195892451800,20.358451904296874,-0.00024449225747957826,-0.00014586560428142548,0.0007437970489263535
1773798195912417800,20.378417724609374,-0.0005448925076052547,0.0005605879705399275,0.00016786064952611923
1773798195932385000,20.398385009765626,-0.0020506030414253473,-0.0005722204223275185,0.00008972873911261559
1773798195952351000,20.41835107421875,0.0013039209879934788,0.00045206607319414616,-0.0013367687352001667
1773798195972317000,20.43831689453125,-0.0004353526164777577,0.0012560532195493579,0.00010689022019505501
1773798195992283000,20.458282958984373,0.00025988975539803505,-0.0003689771983772516,-0.00002622930333018303
1773798196012248800,20.478248779296877,0.0004926072433590889,0.0014227344654500484,-0.0011891419999301434
1773798196032214800,20.49821484375,-0.0005014381604269147,-0.000576317310333252,-0.0009993375279009342
1773798196052180700,20.5181806640625,-0.0008240718161687255,0.00013689743354916573,0.00004615914076566696
1773798196072148000,20.53814794921875,0.000025319750420749187,-0.0002365496475249529,-0.0003825421445071697
1773798196092114000,20.558114013671876,0.00012345678987912834,0.000030423281714320183,0.001131055410951376
1773798196112080000,20.578079833984376,0.0001434520963812247,0.001293984823860228,-0.0010300246067345142
1773798196132045800,20.5980458984375,-0.0022628954611718655,0.00006468105129897594,-0.0009078830480575562
1773798196152011800,20.61801171875,0.0010137580102309585,0.0007666591554880142,0.00009841844439506531
1773798196171977700,20.637977783203127,0.00022698812244925648,-0.0004643721040338278,0.0006416905671358109
1773798196191944000,20.65794384765625,-0.0004208589671179652,-0.0007079727947711945,-0.00018666032701730728
1773798196211911000,20.677910888671875,0.00021115224808454514,0.0010441031772643328,-0.0002832673490047455
1773798196231876900,20.697876953125,-0.00038419326301664114,0.0006975305732339621,-0.0006642942316830158
1773798196251843000,20.717843017578126,0.00032204281887970865,-0.0005233297124505043,0.0006321808323264122
1773798196271808800,20.737808837890626,0.000008830582373775542,0.0001684327144175768,-0.0004991982132196426
1773798196291774700,20.757774658203125,0.0018970853416249156,-0.0003995373845100403,-0.0010935310274362564
1773798196311741000,20.777740966796873,0.00045323141966946423,0.0008802991360425949,-0.0002535083331167698
1773798196331707000,20.797706787109377,-0.0007390413666144013,0.0007380668539553881,0.0005644438788294792
1773798196351673900,20.817673828125,-0.0016471005510538816,0.001391317811794579,0.00028585968539118767
1773798196371640000,20.83764013671875,0.00028579155332408845,-0.0005189122166484594,0.000928075984120369
1773798196391605800,20.857605712890624,0.0013072387082502246,-0.0008548947516828775,-0.00038389163091778755
1773798196411572000,20.877572021484376,-0.000833192840218544,-0.0018305827397853136,-0.0011448049917817116
1773798196431538000,20.897537841796876,0.0017121698474511504,0.000307619571685791,0.0015305322594940662
1773798196451503900,20.91750390625,0.0004274361999705434,-0.0002093571238219738,0.00005279341712594032
1773798196471469800,20.9374697265625,0.0012443384621292353,0.0012877507833763957,0.0004640817642211914
1773798196491435800,20.957435791015627,0.0006067748181521893,-0.0003262944519519806,-0.00012723775580525398
1773798196511402800,20.97740283203125,0.0007579220691695809,-0.0006769876927137375,0.0006223651580512524
1773798196531369000,20.997368896484375,-0.0012884410098195076,-0.00037573534063994884,-0.0011662906035780907
1773798196551335000,21.0173349609375,0.00009834049706114456,0.000596949364989996,0.000026219524443149567
1773798196571300900,21.03730078125,-0.0014705414650961757,-0.0008566654287278652,0.0018566329963505268
1773798196591266800,21.057266845703126,-0.0003033921238966286,0.00018610991537570953,-0.00007557496428489685
1773798196611232800,21.077232666015625,-0.0007797142607159913,0.00010573072358965874,0.001448256429284811
1773798196631199000,21.097198974609373,0.0007389304228127003,-0.0007925857789814472,0.001260566059499979
1773798196651164700,21.11716455078125,-0.0006917778518982232,-0.0004531596787273884,0.0012883287854492664
1773798196671131000,21.137130859375,-0.0001184813299914822,-0.0004168043378740549,-0.0006446004845201969
1773798196691097900,21.157097900390625,0.00043478532461449504,-0.0003217342309653759,-0.0003228774294257164
1773798196711063800,21.177063720703124,0.00006477142596850172,0.0006538385059684515,0.00000555114820599556
1773798196731029800,21.19702978515625,-0.00035288528306409717,-0.000740257790312171,-0.00177324702963233
1773798196750996000,21.216995849609376,0.0002167737839045003,0.0008282836060971022,0.0010547065176069736
1773798196770961700,21.236961669921875,0.0008769258274696767,0.0004453847650438547,0.0008149836212396622
1773798196790928000,21.256927978515623,0.00005210530071053654,0.00020560948178172112,0.0008370145224034786
1773798196810893800,21.276893798828127,0.001425324589945376,0.0006017491687089205,0.0005127140320837498
1773798196830859800,21.29685986328125,-0.0006702014361508191,-0.000768245430663228,-0.00020080292597413063
1773798196850827000,21.316826904296875,-0.00006724342529196292,0.0008035425562411547,-0.0006653675809502602
1773798196870793000,21.33679296875,0.0008186275372281671,-0.00005779392085969448,-0.00025183986872434616
1773798196890758700,21.356758544921874,-0.00023559668625239283,-0.000939293997362256,-0.00043763965368270874
1773798196910724900,21.376724853515626,-0.0014134576776996255,-0.00038312352262437344,-0.0013814494013786316
1773798196930690800,21.39669091796875,-0.0003813901566900313,0.000368284760043025,-0.0001716315746307373
1773798196950656800,21.41665673828125,0.00042658703750930727,0.0008353658486157656,0.0002587372437119484
1773798196970622700,21.436622802734377,0.0007451181882061064,0.0006954260170459747,0.00004881806671619415
1773798196990589000,21.4565888671875,-0.001036176341585815,0.0017940878169611096,-0.001000408548861742
1773798197010555000,21.476554931640624,0.00017363333608955145,-0.0005594510585069656,0.0006352807395160198
1773798197030520800,21.496520751953124,-0.0005297069437801838,0.0015643141232430935,-0.00022674258798360825
1773798197050487800,21.51648779296875,0.0005989223136566579,0.00008482253178954124,-0.000681750476360321
1773798197070453800,21.536453857421876,0.0011575007811188698,-0.00015105470083653927,0.0003711618483066559
1773798197090419700,21.556419677734375,0.0006856418331153691,0.00013663177378475666,0.00013301707804203033
1773798197110386000,21.576385986328123,0.00016905079246498644,0.0006373166106641293,-0.0005017020739614964
1773798197130351900,21.596351806640627,-0.00024345189740415663,0.0011998548870906234,-0.00047921808436512947
1773798197150317800,21.61631787109375,-0.00009233327000401914,0.0007786566857248545,-0.00003863964229822159
1773798197170283800,21.63628369140625,-0.0010435747681185603,-0.0006568417884409428,0.00041568465530872345
1773798197190250000,21.65625,-0.0010387514485046268,-0.00006236997433006763,0.000485910102725029
1773798197210215700,21.676215576171874,-0.0005176265258342028,0.000644545303657651,0.0010367613285779953
1773798197230182000,21.696181884765625,-0.0003725572023540735,0.0010015626903623343,0.0002867160364985466
1773798197250148900,21.71614892578125,0.0005081844865344465,-0.00013120588846504688,0.00009245378896594048
1773798197270114800,21.73611474609375,0.0003629353013820946,-0.0010497928597033024,-0.0007516941986978054
1773798197290080800,21.756080810546877,0.00017413252498954535,-0.0007858739700168371,0.000803560484200716
1773798197310047000,21.776046875,-0.0004345430643297732,-0.0009751231409609318,-0.0013504265807569027
1773798197330012700,21.7960126953125,0.0009470692602917552,-0.00026233261451125145,0.0002823346294462681
1773798197349979000,21.815978759765624,0.0005083618452772498,-0.00222063809633255,0.0016707363538444042
1773798197369944800,21.83594482421875,0.000095257957582362,0.00036082533188164234,0.001172372605651617
1773798197389911000,21.8559111328125,-0.0008036705548875034,-0.0012204351369291544,-0.001882390584796667
1773798197409876700,21.875876708984375,-0.000537106127012521,0.00009947619400918484,-0.0007525188848376274
1773798197429843000,21.895843017578127,-0.001761119463481009,-0.00039623002521693707,-0.0008701193146407604
1773798197449809000,21.915808837890626,-0.0014603472081944346,-0.0005235623102635145,-0.0007536094635725021
1773798197469776000,21.93577587890625,0.0005231811664998531,-0.00037616887129843235,-0.00034143682569265366
1773798197489741800,21.955741943359374,-0.0005939335096627474,-0.00013154977932572365,-0.0016654818318784237
1773798197509708000,21.9757080078125,-0.0004260707355570048,0.0004717232659459114,0.00027289753779768944
1773798197529673700,21.995673828125,0.0008128478075377643,-0.0000017995480448007584,-0.000045044347643852234
1773798197549640000,22.015639892578125,0.00016399711603298783,0.0007718403358012438,-0.0005542938597500324
1773798197569606000,22.03560595703125,-0.0005041559925302863,-0.0013015384320169687,-0.0002857185900211334
1773798197589571800,22.05557177734375,-0.00014999958511907607,-0.00017476477660238743,-0.000008797738701105118
1773798197609537800,22.075537841796876,0.0007170019671320915,-0.002574068261310458,-0.00013722013682127
1773798197629504000,22.09550390625,0.0006236039916984737,-0.001370314508676529,0.0009985300712287426
1773798197649470000,22.115469970703124,0.000388303364161402,0.0006287782453000546,-0.001296499278396368
1773798197669436000,22.135435791015624,-0.0015192488208413124,-0.00038607302121818066,-0.0002047838643193245
1773798197689401900,22.15540185546875,-0.0004795996646862477,0.00030711875297129154,-0.0014389329589903355
1773798197709368800,22.175368896484375,0.0006182079087011516,-0.0003568860702216625,-0.0011506043374538422
1773798197729334800,22.195334716796875,0.0001900609931908548,-0.000980194890871644,-0.0004945416003465652
1773798197749301000,22.215301025390627,0.0005488431779667735,0.0010394616983830929,0.001652594655752182
1773798197769267000,22.235266845703126,-0.0009893883252516389,0.00010947673581540585,-0.0000405297614634037
1773798197789233000,22.25523291015625,-0.0014827197883278131,-0.0007346319034695625,0.000046800822019577026
1773798197809198800,22.27519873046875,0.0008432219037786126,-0.0002896338701248169,0.00036956649273633957
1773798197829165000,22.2951650390625,0.000615093857049942,0.00028257211670279503,-0.0003996281884610653
1773798197849130800,22.315130859375,0.0006873942911624908,-0.0002780510112643242,0.0012483475729823112
1773798197869097000,22.335096923828125,-0.0002480260736774653,0.000862904591485858,0.0010708021000027657
1773798197889063000,22.35506298828125,-0.0005339805502444506,-0.00001142965629696846,-0.001385269220918417
1773798197909029000,22.375029052734376,-0.0005288285901769996,0.0003348772879689932,0.0002420581877231598
1773798197928994800,22.394994873046876,0.00015094537229742855,0.0008681155741214752,-0.00004198215901851654
1773798197948961000,22.4149609375,-0.0017539277905598283,-0.000961977057158947,-0.0006582979112863541
1773798197968927000,22.434927001953124,-0.001209918176755309,0.00041782320477068424,0.0008075200021266937
1773798197988894000,22.45489404296875,0.0007925569079816341,-7.026828825473785e-7,0.00115955900400877
1773798198008860000,22.47485986328125,-0.0005238408921286464,0.0007188983727246523,0.0009804386645555496
1773798198028826000,22.494826171875,-0.00006363619468174875,0.00008094985969364643,0.00009412597864866257
1773798198048791800,22.514791748046875,-0.0005902212578803301,-0.00023272819817066193,0.000127376988530159
1773798198068758000,22.534758056640626,0.0007272019283846021,-0.0011280141770839691,-0.0005238940939307213
1773798198088724000,22.554723876953126,-0.00014573591761291027,-0.0008906470611691475,0.00036839302629232407
1773798198108689700,22.574689697265626,-0.00034939224133268,0.001112737925723195,0.00012713950127363205
1773798198128656000,22.59465576171875,0.00040940986946225166,-0.0006766228470951319,-0.0009405342862010002
1773798198148621800,22.614621826171874,0.00021977917640469968,-0.0005609942600131035,-0.0007795142009854317
1773798198168588000,22.634588134765625,0.001217367360368371,-0.00011053215712308884,0.0011787358671426773
1773798198188553700,22.6545537109375,0.000030633818823844194,0.0006519458256661892,-0.00023040128871798515
1773798198208520000,22.67452001953125,0.0011358312331140041,0.000792571110650897,0.00087690819054842
