time,seconds_elapsed,z,y,x
1773798175565159000,0.031158935546875,-0.0013949638232588768,-0.0018695390317589045,-0.00689199473708868
1773798175585125600,0.051125732421875,-0.00031638352083973587,-0.0022058964241296053,-0.005724198184907436
1773798175605092900,0.0710927734375,-0.0009813748765736818,-0.002773415995761752,-0.0054336474277079105
1773798175625059800,0.091059814453125,-0.00017656758427619934,-0.002835467690601945,-0.006318349856883287
1773798175645027600,0.111027587890625,0.0001382180635118857,-0.001910285442136228,-0.005504221189767122
1773798175664994800,0.130994873046875,-0.000565389113035053,-0.0025832662358880043,-0.006563360337167978
1773798175684961800,0.1509619140625,0.0013440974289551377,-0.0030357372015714645,-0.006685866042971611
1773798175704928500,0.170928466796875,-0.00015872440417297184,-0.002956641372293234,-0.004995823837816715
1773798175724895700,0.190895751953125,-0.0007337008719332516,-0.002049835165962577,-0.00714765815064311
1773798175744862700,0.21086279296875,0.0010689928894862533,-0.0036599822342395782,-0.0062110242433846
1773798175764829700,0.23082958984375,-0.001743571599945426,-0.002793922321870923,-0.006688262801617384
1773798175784797700,0.250797607421875,0.00022397184511646628,-0.0024708807468414307,-0.006910636555403471
1773798175804764700,0.2707646484375,0.0004956142511218786,-0.002522279741242528,-0.006933539640158415
1773798175824732000,0.29073193359375,0.0007605988066643476,-0.0012128035305067897,-0.005565740168094635
1773798175844698600,0.31069873046875,-0.0005398227367550135,-0.0037143107037991285,-0.005398493725806475
1773798175864665900,0.330665771484375,0.0005512743373401463,-0.0021052288357168436,-0.005320196971297264
1773798175884632800,0.3506328125,-0.00030892668291926384,-0.002273540711030364,-0.006627276539802551
1773798175904599600,0.370599609375,0.0008279767935164273,-0.0018466358305886388,-0.00654578348621726
1773798175924566800,0.39056689453125,0.0012564794160425663,-0.003955593332648277,-0.006046707276254892
1773798175944534800,0.41053466796875,-0.0008125304593704641,-0.003108974313363433,-0.006767891347408295
1773798175964501500,0.43050146484375,-0.000835966260638088,-0.0015006912872195244,-0.005137770436704159
1773798175984468700,0.45046875,-0.0007065366371534765,-0.0033654365688562393,-0.0065588331781327724
1773798176004435700,0.470435791015625,0.00032570460462011397,-0.0029888655990362167,-0.006583866663277149
1773798176024402700,0.490402587890625,-0.0014058827655389905,-0.00321949552744627,-0.007882158271968365
1773798176044369700,0.51036962890625,0.0006090649403631687,-0.0029145635198801756,-0.005083708092570305
1773798176064337000,0.5303369140625,-0.000182959163794294,-0.003126817522570491,-0.006640325766056776
1773798176084305000,0.550304931640625,-0.0002711098059080541,-0.002335592173039913,-0.006118612363934517
1773798176104271600,0.570271728515625,-0.00013741910515818745,-0.002118544653058052,-0.00567013630643487
1773798176124238800,0.59023876953125,-0.0007091998122632504,-0.004101800732314587,-0.0058656120672822
1773798176144205800,0.610205810546875,0.000182959163794294,-0.003487143199890852,-0.005403553601354361
1773798176164172500,0.630172607421875,-0.0001400822657160461,-0.003352387109771371,-0.006906642112880945
1773798176184139800,0.650139892578125,0.0008138620178215206,-0.003507116809487343,-0.004984905011951923
1773798176204106800,0.670106689453125,-0.001781921018846333,-0.0035931370221078396,-0.006715427152812481
1773798176224073700,0.69007373046875,0.0004577973741106689,-0.0028993834275752306,-0.006167881190776825
1773798176244041700,0.710041748046875,-0.001386707997880876,-0.002972087822854519,-0.006591323763132095
1773798176264008700,0.7300087890625,-0.0005885586142539978,-0.0026575683150440454,-0.006041114684194326
1773798176283976000,0.749975830078125,-0.0017062872648239136,-0.003724697045981884,-0.00646828580647707
1773798176303942700,0.769942626953125,-0.0015845808666199446,-0.0031201594974845648,-0.0049497513100504875
1773798176323909600,0.78990966796875,0.00038589202449657023,-0.0027475832030177116,-0.006105829495936632
1773798176343876900,0.809876953125,0.00013848437811248004,-0.00202240445651114,-0.006847253534942865
1773798176363843600,0.829843505859375,-0.00010173275222769007,-0.001776062068529427,-0.005264270585030317
1773798176383810800,0.849810791015625,-0.0001531317684566602,-0.003269829088822007,-0.005661081522703171
1773798176403777800,0.86977783203125,-0.0005091963685117662,-0.0013787185307592154,-0.005109274294227362
1773798176423745500,0.88974560546875,-0.00013795174891129136,-0.0018583538476377726,-0.006686132401227951
1773798176444336600,0.910336669921875,-0.00022450447431765497,-0.0029052423778921366,-0.0062645538710057735
1773798176464303600,0.9303037109375,-0.0005715143634006381,-0.002273274352774024,-0.005256547126919031
1773798176484270800,0.950270751953125,-0.0009129316313192248,-0.003026149934157729,-0.006672283634543419
1773798176504237600,0.970237548828125,-0.0013968279818072915,-0.0035891421139240265,-0.005077316425740719
1773798176524204800,0.990204833984375,-0.0007632619817741215,-0.003480485174804926,-0.004705273080617189
1773798176544171800,1.010171875,-0.0027366643771529198,-0.003227751236408949,-0.006329535041004419
1773798176564138800,1.030138671875,-0.0018764632986858487,-0.002922020386904478,-0.006238721311092377
1773798176584107300,1.050107177734375,0.0010673949727788568,-0.002639725338667631,-0.00720518222078681
1773798176604074000,1.070073974609375,0.00041039311327040195,-0.0037316211964935064,-0.005037635564804077
1773798176624041000,1.090041015625,-0.0011270497925579548,-0.0026021746452897787,-0.00526533555239439
1773798176644008200,1.11000830078125,-0.000645550258923322,-0.004043211229145527,-0.0054480284452438354
1773798176663975000,1.129974853515625,0.00044900894863530993,-0.002490055514499545,-0.006202768534421921
1773798176683942100,1.149942138671875,0.0002798982313834131,-0.002162220422178507,-0.006929012481123209
1773798176703909000,1.1699091796875,0.00013901700731366873,-0.003866909770295024,-0.007303985767066479
1773798176723876000,1.1898759765625,0.00018615495355334133,-0.00390286254696548,-0.0051276502199471
1773798176743843000,1.209843017578125,-0.0007552724564447999,-0.002901247702538967,-0.0065228804014623165
1773798176763810000,1.22981005859375,-0.0002913498319685459,-0.001823466387577355,-0.005037901923060417
1773798176783778300,1.2497783203125,-0.0009081379394046962,-0.0029435919132083654,-0.0033505228348076344
1773798176804369200,1.270369140625,-0.0001661812566453591,-0.0026106967125087976,-0.00566960358992219
1773798176824336100,1.290336181640625,-0.00017070861940737814,-0.00375958438962698,-0.006203301250934601
1773798176844303000,1.31030322265625,-0.00015765913121867925,-0.002409628126770258,-0.0064387246966362
1773798176864270300,1.330270263671875,-0.0010194580536335707,-0.002704440150409937,-0.005126585252583027
1773798176884237000,1.350237060546875,-0.0012665993999689817,-0.0023851271253079176,-0.005336175672709942
1773798176904204000,1.3702041015625,-0.001198955113068223,-0.002906573936343193,-0.00572979124262929
1773798176924171300,1.390171142578125,-0.0007257114048115909,-0.003985154442489147,-0.004826180636882782
1773798176944138000,1.410137939453125,0.0010327738709747791,-0.0033127060160040855,-0.006226204335689545
1773798176964105200,1.430105224609375,-0.00014567491598427296,-0.0025598304346203804,-0.005488774739205837
1773798176984072200,1.450072265625,-0.0018764632986858487,-0.003945739474147558,-0.005635248962789774
1773798177004039200,1.4700390625,-0.00037390782381407917,-0.0025334651581943035,-0.005402488633990288
1773798177024007200,1.490007080078125,0.0016594156622886658,-0.003826962551102042,-0.0068182251416146755
1773798177043974100,1.50997412109375,-0.0009496832499280572,-0.0033867419697344303,-0.006810768041759729
1773798177063941000,1.529941162109375,0.00016724651504773647,-0.0021843246649950743,-0.004014182835817337
1773798177083908000,1.549908203125,0.0003736414946615696,-0.003894074121490121,-0.005773467011749744
1773798177103875000,1.569875,-0.0012428972404450178,-0.0036107138730585575,-0.005817675497382879
1773798177123842000,1.589842041015625,-0.00008362325752386823,-0.001279382617212832,-0.005347094964236021
1773798177143809000,1.60980908203125,0.0001680454588495195,-0.002853044541552663,-0.0054570832289755344
1773798177163776300,1.6297763671875,0.0001001348573481664,-0.002918558195233345,-0.006048571318387985
1773798177183743000,1.649742919921875,-0.0005273058777675033,-0.003971305675804615,-0.005931392312049866
1773798177203710000,1.6697099609375,-0.0005374259199015796,-0.0035198999103158712,-0.0059969061985611916
1773798177223677200,1.68967724609375,-0.0005523395957425237,-0.0036136433482170105,-0.0067543089389801025
1773798177243644000,1.709643798828125,0.00032384038786403835,-0.002805906580761075,-0.0062483083456754684
1773798177263611100,1.729611083984375,0.00023329291434492916,-0.0031156321056187153,-0.0052115400321781635
1773798177283579100,1.7495791015625,-0.0000958738019107841,-0.003053047927096486,-0.005248025059700012
1773798177303546000,1.769546142578125,0.000004793690095539205,-0.0029140308033674955,-0.005754025653004646
1773798177323513000,1.78951318359375,0.000026897927455138415,-0.003882089862599969,-0.006121009588241577
1773798177343480000,1.80947998046875,-0.000006391586794052273,-0.0030162963084876537,-0.005864014383405447
1773798177363447300,1.829447265625,0.00033342777169309556,-0.0033848776947706938,-0.004230431281030178
1773798177383414000,1.8494140625,-0.0001131843455368653,-0.003516171593219042,-0.005742041394114494
1773798177403381000,1.869381103515625,-0.0008135957177728415,-0.003439738880842924,-0.0054512242786586285
1773798177423348200,1.88934814453125,0.000018109494703821838,-0.00264798104763031,-0.004308994393795729
1773798177443315000,1.90931494140625,0.00038962045800872147,-0.0014048174489289522,-0.0062187472358345985
1773798177463282200,1.9292822265625,-0.0011496866354718804,-0.0027827369049191475,-0.005802761763334274
1773798177483249200,1.949249267578125,0.000036751622246811166,-0.0032048479188233614,-0.005832056514918804
1773798177503216000,1.969216064453125,0.0005291700945235789,-0.0022807312197983265,-0.005658152047544718
1773798177523183000,1.98918310546875,-0.0012990899849683046,-0.0030573089607059956,-0.005720203742384911
1773798177543150000,2.009150146484375,0.0005070658517070115,-0.0030690268613398075,-0.005331115797162056
1773798177563118300,2.029118408203125,0.0003427488263696432,-0.001532382913865149,-0.006397712044417858
1773798177583085000,2.0490849609375,0.00038456046604551375,-0.0043739755637943745,-0.005226986017078161
1773798177603052000,2.069052001953125,0.00021891183860134333,-0.004205131437629461,-0.005197159014642239
1773798177623019000,2.08901904296875,0.0001400822657160461,-0.001995772821828723,-0.0062797339633107185
1773798177642986000,2.108986083984375,0.0006330333999358118,-0.002231995342299342,-0.006286125164479017
1773798177662953200,2.128953125,-0.00010892329009948298,-0.0025875272694975138,-0.005015531089156866
1773798177682920000,2.148919921875,-0.00023861923546064645,-0.0019145464757457376,-0.005389705300331116
1773798177702887200,2.16888720703125,0.0008396946941502392,-0.004475974943488836,-0.006148439832031727
1773798177722854100,2.188854248046875,0.0012748552253469825,-0.002376871183514595,-0.0041406829841434956
1773798177742820900,2.20882080078125,-0.0006889597862027586,-0.0033039175905287266,-0.005412076134234667
1773798177762788000,2.2287880859375,0.00046578687033616006,-0.003930293023586273,-0.004860801622271538
1773798177782755000,2.248755126953125,-0.0007299724384211004,-0.0037318875547498465,-0.005656288005411625
1773798177802722000,2.26872216796875,0.0002287655370309949,-0.002555036684498191,-0.005627791862934828
1773798177822689000,2.28868896484375,0.0005962817813269794,-0.003376089269295335,-0.006076002027839422
1773798177842656300,2.30865625,0.0012596751330420375,-0.0025427863001823425,-0.005850698333233595
1773798177862623000,2.328623046875,-0.00030892668291926384,-0.00373028963804245,-0.007129548583179712
1773798177882591000,2.348591064453125,-0.0003731088654603809,-0.0026551715563982725,-0.005567604675889015
1773798177902558200,2.36855810546875,0.000467118457891047,-0.0037792918737977743,-0.005605954211205244
1773798177922525000,2.38852490234375,-0.002013882389292121,-0.0024887239560484886,-0.005247492343187332
1773798177942492000,2.408491943359375,-0.00029774141148664057,-0.0041406829841434956,-0.006581736262887716
1773798177962459100,2.428459228515625,-0.0012711267918348312,-0.0026791400741785765,-0.005608883686363697
1773798177982425900,2.44842578125,-0.00023515711654908955,-0.0020687435753643513,-0.004289819858968258
1773798178002393000,2.46839306640625,0.0008026767172850668,-0.002654372714459896,-0.007516239304095507
1773798178022360000,2.488360107421875,-0.0006053365068510175,-0.003766242414712906,-0.005874400492757559
1773798178042327000,2.5083271484375,-0.00019281286222394556,-0.0024495755787938833,-0.006957508157938719
1773798178062294000,2.5282939453125,0.0012338425731286407,-0.0033425334841012955,-0.004691957030445337
1773798178082261000,2.548260986328125,-0.0012767193838953972,-0.0031459920573979616,-0.006699181627482176
1773798178102228000,2.56822802734375,-0.0003115898580290377,-0.002013616031035781,-0.005593703594058752
1773798178122195000,2.58819482421875,0.00019441076437942684,-0.003979295492172241,-0.004262655507773161
1773798178142162200,2.608162109375,-0.0009379653492942452,-0.0035329493694007397,-0.006596383638679981
1773798178162129000,2.62812890625,0.001121723442338407,-0.004047205671668053,-0.005109807010740042
1773798178182096100,2.64809619140625,0.0012455604737624526,-0.0034224283881485462,-0.0063210129737854
1773798178202063000,2.66806298828125,0.00034914040588773787,-0.0037289580795913935,-0.004607268609106541
1773798178222029800,2.68802978515625,-0.0002681803307496011,-0.003644269658252597,-0.0065532405860722065
1773798178241997000,2.7079970703125,-0.0021260015200823545,-0.0038714371621608734,-0.006847519893199205
1773798178261964000,2.727964111328125,-0.0011004181578755379,-0.0020732709672302008,-0.004662395920604467
1773798178281932000,2.74793212890625,-0.00033342777169309556,-0.0026961842086166143,-0.004326038993895054
1773798178301899000,2.76789892578125,0.0019520970527082682,-0.0024802018888294697,-0.005916744936257601
1773798178321866000,2.787865966796875,-0.0007994809420779347,-0.002692189533263445,-0.005932457745075226
1773798178341833200,2.807833251953125,0.0006293049664236605,-0.0026820695493370295,-0.006661631166934967
1773798178361800000,2.827800048828125,0.0020562265999615192,-0.0030538467690348625,-0.006302903406322002
1773798178381767000,2.847766845703125,-0.0011920308461412787,-0.00330205331556499,-0.005513009615242481
1773798178401734100,2.867734130859375,-0.0003712446487043053,-0.0039041941054165363,-0.006429669912904501
1773798178421700900,2.887700927734375,0.001169394003227353,-0.0023182816803455353,-0.005097024142742157
1773798178441668000,2.907668212890625,0.00029880666988901794,-0.003067162586376071,-0.006396912969648838
1773798178461635000,2.927635009765625,-0.00017789915727917105,-0.0029031119775027037,-0.005536711774766445
1773798178481602000,2.94760205078125,-0.0007576693315058947,-0.0023097596131265163,-0.006856041960418224
1773798178501569000,2.967569091796875,0.0007313040550798178,-0.00307648372836411,-0.0046325684525072575
1773798178521536000,2.987535888671875,-0.001130511867813766,-0.0036218990571796894,-0.004526042379438877
1773798178541503000,3.0075029296875,-0.0007241134881041944,-0.004686897154897451,-0.006256564520299435
1773798178561470000,3.027469970703125,0.0003608583356253803,-0.0031609057914465666,-0.003949734382331371
1773798178581437000,3.04743701171875,0.0009629990672692657,-0.003437075763940811,-0.006530603393912315
1773798178601404000,3.06740380859375,0.0001597896625753492,-0.002885801251977682,-0.004322576802223921
1773798178621371000,3.087370849609375,0.0003009371866937727,-0.004459463059902191,-0.005130313336849213
1773798178641337900,3.107337890625,0.0008855010382831097,-0.0031579763162881136,-0.0054853130131959915
1773798178661304800,3.127304931640625,0.0009504822082817554,-0.0030567762441933155,-0.005675462540239096
1773798178681271800,3.147271728515625,-0.00003302319601061754,-0.0020058928057551384,-0.004995291121304035
1773798178701238800,3.16723876953125,0.0008878979133442044,-0.003596598980948329,-0.0062642875127494335
1773798178721206000,3.1872060546875,0.0003981425834354013,-0.004172374494373798,-0.005411277059465647
1773798178741172700,3.2071728515625,-0.0005968143814243376,-0.0030248183757066727,-0.005636846646666527
1773798178761140000,3.227139892578125,-0.00036618465674109757,-0.002438656520098448,-0.006735667120665312
1773798178781107000,3.24710693359375,-0.0007861651247367263,-0.002566754585132003,-0.006472013890743256
1773798178801073700,3.26707373046875,-0.000550475378986448,-0.0013483584625646472,-0.004729507956653833
1773798178821041000,3.287041015625,-0.0006058691651560366,-0.002232261700555682,-0.003245594445616007
1773798178841007900,3.3070078125,-0.0015907060587778687,-0.0029728866647928953,-0.005627791862934828
1773798178860974800,3.326974853515625,0.00042024682625196874,-0.0035987296141684055,-0.005408347584307194
1773798178880941800,3.34694189453125,0.0008279767935164273,-0.004560929723083973,-0.004189684987068176
1773798178900909000,3.366908935546875,-0.0008942894637584686,-0.003305781865492463,-0.0062911855056881905
1773798178920875800,3.386875732421875,0.0014674017438665032,-0.0036754286848008633,-0.005425658077001572
1773798178940842800,3.4068427734375,0.0002921487612184137,-0.0031555795576423407,-0.005369198974221945
1773798178960810000,3.42681005859375,0.00041998049709945917,-0.004204066004604101,-0.0062768044881522655
1773798178980778000,3.446778076171875,-0.00046072687837295234,-0.002469815546646714,-0.006683735176920891
1773798179000744700,3.46674462890625,-0.0014911039033904672,-0.0017124125733971596,-0.006317018065601587
1773798179020712000,3.4867119140625,-0.0005840312223881483,-0.0020386497490108013,-0.006750314496457577
1773798179040679000,3.506678955078125,-0.00012756542128045112,-0.004163053352385759,-0.005409678909927607
1773798179060646000,3.52664599609375,-0.000532632227987051,-0.003329750383272767,-0.004840561654418707
1773798179080612900,3.54661279296875,0.0010218549286946654,-0.0041524008847773075,-0.007273625582456589
1773798179100580000,3.566580078125,-0.0004183826094958931,-0.004122573416680098,-0.006099970545619726
1773798179120546800,3.586546875,-0.0001358212175546214,-0.003094060579314828,-0.005846437532454729
1773798179140513800,3.606513671875,0.0008333030855283141,-0.003323625074699521,-0.005351888481527567
1773798179160481000,3.62648095703125,0.00020586235041264445,-0.00430073868483305,-0.005942577496170998
1773798179180447700,3.64644775390625,-0.0011222560424357653,-0.0032557144295424223,-0.005371595732867718
1773798179200415000,3.6664150390625,-0.0008154599345289171,-0.0022301310673356056,-0.005592105444520712
1773798179220382000,3.6863818359375,0.0014199974248185754,-0.003049585735425353,-0.005178783088922501
1773798179240349000,3.706348876953125,0.00007936220208648592,-0.0027449200861155987,-0.006961503066122532
1773798179260316000,3.72631591796875,0.00044794369023293257,-0.004744687583297491,-0.0065196845680475235
1773798179280283000,3.746282958984375,-0.0007685882737860084,-0.002457032445818186,-0.005569202359765768
1773798179300249900,3.766249755859375,0.0007502124644815922,-0.00355878216214478,-0.00618226220831275
1773798179320216800,3.786216796875,-0.0008282430935651064,-0.0031427964568138123,-0.007105580065399408
1773798179340184000,3.80618408203125,0.000966727442573756,-0.003141731023788452,-0.006998787168413401
1773798179360150800,3.82615087890625,-0.001353684812784195,-0.0027321369852870703,-0.006278668530285358
1773798179380118000,3.846117919921875,-0.0001656486128922552,-0.0032533176708966494,-0.005575061310082674
1773798179400085000,3.8660849609375,0.0006953513366170228,-0.0018045579781755805,-0.005277319811284542
1773798179420051700,3.8860517578125,-0.001347293145954609,-0.004575310740619898,-0.005967611446976662
1773798179440019000,3.90601904296875,-0.000529436394572258,-0.002368082758039236,-0.005604356061667204
1773798179459986000,3.92598583984375,-0.0004966795677319169,-0.002484729280695319,-0.005914081819355488
1773798179479953000,3.945952880859375,-0.0007536745979450643,-0.0027443873696029186,-0.0062184808775782585
1773798179499920000,3.965919921875,-0.0004058657505083829,-0.004029895178973675,-0.005921804811805487
1773798179519886800,3.985886962890625,0.001317998394370079,-0.002662894781678915,-0.007099721115082502
1773798179539853800,4.005853759765625,0.00041571943438611925,-0.00376011710613966,-0.004430967383086681
1773798179559820800,4.02582080078125,0.00129695946816355,-0.002734267385676503,-0.006390787661075592
1773798179579787800,4.045787841796875,-0.001201884588226676,-0.0032439965289086103,-0.006951116491109133
1773798179599754500,4.06575439453125,0.00044474788592197,-0.0029459886718541384,-0.005726329050958157
1773798179619721700,4.0857216796875,-0.00034594463068060577,-0.00264771468937397,-0.005476790945976973
1773798179639688700,4.105688720703125,0.0002103897277265787,-0.002127599436789751,-0.004541488364338875
1773798179659655700,4.12565576171875,-0.0000125168571685208,-0.0019654128700494766,-0.006417685654014349
1773798179679622700,4.14562255859375,-0.0011001517996191978,-0.0030242856591939926,-0.0065228804014623165
1773798179699589600,4.165589599609375,0.00045140579459257424,-0.004265584982931614,-0.006216350477188826
1773798179719555600,4.1855556640625,-0.0014620753936469555,-0.00216568261384964,-0.005077316425740719
1773798179739522800,4.205522705078125,0.0007337008719332516,-0.0024828650057315826,-0.0062975771725177765
1773798179759489500,4.225489501953125,0.0005792375304736197,-0.0020714066922664642,-0.005569202359765768
1773798179779456500,4.24545654296875,-0.00045806370326317847,-0.002906307578086853,-0.007502657361328602
1773798179799423700,4.265423828125,0.0009227853151969612,-0.003358246060088277,-0.0062701464630663395
1773798179819390500,4.285390380859375,0.00047830372932367027,-0.0015994944842532277,-0.005261607468128204
1773798179839357700,4.305357666015625,0.0006607302348129451,-0.003341468283906579,-0.005584116093814373
1773798179859324700,4.32532470703125,-0.0007091998122632504,-0.002796052722260356,-0.006392918061465025
1773798179879291600,4.345291748046875,-0.00010146643762709573,-0.002174471039324999,-0.006889065261930227
1773798179899258600,4.365258544921875,0.000577107013668865,-0.0032655680552124977,-0.005676527973264456
1773798179919225600,4.3852255859375,-0.0006825681775808334,-0.001814944320358336,-0.0062573631294071674
1773798179939192800,4.40519287109375,-0.00034594463068060577,-0.002910568844527006,-0.005561745725572109
1773798179959159600,4.42515966796875,0.0002681803307496011,-0.0031150993891060352,-0.006301038898527622
1773798179979126800,4.445126708984375,0.000182959163794294,-0.003590473672375083,-0.007224357221275568
1773798179999093800,4.46509375,-0.0003944141499232501,-0.0032828785479068756,-0.0060174125246703625
1773798180019060700,4.485060791015625,-0.001377919572405517,-0.003093794221058488,-0.006455236114561558
1773798180039027700,4.50502783203125,0.00063356600003317,-0.003751328680664301,-0.006102100946009159
1773798180058994700,4.52499462890625,0.001050617080181837,-0.0031382690649479628,-0.004743089899420738
1773798180078961700,4.544961669921875,0.0009888317435979843,-0.0034557178150862455,-0.007224623579531908
1773798180098928600,4.5649287109375,0.00037923414492979646,-0.0031430625822395086,-0.004535895772278309
1773798180118895900,4.584895751953125,0.0002692455891519785,-0.0035952674224972725,-0.00686110183596611
1773798180138862600,4.604862548828125,-0.0003581951605156064,-0.0023039006628096104,-0.00711862975731492
1773798180158829600,4.62482958984375,0.0007177218794822693,-0.0026844663079828024,-0.006311691831797361
1773798180178796800,4.644796875,0.0006881608278490603,-0.001678057829849422,-0.005535380449146032
1773798180198763500,4.664763427734375,-0.0006583334179595113,-0.0030663637444376945,-0.005007541738450527
1773798180218730800,4.684730712890625,0.0009209210984408855,-0.0030024477746337652,-0.00595562718808651
1773798180238697700,4.70469775390625,0.0008013451588340104,-0.0035598473623394966,-0.006638461723923683
1773798180258664700,4.724664794921875,0.0006884271278977394,-0.0017979000695049763,-0.004542021080851555
1773798180278631700,4.744631591796875,-0.0003502056933939457,-0.0028328043408691883,-0.00660650385543704
1773798180298598700,4.7645986328125,0.0001555285998620093,-0.002930009737610817,-0.003938548732548952
1773798180318565600,4.784565673828125,-0.0007534082396887243,-0.002543585142120719,-0.006881075445562601
1773798180338531800,4.80453173828125,-0.0003866909828502685,-0.0016029566759243608,-0.004477838985621929
1773798180358498600,4.82449853515625,-0.000568318588193506,-0.003254915354773402,-0.0057564228773117065
1773798180378465500,4.844465576171875,-0.0005661880713887513,-0.001898301183246076,-0.005094094667583704
1773798180398432800,4.864432861328125,-0.0002639192680362612,-0.004201136529445648,-0.0070283482782542706
1773798180418399500,4.8843994140625,-0.00040666470886208117,-0.0033332123421132565,-0.005566539242863655
1773798180438366700,4.90436669921875,-0.0005507417372427881,-0.0032027175184339285,-0.005667473189532757
1773798180458957600,4.92495751953125,-0.0008109325426630676,-0.0031968585681170225,-0.006126868538558483
1773798180478924800,4.9449248046875,0.0008362325606867671,-0.002430933527648449,-0.005298625212162733
1773798180498891500,4.9648916015625,0.00020639497961383313,-0.003912449814379215,-0.005132976453751326
1773798180518858800,4.984858642578125,0.00016724651504773647,-0.002757703186944127,-0.00552259711548686
1773798180538825700,5.00482568359375,-0.001526257605291903,-0.0020093549974262714,-0.006615558639168739
1773798180558792700,5.024792724609375,-0.00007190534961409867,-0.0034016557037830353,-0.0056770602241158485
1773798180578759200,5.04475927734375,-0.00034594463068060577,-0.002261822810396552,-0.006741792429238558
1773798180598726100,5.06472607421875,0.001014398061670363,-0.0032410670537501574,-0.004505536053329706
1773798180618693000,5.084693115234375,-0.0005558017292059958,-0.002490588231012225,-0.0054909056052565575
1773798180638660000,5.10466015625,0.000316916179144755,-0.0028690234757959843,-0.0057444386184215546
1773798180658627000,5.124626953125,0.001820270554162562,-0.0034354778472334146,-0.006542054936289787
1773798180678593300,5.14459326171875,0.00032384038786403835,-0.0034048515371978283,-0.005963882897049189
1773798180698560000,5.16456005859375,0.0010514160385355353,-0.002633067313581705,-0.005249356850981712
1773798180718527000,5.18452685546875,-0.0015430354978889227,-0.0036975329276174307,-0.00686030276119709
1773798180738494200,5.204494140625,-0.00019734023953787982,-0.002758502261713147,-0.004395014606416225
1773798180758461000,5.2244609375,0.000014114753867033869,-0.0038426751270890236,-0.004893025849014521
1773798180778428200,5.24442822265625,-0.000182959163794294,-0.0017723336350172758,-0.007409446872770786
1773798180799019000,5.26501904296875,-0.0008426241693086922,-0.0026820695493370295,-0.004474110435694456
1773798180818986200,5.284986328125,-0.0012266519479453564,-0.0033577135764062405,-0.005100752227008343
1773798180838953000,5.304952880859375,-0.0008399609941989183,-0.0031904669012874365,-0.006417152937501669
1773798180858920200,5.324920166015625,-0.0003312972257845104,-0.002311623888090253,-0.00640889722853899
1773798180878887200,5.34488720703125,-0.0013004215434193611,-0.0016583503456786275,-0.006770554464310408
1773798180898854100,5.364854248046875,0.0019504991360008717,-0.0023931164760142565,-0.0062307314947247505
1773798180918820000,5.384820068359375,0.001279116258956492,-0.0030218889005482197,-0.0057585532777011395
1773798180938787300,5.404787353515625,-0.0017475662752985954,-0.006068012677133083,-0.004340420011430979
1773798180958754000,5.424754150390625,0.00021278657368384302,-0.0036695697344839573,-0.006479470990598202
1773798180978721000,5.444720947265625,0.0008617989369668067,-0.003727626521140337,-0.005657352972775698
1773798180998688300,5.464688232421875,0.0013140037190169096,-0.001790975802578032,-0.006338323466479778
1773798181018655000,5.484655029296875,-0.00005326322207110934,-0.003459712490439415,-0.0062701464630663395
1773798181038622200,5.504622314453125,0.00006897587445564568,-0.0033923345617949963,-0.004867459647357464
1773798181058589200,5.524589111328125,0.0004894890007562935,-0.0023214775137603283,-0.008016647771000862
1773798181078556200,5.54455615234375,-0.000713993504177779,-0.0029145635198801756,-0.004803011193871498
1773798181098523100,5.564523193359375,0.000150202278746292,-0.0023313311394304037,-0.0059867859818041325
1773798181118490000,5.584489990234375,-0.0014085458824411035,-0.0029260150622576475,-0.005524993874132633
1773798181138457000,5.60445703125,-0.0008575378451496363,-0.0027198863681405783,-0.0049556102603673935
1773798181158423300,5.62442333984375,-0.00031185615807771683,-0.001957689644768834,-0.007063768338412046
1773798181178390000,5.64439013671875,0.0011169298086315393,-0.00458622956648469,-0.005529787857085466
1773798181198357000,5.66435693359375,0.00017736652807798237,-0.0028716865926980972,-0.006770288106054068
1773798181218324200,5.68432421875,0.0004932174342684448,-0.0030075078830122948,-0.006518086884170771
1773798181238291000,5.704291015625,-0.0009680590592324734,-0.003183809109032154,-0.004479170776903629
1773798181258258200,5.724258056640625,0.00005193164179218002,-0.003079146845266223,-0.007976965978741646
1773798181278225200,5.74422509765625,0.00042051312630064785,-0.0020820593927055597,-0.006888798903673887
1773798181298192100,5.764192138671875,-0.0011669971281662583,-0.0020967067684978247,-0.005739111918956041
1773798181318159000,5.7841591796875,-0.0005161206354387105,-0.00310497940517962,-0.005283977836370468
1773798181338126000,5.8041259765625,-0.00022077605535741895,-0.0027451864443719387,-0.007383081596344709
1773798181358092000,5.824092041015625,-0.0002924150903709233,-0.0041188448667526245,-0.004159058444201946
1773798181378059300,5.844059326171875,0.0007182545377872884,-0.0022240057587623596,-0.0062757390551269054
1773798181398026200,5.864026123046875,0.00002663161103555467,-0.0038192393258213997,-0.004376372788101435
1773798181417993000,5.883992919921875,-0.0005275722360238433,-0.0021992383990436792,-0.006325806491076946
1773798181437960200,5.903960205078125,0.00003808320252574049,-0.004467452876269817,-0.0052208611741662025
1773798181457927200,5.92392724609375,-0.0004916195175610483,-0.003465837799012661,-0.005846970248967409
1773798181477894100,5.94389404296875,-0.0017965685110539198,-0.003937750123441219,-0.006309028714895248
1773798181497861000,5.963861083984375,-0.00034674355993047357,-0.00412363838404417,-0.005660548806190491
1773798181517828400,5.983828369140625,-0.00006578007742064074,-0.0037555897142738104,-0.004963333252817392
1773798181537795000,6.003795166015625,0.001335841603577137,-0.003215500619262457,-0.006042978726327419
1773798181557761300,6.02376123046875,-0.0006711165769957006,-0.00287408335134387,-0.005578257143497467
1773798181577728500,6.043728515625,0.000004793690095539205,-0.0035489285364747047,-0.0056712012737989426
1773798181597695500,6.063695556640625,0.002017610939219594,-0.0022210762836039066,-0.004554804414510727
1773798181617662700,6.083662841796875,-0.0004593952908180654,-0.00341603672131896,-0.004700745455920696
1773798181637629400,6.10362939453125,0.0011504855938255787,-0.0027228158432990313,-0.006046174559742212
1773798181657596700,6.1235966796875,-0.000987500068731606,-0.004247475415468216,-0.005116465035825968
1773798181677563600,6.143563720703125,0.0010953581659123302,-0.0029963224660605192,-0.005644570104777813
1773798181697530600,6.163530517578125,0.0007022755453363061,-0.002986735198646784,-0.005861883983016014
1773798181717496600,6.18349658203125,0.0010338390711694956,-0.0038211036007851362,-0.007142597809433937
1773798181737463800,6.2034638671875,0.0014735270524397492,-0.003376355627551675,-0.004804076161235571
1773798181757430500,6.223430419921875,0.00019893812714144588,-0.0033864756114780903,-0.006126069463789463
1773798181777397800,6.243397705078125,-0.0006799050024710596,-0.0030975225381553173,-0.005597964394837618
1773798181797364700,6.26336474609375,-0.0006564692012034357,-0.004662129562348127,-0.003932689782232046
1773798181817331500,6.28333154296875,0.00019813918333966285,-0.0010921623324975371,-0.006047506351023912
1773798181837298700,6.303298583984375,-0.0011385013349354267,-0.004247741773724556,-0.006360960192978382
1773798181857265700,6.323265625,-0.00012863067968282849,-0.003899666713550687,-0.004640291910618544
1773798181877231600,6.343231689453125,-0.0005366269615478814,-0.002915628720074892,-0.005247492343187332
1773798181897198600,6.363198486328125,-0.001490571303293109,-0.003560912562534213,-0.005555354058742523
1773798181917165600,6.38316552734375,-0.000752875639591366,-0.002302569104358554,-0.005000617355108261
1773798181937132500,6.403132568359375,0.0002069276088150218,-0.003314303932711482,-0.0062911855056881905
1773798181957099800,6.423099853515625,-0.0003382214636076242,-0.003495931625366211,-0.0062738750129938126
1773798181977066500,6.44306640625,0.00023382554354611784,-0.0033989925868809223,-0.006079996936023235
1773798181997033500,6.463033447265625,-0.0007627293234691024,-0.0017052220646291971,-0.005367601290345192
1773798182016999700,6.482999755859375,-0.0003818972909357399,-0.0024716798216104507,-0.005230714567005634
1773798182036966700,6.502966552734375,-0.0005131911602802575,-0.0027302727103233337,-0.005934854503720999
1773798182056933600,6.52293359375,-0.0004500742070376873,-0.002948652021586895,-0.006849383935332298
1773798182076900600,6.542900634765625,-0.00008841694943839684,-0.003614175831899047,-0.007862450554966927
1773798182096867600,6.56286767578125,0.0003222425002604723,-0.0028839372098445892,-0.0054733287543058395
1773798182116834600,6.58283447265625,0.0018556906143203378,-0.004164917394518852,-0.006192914675921202
1773798182136801800,6.6028017578125,-0.000556600687559694,-0.003686880227178335,-0.006554305553436279
1773798182156767500,6.622767578125,-0.00010279801790602505,-0.003034938359633088,-0.007981227710843086
1773798182176734700,6.642734619140625,0.0000476705827168189,-0.0030245520174503326,-0.006067479960620403
1773798182196701400,6.662701416015625,-0.0009920274605974555,-0.003823234001174569,-0.004674113821238279
1773798182216668700,6.682668701171875,-0.0014729943359270692,-0.0032927324064075947,-0.006836600601673126
1773798182236635600,6.7026357421875,0.0012141350889578462,-0.0033515882678329945,-0.006732737645506859
1773798182256602600,6.7226025390625,-0.0003432814555708319,-0.002767290687188506,-0.006848052144050598
1773798182276569600,6.742569580078125,0.001047421246767044,-0.0031816784758120775,-0.006952181924134493
1773798182296535800,6.762535888671875,0.0014096111990511417,-0.0038077877834439278,-0.00628932099789381
1773798182316502500,6.78250244140625,-0.00034594463068060577,-0.003896737238392234,-0.005391569808125496
1773798182336469800,6.8024697265625,-0.0007502124644815922,-0.0029473204631358385,-0.00458729499951005
1773798182356436700,6.822436767578125,-0.0005033374181948602,-0.0031822111923247576,-0.005210474599152803
1773798182376403500,6.842403564453125,0.0005062668933533132,-0.003543602069839835,-0.006146842148154974
1773798182396370700,6.86237060546875,-0.0007648598402738571,-0.003955326974391937,-0.005280249286442995
1773798182416336600,6.882336669921875,-0.0002466087171342224,-0.002356631215661764,-0.00626002624630928
1773798182436303600,6.9023037109375,0.000254331884207204,-0.003939081449061632,-0.005686914082616568
1773798182456270600,6.9222705078125,-0.0006761765689589083,-0.00199284334667027,-0.006126335822045803
1773798182476237600,6.942237548828125,0.0005968143814243376,-0.0027569043450057507,-0.006113286130130291
1773798182496204500,6.96220458984375,0.0007970841252245009,-0.003272492438554764,-0.00583711639046669
1773798182516171800,6.982171875,-0.000526773277670145,-0.002177134156227112,-0.004857073072344065
1773798182536137500,7.002137451171875,-0.00011957593233091757,-0.00290444353595376,-0.005022721830755472
1773798182556104700,7.022104736328125,0.0009813748765736818,-0.0030868700705468655,-0.006229400169104338
1773798182576072000,7.042072021484375,-0.00005965480886516161,-0.002153165638446808,-0.006010488141328096
1773798182596039200,7.0620390625,-0.00004846953015658073,-0.003430950455367565,-0.005533782299607992
1773798182616006100,7.082006103515625,0.0006298375665210187,-0.00267754215747118,-0.004712196998298168
1773798182635972900,7.101972900390625,0.00036192359402775764,-0.0032525185961276293,-0.006307430565357208
1773798182655939000,7.12193896484375,-0.0001579254458192736,-0.002731071785092354,-0.006140716839581728
1773798182675906000,7.141906005859375,-0.0003246393462177366,-0.003221625927835703,-0.006720487028360367
1773798182695873000,7.161873046875,0.0005731122801080346,-0.001973136095330119,-0.0051984903402626514
1773798182715840000,7.181840087890625,0.0009235842735506594,-0.0030301446095108986,-0.005544435232877731
1773798182735807000,7.201806884765625,-0.0004956142511218786,-0.0046120621263980865,-0.005224056541919708
1773798182755773200,7.221773193359375,0.000035952674807049334,-0.0032565132714807987,-0.00629065278917551
1773798182775740200,7.241740234375,-0.0020604876335710287,-0.0024474449455738068,-0.006966829299926758
1773798182795707000,7.261706787109375,0.00016884441720321774,-0.001585646066814661,-0.0054458980448544025
1773798182815674000,7.281674072265625,0.000636761833447963,-0.002764893928542733,-0.006046707276254892
1773798182835641000,7.30164111328125,-0.0008916263468563557,-0.0034703651908785105,-0.005605687852948904
1773798182855608000,7.321608154296875,-0.0001496696495451033,-0.0029792783316224813,-0.005288505461066961
1773798182875574000,7.341573974609375,0.0001525991247035563,-0.003192597534507513,-0.00564004248008132
1773798182895541000,7.361541015625,0.0010298443958163261,-0.0023007048293948174,-0.005618737079203129
1773798182915508000,7.381508056640625,-0.00008415588672505692,-0.004314853344112635,-0.005857622716575861
1773798182935475200,7.40147509765625,-0.0008548747282475233,-0.0033276197500526905,-0.0062275356613099575
1773798182955442000,7.42144189453125,0.0005331648280844092,-0.001794171635992825,-0.006219279952347279
1773798182975408000,7.441408203125,-0.0008317052270285785,-0.002261290093883872,-0.007418501656502485
1773798182995374800,7.461374755859375,-0.0011470235185697675,-0.0037742317654192448,-0.006595850922167301
1773798183015342000,7.481342041015625,-0.0008870989549905062,-0.002814428647980094,-0.0051446943543851376
1773798183035309000,7.50130908203125,-0.0003384877636563033,-0.0030213561840355396,-0.00624058535322547
1773798183055276000,7.521276123046875,-0.0007257114048115909,-0.003369697602465749,-0.005035238806158304
1773798183075242000,7.541241943359375,-0.0001227717293659225,-0.002353701740503311,-0.005483448505401611
1773798183095209200,7.561209228515625,0.0009374326909892261,-0.0034613104071468115,-0.005511944647878408
1773798183115176000,7.581176025390625,0.00006524744821945205,-0.0032980586402118206,-0.006149505265057087
1773798183135143200,7.60114306640625,0.00015899071877356619,-0.0043295007199049,-0.006470416206866503
1773798183155110100,7.621110107421875,0.00019281286222394556,-0.003213636577129364,-0.0057468353770673275
1773798183175076000,7.641076171875,-0.000014647385796706658,-0.004005394410341978,-0.004914064891636372
1773798183195043000,7.66104296875,-0.0008239820599555969,-0.002898584585636854,-0.005417136009782553
1773798183215010000,7.681010009765625,-0.0012183962389826775,-0.00264798104763031,-0.006101834587752819
1773798183234977000,7.70097705078125,0.0005584649043157697,-0.0032780850306153297,-0.006997455842792988
1773798183254944000,7.720944091796875,0.000597879639826715,-0.003941478207707405,-0.004986236337572336
1773798183274910000,7.740909912109375,0.000024767397917457856,-0.0032559807877987623,-0.005819539539515972
1773798183294877000,7.760876953125,-0.0006079996819607913,-0.0031617048662155867,-0.00449914438650012
1773798183314844200,7.78084423828125,0.0002378202771069482,-0.002883404493331909,-0.00498197553679347
1773798183334811000,7.800810791015625,0.0004732437082566321,-0.0028783443849533796,-0.005531651899218559
1773798183354778000,7.820778076171875,0.00034221619716845453,-0.003970772959291935,-0.007409713231027126
1773798183374744000,7.840744140625,-0.0003400856803636998,-0.0036277580074965954,-0.00526533555239439
1773798183394711000,7.8607109375,-0.00018455706594977528,-0.0022482406347990036,-0.006066680885851383
1773798183414678000,7.880677978515625,-0.000031691615731688216,-0.0028597023338079453,-0.00625975988805294
1773798183434645000,7.90064501953125,0.0006655239267274737,-0.0034559841733425856,-0.004723116289824247
1773798183454611000,7.92061083984375,-0.00010093380114994943,-0.002600310370326042,-0.0051987566985189915
1773798183474578200,7.940578125,-0.00007909588020993397,-0.002231462625786662,-0.006165750324726105
1773798183494545000,7.960544921875,-0.0009347695158794522,-0.0024535702541470528,-0.006393184419721365
1773798183514512100,7.98051220703125,-0.001449025934562087,-0.0034855452831834555,-0.00560994865372777
1773798183534479000,8.00047900390625,0.0006434197421185672,-0.0019110844004899263,-0.005438175052404404
1773798183554445000,8.020445068359376,-0.0003938815207220614,-0.004422178957611322,-0.006449643522500992
1773798183574412000,8.040412109375,-0.00029348034877330065,-0.00410419749096036,-0.005381715949624777
1773798183594379300,8.060379150390625,0.0005195827106945217,-0.002826146548613906,-0.005991313606500626
1773798183614346000,8.080345947265625,-0.0015520902816206217,-0.002763828495517373,-0.006147108506411314
1773798183634312200,8.100312255859375,0.0006713828770443797,-0.0031310785561800003,-0.00577852688729763
1773798183654279000,8.12027880859375,-0.0007038734620437026,-0.0027177559677511454,-0.005057342816144228
1773798183674246100,8.14024609375,-0.0009326389990746975,-0.002582201035693288,-0.0051745218224823475
1773798183694213000,8.160213134765625,0.00005832322858623229,-0.0032120386604219675,-0.00532605592161417
1773798183714179000,8.180178955078125,0.00008442220860160887,-0.002139317337423563,-0.006166283041238785
1773798183734146000,8.20014599609375,0.000054328484111465514,-0.0015393070643767715,-0.005654689855873585
1773798183754113300,8.22011328125,0.00041438787593506277,-0.0030189594253897667,-0.005932724103331566
1773798183774080000,8.240080078125,-0.0001227717293659225,-0.002918824553489685,-0.005907956510782242
1773798183794046200,8.260046142578124,0.00031638352083973587,-0.003373159794136882,-0.007195062469691038
1773798183814013000,8.280012939453124,-0.00038535939529538155,-0.003638144349679351,-0.007066165097057819
1773798183833980200,8.299980224609374,0.0007592672482132912,-0.00307621737010777,-0.005486910697072744
1773798183853947100,8.319947021484374,0.0008143946761265397,-0.0034344124142080545,-0.006165218073874712
1773798183873913000,8.3399130859375,0.00003861583536490798,-0.0031321437563747168,-0.005001949146389961
1773798183893880000,8.359880126953126,0.0005475459038279951,-0.0023646207991987467,-0.006626477465033531
1773798183913847300,8.379847412109376,-0.001446362817659974,-0.0030274814926087856,-0.00560941593721509
1773798183933814000,8.39981396484375,-0.0003448793722782284,-0.003733485471457243,-0.005886917468160391
1773798183953781200,8.41978125,-0.00047351003740914166,-0.003281546989455819,-0.004603007808327675
1773798183973747000,8.439746826171875,-0.0001358212175546214,-0.0040887510403990746,-0.00558145297691226
1773798183993714200,8.459714111328125,-0.0002580603177193552,-0.00130920996889472,-0.005562810692936182
1773798184013681200,8.47968115234375,-0.000015712650565546937,-0.0023395870812237263,-0.005935120861977339
1773798184033647000,8.499647216796875,0.002124669961631298,-0.0013254552613943815,-0.005788912996649742
1773798184053614000,8.519614013671875,0.0008460862445645034,-0.003964381758123636,-0.0057255299761891365
1773798184073581300,8.539581298828125,0.0003616572648752481,-0.0036996633280068636,-0.00529542937874794
1773798184093548000,8.559548095703125,-0.0007392935222014785,-0.002889529801905155,-0.007224357221275568
1773798184113514200,8.57951416015625,0.00061279337387532,-0.0034077810123562813,-0.005501558072865009
1773798184133481000,8.59948095703125,0.00022290658671408892,-0.0038005972746759653,-0.006691458635032177
1773798184153448200,8.6194482421875,0.0011835087789222598,-0.0014612764352932572,-0.00535561703145504
1773798184173415200,8.639415283203125,0.0011504855938255787,-0.0031438616570085287,-0.006704241503030062
1773798184193381000,8.659381103515624,0.00005352953667170368,-0.003019758267328143,-0.005568137392401695
1773798184213348000,8.67934814453125,-0.00029774141148664057,-0.002499376656487584,-0.007279484532773495
1773798184233315300,8.6993154296875,-0.00031878036679700017,-0.0026522420812398195,-0.0068062408827245235
1773798184253282000,8.719281982421874,0.0010271812789142132,-0.003454386256635189,-0.0056986319832503796
1773798184273248300,8.739248291015626,-0.00037736992817372084,-0.0035417377948760986,-0.005554288625717163
1773798184293215000,8.759215087890626,-0.00013741910515818745,-0.003870371961966157,-0.005281048361212015
1773798184313182200,8.77918212890625,-0.00008974852971732616,-0.003590473672375083,-0.007122624199837446
1773798184333148000,8.79914794921875,-0.0009837717516347766,-0.0024349282030016184,-0.006962035782635212
1773798184353115100,8.819115234375,-0.0010815097484737635,-0.002651443239301443,-0.005063201766461134
1773798184373082000,8.83908203125,-0.0012415656819939613,-0.0041497377678751945,-0.007152984384447336
1773798184393049000,8.859049072265625,0.00047697214176878333,-0.004080228973180056,-0.005659749731421471
1773798184413015000,8.87901513671875,-0.00004261057620169595,-0.003195793367922306,-0.007191333919763565
1773798184432982300,8.898982177734375,0.000031425301131093875,-0.003025883575901389,-0.0038954056799411774
1773798184453573000,8.919572998046876,0.0004266384057700634,-0.0035489285364747047,-0.006716225761920214
1773798184473540000,8.9395400390625,-0.0005251753609627485,-0.0022367890924215317,-0.004568119999021292
1773798184493506300,8.95950634765625,0.0001257012045243755,-0.002629871480166912,-0.005480519030243158
1773798184513473000,8.97947314453125,0.0004679173871409148,-0.003034938359633088,-0.006200904026627541
1773798184533440000,8.99943994140625,0.0005107942852191627,-0.0033694314770400524,-0.005387574899941683
1773798184553406000,9.019406005859375,-0.000303334032651037,-0.0034402713645249605,-0.005812881514430046
1773798184573373200,9.039373291015625,-0.00030067088664509356,-0.0032594427466392517,-0.004761199466884136
1773798184593340000,9.05933984375,-0.0005840312223881483,-0.0018570221727713943,-0.005576126743108034
1773798184613307000,9.079306884765625,0.0004988100845366716,-0.0027244137600064278,-0.005368399899452925
1773798184633272800,9.09927294921875,-0.0007331682136282325,-0.0022274679504334927,-0.005285309627652168
1773798184653240000,9.119239990234375,-0.0007041397620923817,-0.002606169320642948,-0.006736998446285725
1773798184673207000,9.13920703125,-0.000464188982732594,-0.004040548112243414,-0.00544323492795229
1773798184693173000,9.159173095703125,0.00013662016135640442,-0.0024290692526847124,-0.00484295841306448
1773798184713140000,9.179139892578124,-0.0005912217311561108,-0.0033185649663209915,-0.005687979515641928
1773798184733107200,9.199107177734374,0.0002644518972374499,-0.0026264095213264227,-0.00589517317712307
1773798184753073000,9.219072998046874,-0.0017957695527002215,-0.0031164311803877354,-0.004867726005613804
1773798184773040000,9.2390400390625,-0.00003488740912871435,-0.002826412906870246,-0.005590507760643959
1773798184793631000,9.259630859375,-0.0012234562309458852,-0.00253453035838902,-0.005891711451113224
1773798184813597000,9.279596923828125,0.00034221619716845453,-0.002201635157689452,-0.005425391718745232
1773798184833564200,9.299564208984375,0.001660480978898704,-0.004188087303191423,-0.0065465825609862804
1773798184853531000,9.31953076171875,-0.0020610203500837088,-0.003364105010405183,-0.005218996666371822
1773798184873497000,9.3394970703125,-0.0004498079069890082,-0.0032706281635910273,-0.005000085104256868
1773798184893464000,9.359464111328125,-0.0005515406373888254,-0.0021526331547647715,-0.005139368120580912
1773798184913431000,9.37943115234375,-0.0006151901907287538,-0.003066629869863391,-0.0068115671165287495
1773798184933398000,9.39939794921875,-0.000669518718495965,-0.0027092336677014828,-0.006401440128684044
1773798184953364000,9.419364013671874,-0.0007091998122632504,-0.0035308189690113068,-0.004994758404791355
1773798184973331000,9.4393310546875,-0.0008322378271259367,-0.0027198863681405783,-0.006115416996181011
1773798184993298200,9.459298095703126,-0.0006474144756793976,-0.0035183019936084747,-0.004372377879917622
1773798185013264000,9.479263916015626,0.0004820321628358215,-0.0019403791520744562,-0.006275206338614225
1773798185033231000,9.499231201171876,-0.0004034689045511186,-0.004546282347291708,-0.005253884010016918
1773798185053198000,9.519197998046875,-0.0004649879119824618,-0.0020564929582178593,-0.004611796233803034
1773798185073164000,9.5391640625,0.000752875639591366,-0.0035574506036937237,-0.006964166183024645
1773798185093131000,9.559131103515625,-0.001776594785042107,-0.0034317492973059416,-0.0036373452749103308
1773798185113098000,9.579097900390625,0.0025331987999379635,-0.0019941749051213264,-0.004313255660235882
1773798185133064000,9.59906396484375,-0.0016682040877640247,-0.002653839997947216,-0.006196909584105015
1773798185153031000,9.619031005859375,0.00023276027059182525,-0.0031846079509705305,-0.00583871454000473
1773798185172998000,9.638997802734375,-0.00016325176693499088,-0.0027603665366768837,-0.005230980925261974
1773798185192964000,9.658964111328125,0.000176301269675605,-0.002960103563964367,-0.005980394314974546
1773798185212930800,9.678930908203125,-0.000278300343779847,-0.002920954953879118,-0.0046509443782269955
1773798185232898000,9.69889794921875,-0.0005454153870232403,-0.0029265477787703276,-0.005310343112796545
1773798185252864000,9.718864013671874,-0.001008539111353457,-0.0015459649730473757,-0.006737531162798405
1773798185272831000,9.7388310546875,0.0010745854815468192,-0.002356897573918104,-0.005470931995660067
1773798185292798000,9.7587978515625,-0.0006625944515690207,-0.002320412313565612,-0.005595034919679165
1773798185312764000,9.778763916015626,0.0004942826926708221,-0.002843457041308284,-0.005596366710960865
1773798185332731100,9.798731201171876,0.00012090751260984689,-0.00361763802357018,-0.005747634451836348
1773798185352698000,9.818697998046876,-0.0016021577175706625,-0.0035177695099264383,-0.004898352082818747
1773798185372664000,9.8386640625,-0.0001685781026026234,-0.0037374801468104124,-0.005540440324693918
1773798185392631000,9.858631103515625,0.0004964132094755769,-0.002668753731995821,-0.006745520513504744
1773798185412598000,9.878597900390625,-0.00020346550445538014,-0.002115615177899599,-0.007501591928303242
1773798185432564000,9.89856396484375,-0.0010636665392667055,-0.001689775730483234,-0.006426474079489708
1773798185452531200,9.91853125,-0.0022951122373342514,-0.003495398908853531,-0.006912234704941511
1773798185472498000,9.938497802734375,0.00042024682625196874,-0.0042719766497612,-0.006324208807200193
1773798185492464000,9.958464111328125,-0.00033688987605273724,-0.002579271560534835,-0.007001716643571854
1773798185512430800,9.978430908203125,0.0005302353529259562,-0.0031222901307046413,-0.005156146362423897
1773798185532398000,9.998398193359375,-0.00045327001134864986,-0.0031337416730821133,-0.006404369603842497
1773798185552363800,10.01836376953125,-0.0012013519881293178,-0.002561428351327777,-0.005282912403345108
1773798185572331000,10.0383310546875,-0.0001573928166180849,-0.0015278555219992995,-0.004644020460546017
1773798185592297700,10.058297607421874,0.00029827404068782926,-0.0030836742371320724,-0.005816876422613859
1773798185612264000,10.078263916015626,-0.0003475425182841718,-0.002801911672577262,-0.005122323986142874
1773798185632231000,10.09823095703125,-0.0001656486128922552,-0.004463191609829664,-0.005785451270639896
1773798185652198000,10.118197998046876,-0.0013765880139544606,-0.0027574370615184307,-0.0051745218224823475
1773798185672163800,10.138163818359375,-0.0007803061744198203,-0.0024117587599903345,-0.005570267792791128
1773798185692130800,10.158130859375,-0.0006266417913138866,-0.0031590417493134737,-0.003952663857489824
1773798185712097000,10.178096923828125,0.0005102616851218045,-0.003920705523341894,-0.005517004523426294
1773798185732064000,10.19806396484375,-0.00022610237647313625,-0.0033633061684668064,-0.0051777176558971405
1773798185752031000,10.218031005859375,-0.00039175100391730666,-0.0028477180749177933,-0.006134058814495802
1773798185771997000,10.237996826171875,0.0010021475609391928,-0.0016245282022282481,-0.005911418702453375
1773798185791964000,10.2579638671875,-0.0006498112925328314,-0.003680222202092409,-0.005563077051192522
1773798185811931000,10.277930908203125,-0.0015475628897547722,-0.0024407871533185244,-0.005532717332243919
1773798185831897000,10.29789697265625,0.00006471481174230576,-0.0028908613603562117,-0.005875465925782919
1773798185851863800,10.31786376953125,0.001029311795718968,-0.002667954657226801,-0.005347893573343754
1773798185871831000,10.3378310546875,0.0010578075889497995,-0.0027686222456395626,-0.005233644042164087
1773798185891796700,10.357796630859376,-0.0011257182341068983,-0.0032631712965667248,-0.0065348646603524685
1773798185911764000,10.377763916015626,0.000621848099399358,-0.0023153522051870823,-0.006837666034698486
1773798185931731000,10.39773095703125,-0.0004825647920370102,-0.003922836389392614,-0.0059625511057674885
1773798185951697000,10.41769677734375,-0.0010492854053154588,-0.00264851376414299,-0.0071095749735832214
1773798185971664000,10.437663818359376,0.000743820914067328,-0.0038599856197834015,-0.005088767968118191
1773798185991629800,10.4576298828125,0.0011406318517401814,-0.0021113541442900896,-0.005379585549235344
1773798186011596800,10.4775966796875,0.00040533312130719423,-0.0031641016248613596,-0.005943110212683678
1773798186031564000,10.49756396484375,-0.0007619303651154041,-0.002912432886660099,-0.006888532545417547
1773798186051530000,10.517530029296875,-0.0009504822082817554,-0.002210423583164811,-0.006155630573630333
1773798186071497000,10.5374970703125,0.0001680454588495195,-0.003433613572269678,-0.005629656370729208
1773798186091463700,10.557463623046875,0.000355532014509663,-0.0023329290561378,-0.00558198569342494
1773798186111430000,10.577429931640625,0.0004218447138555348,-0.002281530061736703,-0.006373477168381214
1773798186131397000,10.597397216796875,-0.00005299690383253619,-0.003236273303627968,-0.005545233841985464
1773798186151362800,10.61736279296875,0.00041252365917898715,-0.002171807922422886,-0.006128732580691576
1773798186171330000,10.637330078125,0.00040666470886208117,-0.003968109842389822,-0.0057012951001524925
1773798186191296800,10.657296875,0.00034594463068060577,-0.0027164241764694452,-0.004027232062071562
1773798186211263000,10.677262939453126,0.0009086705395020545,-0.003064233111217618,-0.006166815757751465
1773798186231230000,10.69722998046875,-0.0002996056282427162,-0.004649879410862923,-0.0051534827798604965
1773798186251196000,10.71719580078125,-0.0011616708943620324,-0.0037609159480780363,-0.0054184673354029655
1773798186271163000,10.737162841796875,-0.0008458199445158243,-0.0030338731594383717,-0.005705290008336306
1773798186291129900,10.7571298828125,0.0008127967594191432,-0.003652791725471616,-0.005912750028073788
1773798186311096000,10.777095947265625,0.0010370349045842886,-0.0030711572617292404,-0.004176901653409004
1773798186331062800,10.797062744140625,-0.00019973708549514413,-0.0015307849971577525,-0.005052016582340002
1773798186351029000,10.817029052734375,-0.0008609999786131084,-0.0035776905715465546,-0.005959089379757643
1773798186370996000,10.836995849609375,0.0008056062506511807,-0.0028943235520273447,-0.006046973634511232
1773798186390963000,10.856962890625,-0.0007238471880555153,-0.0023635553661733866,-0.003978496417403221
1773798186410929000,10.876928955078125,-0.00112465291749686,-0.003305781865492463,-0.00657454552128911
1773798186430895900,10.896895751953124,-0.0008905610884539783,-0.002540922025218606,-0.00603392394259572
1773798186450861800,10.91686181640625,-0.00006178533658385277,-0.0023515713401138783,-0.004358529578894377
1773798186470829000,10.9368291015625,-0.0002764361270237714,-0.0030780816450715065,-0.004432565066963434
1773798186490795800,10.956795654296876,0.00032437301706522703,-0.0037643781397491693,-0.006938866339623928
1773798186510762000,10.976761962890626,0.0000900148443179205,-0.003659183392301202,-0.005543636158108711
1773798186530728700,10.996728759765626,-0.00005912217602599412,-0.0032447953708469868,-0.004559331573545933
1773798186550695000,11.01669482421875,-0.00018722022650763392,-0.0023526365403085947,-0.006369215901941061
1773798186570662100,11.036662109375,0.0016708672046661377,-0.0034796863328665495,-0.005976399872452021
1773798186590628400,11.05662841796875,-0.0005512743373401463,-0.003400324145331979,-0.007032343186438084
1773798186610594300,11.07659423828125,0.0006649913266301155,-0.0032863407395780087,-0.006499444600194693
1773798186630561300,11.096561279296875,0.00033955302205868065,-0.00304692261852324,-0.004824848845601082
1773798186650527200,11.11652734375,-0.0006956176948733628,-0.001978995045647025,-0.004894091282039881
1773798186670494200,11.136494140625,-0.000553404854144901,-0.001900964416563511,-0.00455746753141284
1773798186690461400,11.15646142578125,-0.0008183894096873701,-0.0027507790364325047,-0.005776396486908197
1773798186710427400,11.176427490234374,0.0008434231276623905,-0.0044051348231732845,-0.004543086513876915
1773798186730394400,11.196394287109374,-0.00023622238950338215,-0.002737196860834956,-0.005013400688767433
1773798186750360300,11.2163603515625,-0.0006913566030561924,-0.0035459990613162518,-0.0047260457649827
1773798186770327300,11.236327392578126,0.0004601942200679332,-0.0036485306918621063,-0.006353769451379776
1773798186790294300,11.256294189453126,0.00013022858183830976,-0.0036519928835332394,-0.004378236830234528
1773798186810260200,11.27626025390625,0.0020607539918273687,-0.0032519858796149492,-0.005856025032699108
1773798186830227500,11.2962275390625,0.00033182985498569906,-0.0033388049341738224,-0.005432316102087498
1773798186850193200,11.316193115234375,-0.0014223942998796701,-0.003597131697461009,-0.004637096077203751
1773798186870160400,11.336160400390625,-0.00036139096482656896,-0.0028517129831016064,-0.0052208611741662025
1773798186890126300,11.356126220703125,0.00018189390539191663,-0.002817358123138547,-0.0054821171797811985
1773798186910093300,11.37609326171875,-0.0010964233661070466,-0.0018333201296627522,-0.005284244194626808
1773798186930060300,11.396060302734375,0.0006354302167892456,-0.0020474381744861603,-0.005915147252380848
1773798186950026200,11.416026123046874,-0.0009534116834402084,-0.003192597534507513,-0.00552233075723052
1773798186969993500,11.435993408203124,0.0008617989369668067,-0.004471180960536003,-0.006564692128449678
1773798186989959200,11.455959228515624,-0.0023244069889187813,-0.002406965009868145,-0.0051721250638365746
1773798187009926400,11.475926513671874,0.0009068063227459788,-0.002501773415133357,-0.005361209623515606
1773798187029892000,11.49589208984375,-0.0010527475969865918,-0.0032346753869205713,-0.0056712012737989426
1773798187049859300,11.515859375,-0.0016535567119717598,-0.002263686852529645,-0.0057463026605546474
1773798187069826300,11.535826416015626,-0.0000500674286740832,-0.002793922321870923,-0.005622998345643282
1773798187089792300,11.555792236328125,-0.0004362257895991206,-0.002782470779493451,-0.006433664355427027
1773798187109759200,11.57575927734375,0.0010687265312299132,-0.002169144805520773,-0.006687996443361044
1773798187129725200,11.59572509765625,-0.0003097256412729621,-0.003306048223748803,-0.006988134700804949
1773798187149692400,11.6156923828125,0.00004820321555598639,-0.0028969866689294577,-0.00580888707190752
1773798187169658000,11.635658203125,0.00039015308720991015,-0.002398442942649126,-0.00567013630643487
1773798187189625300,11.655625244140625,0.001315068919211626,-0.002487126039341092,-0.004474110435694456
1773798187209591300,11.67559130859375,0.00028389296494424343,-0.0038096518255770206,-0.005458415020257235
1773798187229558300,11.695558349609374,0.0010362359462305903,-0.002133458387106657,-0.005446963477879763
1773798187249525200,11.715525146484374,-0.000003994741746282671,-0.002377936616539955,-0.006330600008368492
1773798187269491200,11.7354912109375,0.00032730249222368,-0.002802710747346282,-0.004114849958568811
1773798187289458200,11.755458251953126,0.001303084660321474,-0.004035487771034241,-0.005614209920167923
1773798187309424000,11.775424072265626,0.0006434197421185672,-0.004307929426431656,-0.006719155237078667
1773798187329391400,11.795391357421876,0.0007640608819201589,-0.0037617150228470564,-0.005803826730698347
1773798187349357300,11.815357421875,-0.0005131911602802575,-0.002700711600482464,-0.0054696002043783665
1773798187369324300,11.83532421875,-0.0008245146600529552,-0.003204049076884985,-0.005279982928186655
1773798187389290200,11.855290283203125,-0.0007198524544946849,-0.0021198762115091085,-0.00569889834150672
1773798187409257200,11.87525732421875,-0.0004846953088417649,-0.00355931487865746,-0.006733802612870932
1773798187429224200,11.89522412109375,0.001332645770162344,-0.003751861397176981,-0.006153766065835953
1773798187449190400,11.9151904296875,-0.0005459480453282595,-0.0034940673504024744,-0.006684267893433571
1773798187469157000,11.9351572265625,-0.0004135889175813645,-0.0011230550007894635,-0.005893042776733637
1773798187489123300,11.955123291015624,-0.000017843178284238093,-0.002397910226136446,-0.004637628793716431
1773798187509090300,11.97509033203125,0.000743554555810988,-0.0026578346733003855,-0.005281314719468355
1773798187529056300,11.99505615234375,-0.0010982876410707831,-0.0026256104465574026,-0.006113019771873951
1773798187549023500,12.0150234375,0.0009896307019516826,-0.0023118900135159492,-0.005465338937938213
1773798187568989200,12.0349892578125,-0.0000601874417043291,-0.0017281252657994628,-0.006327936891466379
1773798187588956400,12.054956298828126,-0.0009659285424277186,-0.003477822057902813,-0.0054514906369149685
1773798187608922400,12.07492236328125,-0.00003462109452812001,-0.0036738307680934668,-0.0051838429644703865
1773798187628889300,12.094889404296875,0.000023435817638528533,-0.0030067088082432747,-0.00509888818487525
1773798187648855300,12.114855224609375,0.00047617321251891553,-0.002144909929484129,-0.006392118986696005
1773798187668822300,12.134822265625,0.000022370553779182956,-0.0028391960076987743,-0.005784385837614536
1773798187688789200,12.154789306640625,0.0004921521758660674,-0.0030091057997196913,-0.005273325368762016
1773798187708755200,12.174755126953125,0.0004732437082566321,-0.002103364560753107,-0.00501047121360898
1773798187728722400,12.194722412109375,0.0006109291571192443,-0.002380333375185728,-0.006357764359563589
1773798187748688100,12.214688232421874,-0.0006221143994480371,-0.0034226945135742426,-0.005191565956920385
1773798187768655400,12.2346552734375,0.00008948221511673182,-0.002944657113403082,-0.006907174363732338
1773798187788621300,12.254621337890624,-0.0012777847005054355,-0.002332130214199424,-0.005409678909927607
1773798187808588300,12.27458837890625,0.001079911831766367,-0.0029401297215372324,-0.0059990365989506245
1773798187828554500,12.294554443359376,0.00003062635369133204,-0.003163036424666643,-0.005594236310571432
1773798187848521200,12.314521240234376,-0.0008932242053560913,-0.0026615632232278585,-0.006213154643774033
1773798187868487400,12.3344873046875,0.0001637844106880948,-0.002888730727136135,-0.005667473189532757
1773798187888454100,12.3544541015625,-0.000019707391402334906,-0.0020964404102414846,-0.005803028121590614
1773798187908420400,12.37442041015625,-0.0006969492533244193,-0.003460777923464775,-0.006596649996936321
1773798187928387000,12.394386962890625,-0.001568069215863943,-0.0032740901224315166,-0.004496747627854347
1773798187948353300,12.414353271484375,0.000978978001512587,-0.002826146548613906,-0.006089051254093647
1773798187968320300,12.4343203125,-5.326322138898831e-7,-0.002046905690804124,-0.007252053823322058
1773798187988286200,12.4542861328125,0.00009321063407696784,-0.002811499172821641,-0.005898102652281523
1773798188008253400,12.47425341796875,-0.002222407842054963,-0.0015049523208290339,-0.0046514770947396755
1773798188028219100,12.49421923828125,-0.0003235740587115288,-0.0028362665325403214,-0.0054733287543058395
1773798188048186400,12.514186279296876,0.0009925601771101356,-0.0029965888243168592,-0.006416353862732649
1773798188068152000,12.534152099609376,0.0010005496442317963,-0.0023193468805402517,-0.005024319514632225
1773798188088119300,12.554119384765626,-0.00041278995922766626,-0.0035832831636071205,-0.0048978193663060665
1773798188108086300,12.574086181640626,0.00013502225920092314,-0.0031755531672388315,-0.005598230753093958
1773798188128052200,12.59405224609375,-0.0006772418855689466,-0.003186472225934267,-0.004935902543365955
1773798188148019200,12.614019287109375,-0.0002822950773406774,-0.0038456046022474766,-0.006417419295758009
1773798188167985200,12.633985107421875,-0.0007115966291166842,-0.002918824553489685,-0.005585714243352413
1773798188187952400,12.653952392578125,0.000886566296685487,-0.004029362928122282,-0.004478371702134609
1773798188207918000,12.67391796875,0.0010050770360976458,-0.0022117553744465113,-0.005898102652281523
1773798188227885300,12.69388525390625,0.0004753742541652173,-0.0024650217965245247,-0.006533000618219376
1773798188247851300,12.713851318359374,0.00008628641808172688,-0.0020447750575840473,-0.005517803598195314
1773798188267818200,12.733818359375,0.0004929511342197657,-0.0023374564480036497,-0.006706106010824442
1773798188287784400,12.753784423828124,-0.00013182646944187582,-0.0032719597220420837,-0.006190251559019089
1773798188307751200,12.773751220703126,0.0000780306218075566,-0.0023606258910149336,-0.006363356951624155
1773798188327717400,12.79371728515625,-0.00038509309524670243,-0.0038245655596256256,-0.006209160201251507
1773798188347684400,12.813684326171876,-0.0007632619817741215,-0.0030357372015714645,-0.005568936001509428
1773798188367650300,12.833650390625,-0.0003121224872302264,-0.003242398612201214,-0.005526858381927013
1773798188387617300,12.8536171875,-0.00012863067968282849,-0.004037352278828621,-0.005663211923092604
1773798188407583200,12.873583251953125,0.001074052881449461,-0.003960919566452503,-0.006293582264333963
1773798188427550200,12.89355029296875,-0.0004977448261342943,-0.0036698358599096537,-0.004526042379438877
1773798188448140300,12.914140380859376,-0.0005637911963276565,-0.0033127060160040855,-0.004656536970287561
1773798188468107300,12.934107177734376,0.0010450243717059493,-0.0034264230635017157,-0.005629123654216528
1773798188488073500,12.954073486328125,-0.00037710359902121127,-0.0019228023011237383,-0.0054277884773910046
1773798188508040200,12.974040283203125,0.0005677859298884869,-0.002261023735627532,-0.005573197267949581
1773798188528006400,12.99400634765625,0.00028282770654186606,-0.0035918052308261395,-0.006718090269714594
1773798188547973400,13.013973388671875,0.0006191849242895842,-0.0012434299569576979,-0.006156961899250746
1773798188567939300,13.033939208984375,-0.00025592977181077003,-0.0032807481475174427,-0.006687996443361044
1773798188587907000,13.053906982421875,-0.00005379585491027683,-0.0033039175905287266,-0.005758020561188459
1773798188607873000,13.073873046875,-0.00004713794987765141,-0.004245611373335123,-0.005673065781593323
1773798188627839000,13.0938388671875,0.0003427488263696432,-0.0036509274505078793,-0.00501180300489068
1773798188647806000,13.113805908203124,0.000300404557492584,-0.0025566346012055874,-0.005789712071418762
1773798188667772200,13.133772216796874,0.0004892227007076144,-0.0029414615128189325,-0.007238738238811493
1773798188687739000,13.15373876953125,-0.0004495415778364986,-0.00253532943315804,-0.005135640036314726
1773798188707705000,13.173705078125,-0.000035952674807049334,-0.0026181535795331,-0.005252819042652845
1773798188727672000,13.193672119140626,0.0005518069956451654,-0.0034408040810376406,-0.006399043370038271
1773798188747638000,13.213637939453125,0.00039468047907575965,-0.002813629573211074,-0.004751611966639757
1773798188767605000,13.23360498046875,0.00029055087361484766,-0.0032139027025550604,-0.005273325368762016
1773798188787571000,13.253571044921875,-0.00035686357296071947,-0.0034072482958436012,-0.006913033314049244
1773798188808162000,13.274162109375,-0.0004058657505083829,-0.0030003173742443323,-0.006647516507655382
1773798188828128000,13.2941279296875,-0.00019973708549514413,-0.0022479742765426636,-0.006050169467926025
1773798188848094000,13.314093994140626,0.0002713761059567332,-0.0032567796297371387,-0.007217432837933302
1773798188868061200,13.334061279296876,0.0001179780374513939,-0.0036738307680934668,-0.005293032620102167
1773798188888027000,13.35402685546875,0.000559530162718147,-0.0033515882678329945,-0.004864796530455351
1773798188907994000,13.373994140625,-0.0007273092633113265,-0.0038389465771615505,-0.0067817396484315395
1773798188927959800,13.393959716796875,-0.0007494135061278939,-0.0027542412281036377,-0.004482366610318422
1773798188947927000,13.413927001953125,-0.0015403723809868097,-0.003352653468027711,-0.007214769721031189
1773798188967893000,13.43389306640625,0.0009464874165132642,-0.0030061763245612383,-0.006196643225848675
1773798188987860000,13.45385986328125,-0.0008269115351140499,-0.002724680118262768,-0.005299690645188093
1773798189007826200,13.473826171875,-0.0005627259379252791,-0.002360359765589237,-0.00606321869418025
1773798189027793000,13.49379296875,-0.00022503710351884365,-0.0029670277144759893,-0.006245112512260675
1773798189047759000,13.513759033203126,-0.0010753844399005175,-0.004553206264972687,-0.005958023946732283
1773798189067725800,13.533725830078126,0.0007273092633113265,-0.002781405346468091,-0.005459746345877647
1773798189087692000,13.553692138671876,0.00031558459158986807,-0.0033300165086984634,-0.004326305352151394
1773798189107659000,13.573658935546876,0.0005984122981317341,-0.003451723139733076,-0.005997971165925264
1773798189127625000,13.593625,0.00031611722079105675,-0.0023726101499050856,-0.007335943635553122
1773798189147591000,13.6135908203125,-0.00020266656065359712,-0.002305498579517007,-0.006200904026627541
1773798189167558000,13.633557861328125,-0.00025007082149386406,-0.0035840822383761406,-0.005620068870484829
1773798189187524000,13.653524169921875,-0.001264202524907887,-0.0027478495612740517,-0.006485596299171448
1773798189207490800,13.67349072265625,-0.0001536643976578489,-0.00180881901178509,-0.006138586439192295
1773798189227457000,13.69345703125,0.0011347729014232755,-0.0016788567882031202,-0.005634716246277094
1773798189247424000,13.713424072265624,0.0003081277245655656,-0.0024173513520509005,-0.006314621306955814
1773798189267390000,13.733389892578124,-0.0010966897243633866,-0.002612294629216194,-0.00628985371440649
1773798189287357200,13.753357177734374,-0.0009451558580622077,-0.00227806787006557,-0.005230714567005634
1773798189307323000,13.773322998046876,-0.0004396878939587623,-0.003973170183598995,-0.006245112512260675
1773798189327289000,13.7932890625,-0.0011499529937282205,-0.004230431281030178,-0.005851763766258955
1773798189347256000,13.813256103515625,-0.0004577973741106689,-0.003890611929818988,-0.005245361942797899
1773798189367222000,13.833221923828125,0.00019813918333966285,-0.0022716764360666275,-0.005881324876099825
1773798189387189000,13.85318896484375,0.000005592638444795739,-0.0027742148377001286,-0.005665076430886984
1773798189407155000,13.873155029296875,0.0003382214636076242,-0.003567836945876479,-0.006272010505199432
1773798189427122000,13.893121826171875,-0.0006293049664236605,-0.0033984598703682423,-0.005875998642295599
1773798189447088000,13.913088134765625,-0.0004548678989522159,-0.004502606578171253,-0.005047488957643509
1773798189467055000,13.93305517578125,0.000049801110435510054,-0.002663161139935255,-0.0067870658822357655
1773798189487021000,13.95302099609375,0.0015893745003268123,-0.0024519723374396563,-0.006174805108457804
1773798189506987000,13.972987060546876,-0.0007523429812863469,-0.0028104339726269245,-0.0054696002043783665
1773798189526954000,13.9929541015625,-0.0018807243322953582,-0.0038663772866129875,-0.00538357999175787
1773798189546920000,14.012919921875,0.0010317085543647408,-0.0029284118209034204,-0.0034373418893665075
1773798189566887000,14.032886962890625,-0.001356347929686308,-0.003279150230810046,-0.006876814644783735
1773798189586852600,14.0528525390625,0.0008285093936137855,-0.002374740783125162,-0.0043532028794288635
1773798189606819300,14.0728193359375,-0.0009784454014152288,-0.003363838652148843,-0.0057226005010306835
1773798189626785500,14.09278564453125,-0.00010998855577781796,-0.0032357405871152878,-0.0049372343346476555
1773798189646751500,14.11275146484375,0.0002633866388350725,-0.00261841993778944,-0.005301821045577526
1773798189666718500,14.132718505859375,-0.00037816885742358863,-0.002353169023990631,-0.006447779480367899
1773798189686684400,14.152684326171874,-0.001290834159590304,-0.0023696806747466326,-0.005794239696115255
1773798189706651400,14.1726513671875,0.000508663768414408,-0.0034381409641355276,-0.00549197057262063
1773798189726617600,14.19261767578125,-0.0006109291571192443,-0.0028716865926980972,-0.007466704584658146
1773798189746584300,14.212584228515626,-0.00002609897819638718,-0.0030005834996700287,-0.006518619135022163
1773798189766550500,14.232550537109375,-0.0007792409160174429,-0.0027531760279089212,-0.00780545873567462
1773798189786517500,14.252517578125,-0.0004809668753296137,-0.0028991170693188906,-0.005514341406524181
1773798189806483500,14.2724833984375,-0.00040772996726445854,-0.005148156546056271,-0.00424348097294569
1773798189826449400,14.292449462890625,0.0006122607155703008,-0.002740659052506089,-0.005549228750169277
1773798189846416400,14.31241650390625,0.000511593243572861,-0.0035385421942919493,-0.007306648883968592
1773798189866382600,14.332382568359375,-0.0006197175825946033,-0.003087136195972562,-0.00558251840993762
1773798189886349300,14.352349365234375,0.0010402307379990816,-0.0012950951931998134,-0.004677576012909412
1773798189906315500,14.3723154296875,0.00007376955909421667,-0.003394731320440769,-0.0057409764267504215
1773798189926281500,14.392281494140626,0.00022849922243040055,-0.0020626182667911053,-0.0049095372669398785
1773798189946248400,14.41224853515625,0.001076982356607914,-0.0039113848470151424,-0.006555104628205299
1773798189966214400,14.43221435546875,0.0007227819296531379,-0.0016101471846923232,-0.00541394017636776
1773798189986181400,14.452181396484375,0.0002990729990415275,-0.003341201925650239,-0.005275455769151449
1773798190006147300,14.472147216796875,0.0001430117554264143,-0.002960369922220707,-0.0047090016305446625
1773798190026114600,14.492114501953125,-0.0009267800487577915,-0.004025634378194809,-0.005079713650047779
1773798190046080500,14.51208056640625,0.00027324032271280885,-0.003861050819978118,-0.005828860681504011
1773798190066046500,14.53204638671875,0.0009062737226486206,-0.0026146916206926107,-0.0070794811472296715
1773798190086013400,14.552013427734375,0.0009483516332693398,-0.0038743666373193264,-0.005519134923815727
1773798190105979400,14.5719794921875,-0.0005046690348535776,-0.0030370689928531647,-0.0059257997199893
1773798190125946600,14.591946533203124,-0.0004721784498542547,-0.001758218975737691,-0.005224589258432388
1773798190145912300,14.611912353515624,-0.0004767058417201042,-0.002844256116077304,-0.005231247283518314
1773798190165878500,14.63187841796875,-0.0006466155173256993,-0.002570483135059476,-0.004332430195063353
1773798190185845200,14.65184521484375,-0.0005555353709496558,-0.003034938359633088,-0.006159092765301466
1773798190205811500,14.6718115234375,0.000028495824153651483,-0.003224022686481476,-0.0054275221191346645
1773798190225778700,14.69177880859375,-0.000606668065302074,-0.003108441596850753,-0.006235791835933924
1773798190245744400,14.711744384765625,-0.00040559942135587335,-0.003925765864551067,-0.005531918257474899
1773798190265710600,14.731710693359375,-0.0003507383225951344,-0.0035582494456321,-0.006160956807434559
1773798190285677300,14.75167724609375,0.0009981527691707015,-0.0025598304346203804,-0.0062823970802128315
1773798190305643500,14.7716435546875,0.000020772657080669887,-0.0034442662727087736,-0.004239219706505537
1773798190325610500,14.791610595703125,0.00040852889651432633,-0.004204332362860441,-0.006036853417754173
1773798190345576400,14.811576416015624,-0.001347293145954609,-0.002715625334531069,-0.0060147494077682495
1773798190365542400,14.83154248046875,0.0002735066518653184,-0.00318886898458004,-0.005459214095026255
1773798190385509400,14.85150927734375,0.0020029633305966854,-0.00336197461001575,-0.004378769546747208
1773798190405475300,14.871475341796875,-0.0002892192860599607,-0.00321922916918993,-0.00749067310243845
1773798190425441500,14.891441650390625,-0.0019587550777941942,-0.0035241609439253807,-0.006882407236844301
1773798190445408500,14.911408447265625,-0.0004346278728917241,-0.0020538298413157463,-0.004175303969532251
1773798190465374500,14.93137451171875,-0.00035127095179632306,-0.0033659692853689194,-0.005962018854916096
1773798190485341400,14.951341552734375,-0.00005379585491027683,-0.003916977439075708,-0.006651244591921568
1773798190505307400,14.971307373046875,-0.0008346347021870315,-0.003828826593235135,-0.00657614367082715
1773798190525273600,14.991273681640624,0.00011531487689353526,-0.002432797569781542,-0.006795321591198444
1773798190545240300,15.011240234375,0.0003462109307292849,-0.003856523660942912,-0.006484797224402428
1773798190565206500,15.03120654296875,-0.0014474280178546906,-0.0026194851379841566,-0.005905027035623789
1773798190585173500,15.051173583984376,-0.000556334329303354,-0.002388855442404747,-0.006286924239248037
1773798190605139500,15.071139404296876,0.0003992078418377787,-0.003740143496543169,-0.005478388629853725
1773798190625105700,15.091105712890625,0.000015978966985130683,-0.0029254823457449675,-0.005052016582340002
1773798190645072400,15.111072265625,-0.0009512811084277928,-0.002444781828671694,-0.004752943757921457
1773798190665038600,15.13103857421875,0.00033582461765035987,-0.0036160401068627834,-0.006307696923613548
1773798190685004500,15.151004638671875,-0.0022027005907148123,-0.0037497307639569044,-0.006774283014237881
1773798190704971500,15.170971435546875,-0.00034887410583905876,-0.003206445835530758,-0.006481601390987635
1773798190724937500,15.1909375,-0.0004647216119337827,-0.002888730727136135,-0.0062637547962367535
1773798190744904400,15.210904541015625,-0.0002921487612184137,-0.0026940538082271814,-0.006007292307913303
1773798190764870700,15.23087060546875,-0.0000876179983606562,-0.0020029633305966854,-0.0037531929556280375
1773798190784836600,15.250836669921876,-0.00019654128118418157,-0.004058657679706812,-0.005752161610871553
1773798190804803600,15.270803466796876,-0.0001960086519829929,-0.00205276464112103,-0.006993993651121855
1773798190824769500,15.29076953125,-0.0013401026371866465,-0.0018985675415024161,-0.006677077617496252
1773798190844735700,15.31073583984375,0.00004793690095539205,-0.003343865042552352,-0.0054328483529388905
1773798190864702500,15.330702392578125,-0.0009816411184147,-0.0031734227668493986,-0.006402771919965744
1773798190884668700,15.350668701171875,-0.0005768407136201859,-0.0025888588279485703,-0.005396363325417042
1773798190904634400,15.37063427734375,0.00016325176693499088,-0.002814428647980094,-0.005082909017801285
1773798190924601600,15.3906015625,-0.0005241101025603712,-0.0025840650778263807,-0.005539907608181238
1773798190944567600,15.410567626953124,0.001085504423826933,-0.0025856629945337772,-0.0049193911254405975
1773798190964533500,15.430533447265624,-0.0014908375451341271,-0.0010460896883159876,-0.005913815461099148
1773798190984500700,15.450500732421874,0.0001954760227818042,-0.0046634613536298275,-0.004535629414021969
1773798191004466400,15.470466552734376,-0.0004689826746471226,-0.0023470439482480288,-0.006447246763855219
1773798191024433700,15.49043359375,-0.00046392265358008444,-0.0030157635919749737,-0.005197159014642239
1773798191044399600,15.510399658203125,-0.0003379551344551146,-0.0029470541048794985,-0.005946306046098471
1773798191064365600,15.530365478515625,0.00012170646368758753,-0.003689010627567768,-0.005367068573832512
1773798191084332500,15.55033251953125,-0.0006330333999358118,-0.0012056130217388272,-0.005017661955207586
1773798191104298500,15.570298583984375,-0.0006301039247773588,-0.002252768026664853,-0.0049196574836969376
1773798191124264400,15.590264404296875,0.00023515711654908955,-0.0026932547334581614,-0.0059508332051336765
1773798191144231700,15.610231689453125,0.00019228023302275687,-0.0035502600949257612,-0.006030461750924587
1773798191164197400,15.630197265625,0.0004543352697510272,-0.003221892286092043,-0.006365487817674875
1773798191184163600,15.65016357421875,0.0005368932615965605,-0.0033364081755280495,-0.006484530866146088
1773798191204130300,15.67013037109375,0.0016391756944358349,-0.0017856494523584843,-0.006225138902664185
1773798191224096500,15.690096435546875,-0.0006032059900462627,-0.0020453077740967274,-0.00606295233592391
1773798191244062500,15.7100625,-0.0011459582019597292,-0.003192863892763853,-0.005000350996851921
1773798191264029400,15.730029541015625,0.0005416869535110891,-0.004372111521661282,-0.005565473809838295
1773798191283995600,15.74999560546875,-0.0002567287301644683,-0.0017840516520664096,-0.004641090985387564
1773798191303961600,15.769961669921875,0.001109739183448255,-0.0034384073223918676,-0.004817125853151083
1773798191323928600,15.789928466796875,-0.00021065604232717305,-0.0021912488155066967,-0.005025118589401245
1773798191343894500,15.80989453125,-0.00021518341964110732,-0.0013765880139544606,-0.004983306862413883
1773798191363860500,15.829860595703124,-0.000636495475191623,-0.0022240057587623596,-0.005724198184907436
1773798191383827500,15.849827392578124,-0.0008844357798807323,-0.0052200620993971825,-0.006178267300128937
1773798191403793700,15.869793701171876,-0.00016884441720321774,-0.0031153657473623753,-0.005556419026106596
1773798191423759400,15.88975927734375,-0.0003406183095648885,-0.005081577692180872,-0.005409945268183947
1773798191443726600,15.9097265625,0.0002641855680849403,-0.0032629049383103848,-0.005011270288378
1773798191463692500,15.929692626953125,0.00047351003740914166,-0.00267727579921484,-0.005417136009782553
1773798191483658500,15.949658447265625,-0.00047351003740914166,-0.0028628981672227383,-0.006160157732665539
1773798191503625700,15.969625732421875,-0.00043995422311127186,-0.0027140274178236723,-0.0057585532777011395
1773798191523591400,15.98959130859375,-0.0010013486025854945,-0.0037289580795913935,-0.006299441214650869
1773798191543557600,16.0095576171875,-0.0001776328426785767,-0.0031790153589099646,-0.006371612660586834
1773798191563524600,16.029524658203126,-0.0009733853512443602,-0.0022623552940785885,-0.004639759194105864
1773798191583490800,16.04949072265625,0.0006982808117754757,-0.004471447318792343,-0.004729507956653833
1773798191603457000,16.06945703125,0.0015712650492787361,-0.002644785214215517,-0.005339105147868395
1773798191623423700,16.089423828125,0.0005627259379252791,-0.0021702100057154894,-0.006804909091442823
1773798191643390000,16.109389892578125,0.0009321063989773393,-0.005598763469606638,-0.006397712044417858
1773798191663356000,16.12935595703125,-0.0016194682102650404,-0.0018354506464675069,-0.005697034299373627
1773798191683321900,16.14932177734375,0.0014788532862439752,-0.0037736992817372084,-0.0035385421942919493
1773798191703288800,16.169288818359377,-0.00007350324449362233,-0.0026202842127531767,-0.005822735372930765
1773798191723255000,16.189255126953125,-0.00005406216951087117,-0.0043534692376852036,-0.006403304636478424
1773798191743220700,16.209220703125,0.000032490566809428856,-0.004426972474902868,-0.0065415226854383945
1773798191763188000,16.22918798828125,-0.0008404936525039375,-0.0032959282398223877,-0.00700890738517046
1773798191783154000,16.24915380859375,-0.000179230744834058,-0.003183542750775814,-0.006096774712204933
1773798191803119900,16.269119873046876,0.0008663262706249952,-0.003980094101279974,-0.005850166082382202
1773798191823087000,16.289087158203124,-0.0005344964447431266,-0.003317233407869935,-0.005892510060220957
1773798191843052800,16.309052734375,-0.00019494339358061552,-0.003966778516769409,-0.006583333946764469
1773798191863019000,16.32901904296875,0.0007038734620437026,-0.003793406533077359,-0.0065649584867060184
1773798191882985000,16.34898486328125,-0.0003456783015280962,-0.0036013927310705185,-0.005357481073588133
1773798191902952000,16.368951904296875,-0.0004146541759837419,-0.003766508772969246,-0.005711681675165892
1773798191922918000,16.38891796875,0.0004953479510731995,-0.002296177437528968,-0.005212871357798576
1773798191942884000,16.408884033203126,0.00036245622322894633,-0.001440237509086728,-0.005037901923060417
1773798191962850800,16.428850830078126,0.00010519486386328936,-0.0032495891209691763,-0.0062701464630663395
1773798191982817000,16.448817138671874,0.0004495415778364986,-0.002805373864248395,-0.004893025849014521
1773798192002782700,16.46878271484375,0.00015819176041986793,-0.005031776614487171,-0.004908472299575806
1773798192022750000,16.48875,-0.00022983079543337226,-0.0036131106317043304,-0.006149771623313427
1773798192042716000,16.5087158203125,-0.000313986703986302,-0.0026146916206926107,-0.005673864856362343
1773798192062681900,16.528681884765625,0.0005635248962789774,-0.004148405976593494,-0.006678941659629345
1773798192082647800,16.548647705078125,-0.00039707732503302395,-0.0020516992080956697,-0.007299458142369986
1773798192102614800,16.56861474609375,-0.0005456816870719194,-0.0029728866647928953,-0.006115416996181011
1773798192122581000,16.5885810546875,0.0006372944335453212,-0.0036282907240092754,-0.005501291714608669
1773798192142547000,16.608546875,-0.0004857605672441423,-0.003052515210583806,-0.005332181230187416
1773798192162514000,16.628513916015624,0.00048070057528093457,-0.0031364047899842262,-0.006551376078277826
1773798192182480000,16.64847998046875,-0.0007235808880068362,-0.0026192190125584602,-0.00583738274872303
1773798192202446000,16.668446044921875,0.0000021305288555595325,-0.00440966198220849,-0.004837632179260254
1773798192222411800,16.688411865234375,-0.000978711643256247,-0.00293347192928195,-0.00549303600564599
1773798192242379000,16.70837890625,-0.0012623383663594723,-0.0029321403708308935,-0.006197974551469088
1773798192262345000,16.728344970703127,0.0011416971683502197,-0.003172357566654682,-0.00586614478379488
1773798192282311000,16.748310791015626,-0.0008463526028208435,-0.0032812808640301228,-0.0055034225806593895
1773798192302278000,16.76827783203125,0.00043542683124542236,-0.003942543640732765,-0.006838465109467506
1773798192322243800,16.788243896484374,-0.0005398227367550135,-0.0024045680183917284,-0.005209675524383783
1773798192342209800,16.808209716796874,0.0013275857781991363,-0.0037358824629336596,-0.0036940707359462976
1773798192362176000,16.828176025390626,-0.0004596615908667445,-0.0023129554465413094,-0.00523737259209156
1773798192382143000,16.84814306640625,-0.0016647420125082135,-0.0031965922098606825,-0.004730040207505226
1773798192402109000,16.86810888671875,0.00009507485083304346,-0.003477555699646473,-0.005708485841751099
1773798192422075000,16.888074951171873,0.0002170476218452677,-0.004348409362137318,-0.0059508332051336765
1773798192442040800,16.908040771484377,0.0001233043585671112,-0.0037111148703843355,-0.00646642129868269
1773798192462008000,16.928008056640625,0.000055660068028373644,-0.0028370653744786978,-0.00663366774097085
1773798192481973800,16.947973876953125,0.00033342777169309556,-0.0013760552974417806,-0.0067814732901751995
1773798192501940000,16.96793994140625,-0.0008197209681384265,-0.0023342606145888567,-0.005307946354150772
1773798192521907000,16.987906982421876,-0.00026072346372529864,-0.0026413232553750277,-0.004463191609829664
1773798192541873000,17.007872802734376,-0.00018881811411119998,-0.0035081820096820593,-0.006154032424092293
1773798192561838800,17.0278388671875,-0.0005374259199015796,-0.004006992094218731,-0.004256263840943575
1773798192581804800,17.0478046875,-0.00011957593233091757,-0.003337473375722766,-0.004572381265461445
1773798192601771800,17.067771728515623,-0.0007981493836268783,-0.00293320557102561,-0.006207029335200787
1773798192621737700,17.08773779296875,-0.00024048343766480684,-0.003570233704522252,-0.005825132131576538
1773798192641704000,17.107703857421875,0.00022370553051587194,-0.0020956413354724646,-0.005763346794992685
1773798192661669600,17.127669677734374,0.0013116068439558148,-0.004744687583297491,-0.005114867351949215
1773798192681636900,17.147636962890626,-0.000031691615731688216,-0.0023177489638328552,-0.005526325665414333
1773798192701602800,17.167602783203126,0.0001840244367485866,-0.0010705908061936498,-0.005277053453028202
1773798192721568800,17.18756884765625,0.0017686053179204464,-0.0025449167005717754,-0.00700970645993948
1773798192741535700,17.20753564453125,-0.0005693838465958834,-0.004406199790537357,-0.006103698629885912
1773798192761501700,17.227501708984374,0.000024767397917457856,-0.003284742822870612,-0.004333229269832373
1773798192781467600,17.247467529296873,-0.0005912217311561108,-0.003631752682849765,-0.0046243127435445786
1773798192801433900,17.267433837890625,-0.0008202536264434457,-0.0023470439482480288,-0.006590791046619415
1773798192821400800,17.28740087890625,0.0005688511882908642,-0.0035627768374979496,-0.004823783412575722
1773798192841366800,17.30736669921875,0.001208009896799922,-0.0036658411845564842,-0.004050934221595526
1773798192861333000,17.3273330078125,-0.0005539375124499202,-0.005408880300819874,-0.006660565733909607
1773798192881298700,17.347298583984376,0.0005195827106945217,-0.0023307986557483673,-0.00498011102899909
1773798192901266000,17.367265869140624,0.00002370213405811228,-0.002944657113403082,-0.0052048820070922375
1773798192921232000,17.38723193359375,0.00024447820032946765,-0.003765976056456566,-0.004857339430600405
1773798192941197800,17.40719775390625,0.00022210762836039066,-0.0035446672700345516,-0.005330583080649376
1773798192961163800,17.427163818359375,-0.00004713794987765141,-0.003960653208196163,-0.00555295730009675
1773798192981130800,17.447130859375,-0.0003299656673334539,-0.003329484025016427,-0.005776662845164537
1773798193001096700,17.4670966796875,0.00012357067316770554,-0.003453587181866169,-0.0051934304647147655
1773798193021063000,17.48706298828125,-0.00037630466977134347,-0.003183542750775814,-0.006410494912415743
1773798193041028900,17.50702880859375,-0.0002836266648955643,-0.003799265483394265,-0.006039250176399946
1773798193060995800,17.526995849609374,-0.0015957661671563983,-0.0028788771014660597,-0.005998503882437944
1773798193080961800,17.5469619140625,0.0010966897243633866,-0.004594219382852316,-0.005525260232388973
1773798193100927700,17.566927734375,-0.00138058268930763,-0.0038450718857347965,-0.007532751187682152
1773798193120893700,17.586893798828125,0.0004308994684834033,-0.0026075011119246483,-0.006594785954803228
1773798193140860700,17.606860595703125,-0.00012889699428342283,-0.003950799349695444,-0.006068012677133083
1773798193160826600,17.62682666015625,0.00043036683928221464,-0.004339088220149279,-0.00771890627220273
1773798193180792800,17.646792724609377,-0.00037950044497847557,-0.002275937469676137,-0.005852296482771635
1773798193200758800,17.6667587890625,-0.0027949875220656395,-0.0031193606555461884,-0.004837365821003914
1773798193220725800,17.686725830078124,0.0015688681742176414,-0.003712446428835392,-0.005822469014674425
1773798193240691700,17.706691650390624,0.0000500674286740832,-0.0026794064324349165,-0.005588377360254526
1773798193260657700,17.72665771484375,-0.0023523701820522547,-0.004345213528722525,-0.0038863508962094784
1773798193280623600,17.74662353515625,0.0008633967954665422,-0.0033665020018815994,-0.0062616243958473206
1773798193300590800,17.7665908203125,-0.00020506340661086142,-0.002570216776803136,-0.006259493995457888
1773798193320556800,17.786556884765623,0.0009195895399898291,-0.0026322684716433287,-0.0051966262981295586
1773798193340522800,17.806522705078127,0.0008516788948327303,-0.002828543307259679,-0.007203051820397377
1773798193360489000,17.826489013671875,-0.0002721750643104315,-0.002663427498191595,-0.004207261838018894
1773798193380455700,17.84645556640625,0.00035180358099751174,-0.003792874049395323,-0.006301837973296642
1773798193400422000,17.866421875,0.0002612560929264873,-0.0027257453184574842,-0.006473612040281296
1773798193420387800,17.886387939453126,-0.0000780306218075566,-0.0016053534345701337,-0.006529804784804583
1773798193440353800,17.906353759765626,-0.00032650353386998177,-0.0026051041204482317,-0.006159625016152859
1773798193460320800,17.92632080078125,-0.0002793656021822244,-0.004201669245958328,-0.005980394314974546
1773798193480286700,17.94628662109375,-0.00003435477628954686,-0.003989148885011673,-0.005648298189043999
1773798193500252700,17.966252685546873,-0.0006439523422159255,-0.0027028422337025404,-0.007096791639924049
1773798193520219000,17.986218994140625,-0.0016580841038376093,-0.003260508179664612,-0.00592633243650198
1773798193540184800,18.006184814453125,0.0011060107499361038,-0.0028186896815896034,-0.008043545298278332
1773798193560151800,18.02615185546875,-0.000070307454734575,-0.002944923471659422,-0.00501047121360898
1773798193580118000,18.046117919921876,-0.00016245282313320786,-0.0029648973140865564,-0.007871771231293678
1773798193600083700,18.066083740234376,-0.0009832390351220965,-0.0019571571610867977,-0.00589650496840477
1773798193620050000,18.0860498046875,0.0017571536591276526,-0.0034021881874650717,-0.006120743229985237
1773798193640017000,18.106016845703124,0.000055393749789800495,-0.003308444982394576,-0.005962018854916096
1773798193659982800,18.12598291015625,0.0007440872141160071,-0.0026082999538630247,-0.006450974848121405
1773798193679948800,18.14594873046875,-0.0014346449170261621,-0.003044259501621127,-0.0056799896992743015
1773798193699915000,18.1659150390625,-0.0013840447645634413,-0.002427471335977316,-0.005862682592123747
1773798193719881700,18.1858818359375,-0.0005499427788890898,-0.0041031320579349995,-0.005536978133022785
1773798193739848000,18.205847900390626,-0.0005131911602802575,-0.0032860743813216686,-0.005641906522214413
1773798193759814000,18.22581396484375,0.0015640745405107737,-0.0049673281610012054,-0.006930876523256302
1773798193779779800,18.24577978515625,-0.0008290420519188046,-0.0020120181143283844,-0.00506985979154706
1773798193799745800,18.265745849609374,0.0003557983145583421,-0.004450674634426832,-0.00523604080080986
1773798193819712800,18.285712646484374,0.000907338981050998,-0.0032767534721642733,-0.006475476082414389
1773798193839678700,18.3056787109375,-0.0011853729374706745,-0.002918824553489685,-0.005537244491279125
1773798193859645000,18.32564501953125,-0.0006077333819121122,-0.0030453247018158436,-0.0070768180303275585
1773798193879611000,18.34561083984375,0.001728924224153161,-0.002817091764882207,-0.005855225957930088
1773798193899577900,18.365577880859377,-0.00037976677413098514,-0.0033446638844907284,-0.004537760280072689
1773798193919543800,18.385543701171876,0.00007190534961409867,-0.002894589677453041,-0.005839246790856123
1773798193939509800,18.405509765625,0.0008199872681871057,-0.003001915058121085,-0.00669412175193429
1773798193959475700,18.425475830078124,0.00011345066013745964,-0.002275138394907117,-0.005760950036346912
1773798193979442000,18.44544189453125,-0.0013046825770288706,-0.0031374699901789427,-0.006274407263845205
1773798193999409000,18.465408935546876,0.0009009473724290729,-0.002641855739057064,-0.0056949034333229065
1773798194019374800,18.485374755859375,0.0002644518972374499,-0.002350772265344858,-0.005028048064559698
1773798194039341000,18.505341064453123,-0.0004892227007076144,-0.003905525663867593,-0.005446963477879763
1773798194059306800,18.525306640625,-0.00047084689140319824,-0.0036724992096424103,-0.006013151258230209
1773798194079274000,18.54527392578125,0.0006522081675939262,-0.0028597023338079453,-0.006347111891955137
1773798194099240000,18.565239990234375,0.0005233111442066729,-0.0023960459511727095,-0.005288505461066961
1773798194119206000,18.585205810546874,0.00010998855577781796,-0.0033103092573583126,-0.005905559752136469
1773798194139171800,18.605171875,0.0010436928132548928,-0.003466636873781681,-0.005940180737525225
1773798194159138000,18.625137939453126,0.001377386855892837,-0.002596848411485553,-0.005911951418966055
1773798194179104800,18.645104736328125,-0.0006223807577043772,-0.0029848709236830473,-0.005123389419168234
1773798194199071000,18.665071044921874,-0.0011456918437033892,-0.00261788722127676,-0.004908205941319466
1773798194219037000,18.685036865234373,-0.0012085424968972802,-0.0035273567773401737,-0.0043808999471366405
1773798194239003000,18.7050029296875,0.0007233145297504961,-0.002630404196679592,-0.006372411735355854
1773798194258968800,18.72496875,-0.00011185276525793597,-0.0036732980515807867,-0.004741491749882698
1773798194278935800,18.744935791015624,0.00010226538870483637,-0.0031313446816056967,-0.005548429675400257
1773798194298901800,18.76490185546875,-0.0004498079069890082,-0.002889529801905155,-0.006091714836657047
1773798194318868000,18.784867919921876,0.0007699198904447258,-0.0033688987605273724,-0.005403287708759308
1773798194338834000,18.804833984375,0.0005281048361212015,-0.0028008464723825455,-0.0075841499492526054
1773798194358800000,18.8247998046875,0.0001536643976578489,-0.002636529505252838,-0.006074137985706329
1773798194378766800,18.844766845703123,0.0002210423699580133,-0.002570483135059476,-0.005935387220233679
1773798194398732800,18.86473291015625,0.0006876281695440412,-0.003239735495299101,-0.006115416996181011
1773798194418698800,18.88469873046875,-0.0005813680472783744,-0.0033539850264787674,-0.004284759983420372
1773798194438665000,18.9046650390625,0.00037497308221645653,-0.004323109518736601,-0.005690908990800381
1773798194458631000,18.924630859375,0.00012250541476532817,-0.0036874127108603716,-0.005878129042685032
1773798194478598000,18.944597900390626,0.0002668487431947142,-0.0008269115351140499,-0.0051774512976408005
1773798194498563800,18.964563720703126,0.000107858024421148,-0.0028122980147600174,-0.005791842471808195
1773798194518529800,18.98452978515625,0.0003126551164314151,-0.003242664970457554,-0.005872003734111786
1773798194538495700,19.004495849609373,-0.0010341054294258356,-0.0041398839093744755,-0.006825415417551994
1773798194558462000,19.0244619140625,0.0001054611784638837,-0.0036573191173374653,-0.00523577444255352
1773798194578428700,19.0444287109375,-0.00047404266661033034,-0.003421096596866846,-0.006296778097748756
1773798194598394400,19.064394287109376,0.00072597770486027,-0.0019835224375128746,-0.005253085400909185
1773798194618360300,19.0843603515625,-0.0012434299569576979,-0.0029888655990362167,-0.006252569612115622
1773798194638326500,19.104326416015624,-0.0011486213188618422,-0.0032024511601775885,-0.0057377805933356285
1773798194658292200,19.124292236328124,-0.0004756405542138964,-0.002831739140674472,-0.0065314024686813354
1773798194678259500,19.144259521484376,-0.00036378781078383327,-0.0015699334908276796,-0.004857073072344065
1773798194698225200,19.16422509765625,-0.0013680658303201199,-0.003394465195015073,-0.006259493995457888
1773798194718191400,19.18419140625,0.00013608753215521574,-0.0003046656202059239,-0.004413124173879623
1773798194738157300,19.2041572265625,-0.0014034858904778957,-0.0036458675749599934,-0.006455502472817898
1773798194758123500,19.22412353515625,0.0006894923863001168,-0.0032080437522381544,-0.006989200133830309
1773798194778090500,19.244090576171875,-0.00038722361205145717,-0.00296303303912282,-0.0076035913079977036
1773798194798056400,19.264056396484374,0.0015275891637429595,-0.003290335414931178,-0.005228317808359861
1773798194818022100,19.284022216796874,-0.0003145193331874907,-0.004305532667785883,-0.005372661165893078
1773798194837988400,19.30398828125,-0.0005550027708522975,-0.0032088428270071745,-0.006229932885617018
1773798194857954300,19.323954345703125,0.0005467469454742968,-0.0026112294290214777,-0.006960703991353512
1773798194877920500,19.34392041015625,0.0004796353168785572,-0.0025369273498654366,-0.0051564122550189495
1773798194897887500,19.363887451171873,-0.0018130800453945994,-0.002945456188172102,-0.005254150368273258
1773798194917853400,19.383853515625,-0.0009755159262567759,-0.0027276095934212208,-0.005637379363179207
1773798194937819100,19.403819091796876,-0.0004293015517760068,-0.0043308325111866,-0.005802495405077934
1773798194957785300,19.423785400390624,-0.0013723268639296293,-0.003697799053043127,-0.005231513641774654
1773798194977751300,19.443751220703124,0.000046871635277057067,-0.0034048515371978283,-0.005854959599673748
1773798194997718300,19.46371826171875,0.0003009371866937727,-0.0036495958920568228,-0.006655239500105381
1773798195017684500,19.4836845703125,0.000544350128620863,-0.002659965306520462,-0.006148706190288067
1773798195037650400,19.503650390625,-0.0012295814231038094,-0.0036999296862632036,-0.005140966270118952
1773798195057616400,19.523616455078123,-0.0003755057114176452,-0.001859419047832489,-0.005750829819589853
1773798195077582300,19.543582275390627,-0.0015579492319375277,-0.002814162289723754,-0.006256830412894487
1773798195097548300,19.56354833984375,-0.00029534456552937627,-0.0031909996178001165,-0.005517803598195314
1773798195117515300,19.583515380859374,-0.001243962557055056,-0.003894340479746461,-0.006430468522012234
1773798195137481500,19.6034814453125,-0.0006490123341791332,-0.003837615018710494,-0.004834436345845461
1773798195157447400,19.623447509765626,-0.0009512811084277928,-0.003126817522570491,-0.00643659383058548
1773798195177413400,19.643413330078126,0.0004492752777878195,-0.001276453142054379,-0.005583317019045353
1773798195197379300,19.66337939453125,-0.000013582121027866378,-0.0024082965683192015,-0.005401423200964928
1773798195217345500,19.683345458984373,-0.00012410330236889422,-0.0041529336012899876,-0.005884254351258278
1773798195237312300,19.703312255859377,-0.0007707187905907631,-0.00436012726277113,-0.004994758404791355
1773798195257278500,19.723278564453125,-0.0015488944482058287,-0.0028724854346364737,-0.0054972972720861435
1773798195277244400,19.743244384765624,-0.00024820660473778844,-0.001407214323990047,-0.005257878918200731
1773798195297210400,19.76321044921875,-0.0005789712304249406,-0.0025031049735844135,-0.005437642335891724
1773798195317176300,19.78317626953125,0.0008602010202594101,-0.0034144388046115637,-0.005702360533177853
1773798195337142500,19.803142578125,-0.000358461489668116,-0.0030897995457053185,-0.007244330830872059
1773798195357109200,19.823109130859375,0.0002892192860599607,-0.0035744947381317616,-0.00484429020434618
1773798195377075500,19.843075439453123,-0.0001994707708945498,-0.003314037574455142,-0.004161987919360399
1773798195397041400,19.86304150390625,-0.000055393749789800495,-0.0031105722300708294,-0.006079464219510555
1773798195417007400,19.88300732421875,0.0005906891310587525,-0.00290444353595376,-0.006128732580691576
1773798195436973300,19.902973388671874,0.000532365869730711,-0.003059173235669732,-0.007694405037909746
1773798195456939500,19.922939453125,0.0002814961189869791,-0.0036301547661423683,-0.0064837317913770676
1773798195476906200,19.94290625,-0.0008756473544053733,-0.003162770066410303,-0.005804359447211027
1773798195496872400,19.96287255859375,-0.0005398227367550135,-0.003934021573513746,-0.005623264703899622
1773798195516838400,19.98283837890625,-0.0009246495319530368,-0.0034935346338897943,-0.00683047529309988
1773798195536804400,20.002804443359373,0.00010093380114994943,-0.0031286815647035837,-0.005224589258432388
1773798195556770300,20.022770263671877,-0.000028229507734067738,-0.0036485306918621063,-0.005941512528806925
1773798195576736500,20.042736572265625,-0.0006764429272152483,-0.0019419770687818527,-0.005599562544375658
1773798195596703700,20.062703857421877,0.0004362257895991206,-0.0035236284602433443,-0.006397179327905178
1773798195616670000,20.082669921875,-0.00012197277828818187,-0.002242914168164134,-0.005782255437225103
1773798195636636000,20.102635986328124,0.00019201391842216253,-0.0032477248460054398,-0.0068267472088336945
1773798195656601900,20.122601806640624,-0.0014271880500018597,-0.0018197379540652037,-0.0060120862908661366
1773798195676567800,20.14256787109375,-0.0007491472060792148,-0.0029377329628914595,-0.006405701395124197
1773798195696534000,20.162533935546875,-0.00015206649550236762,-0.002811765531077981,-0.0052173989824950695
1773798195716500700,20.182500732421875,-0.0003129214164800942,-0.0032117723021656275,-0.005677326582372189
1773798195736467000,20.202467041015623,-0.0004932174342684448,-0.004079164005815983,-0.0060150157660245895
1773798195756433000,20.222432861328127,-0.0006444850005209446,-0.004999019671231508,-0.005684250965714455
1773798195776398800,20.24239892578125,-0.00045593318645842373,-0.0017944378778338432,-0.0043798345141112804
1773798195796364800,20.26236474609375,-0.0003842941368930042,-0.002394448034465313,-0.0057015614584088326
1773798195816331000,20.2823310546875,-0.0003616572648752481,-0.002889529801905155,-0.005774265620857477
1773798195836296700,20.302296630859374,-0.0006852313526906073,-0.0026258768048137426,-0.006540190894156694
1773798195856264000,20.322263916015626,-0.001698564155958593,-0.0029385320376604795,-0.006259227637201548
1773798195876230000,20.34222998046875,-0.0008056062506511807,-0.0032226911280304193,-0.005389438942074776
1773798195896195800,20.36219580078125,-0.0013251889031380415,-0.003376621985808015,-0.005365470424294472
1773798195916161800,20.382161865234377,0.00023462448734790087,-0.0028935244772583246,-0.006189985200762749
1773798195936128000,20.4021279296875,-0.0007131945458240807,-0.004197940696030855,-0.0064925202168524265
1773798195956093700,20.42209375,-0.00029081720276735723,-0.003543868428096175,-0.004792624618858099
1773798195976060000,20.442059814453124,-0.0013648699969053268,-0.002445048186928034,-0.005878129042685032
1773798195996027000,20.46202685546875,0.0004777711001224816,-0.0035481294617056847,-0.004988899454474449
1773798196015992800,20.481992919921876,-0.0009478190331719816,-0.0027981833554804325,-0.005130579695105553
1773798196035958800,20.501958740234375,0.0000953411654336378,-0.0035428032279014587,-0.00544403400272131
1773798196055925000,20.521925048828123,-0.0009835053933784366,-0.00461658975109458,-0.005884254351258278
1773798196075890700,20.541890625,-0.0009076052810996771,-0.0028668928425759077,-0.004817658569663763
1773798196095857000,20.56185693359375,0.0005944175645709038,-0.0036538569256663322,-0.00563950976356864
1773798196115822800,20.58182275390625,-0.0007904262165538967,-0.002293247962370515,-0.006105296779423952
1773798196135789800,20.601789794921874,0.0005632585380226374,-0.0041734399273991585,-0.006025934591889381
1773798196155755800,20.621755859375,-0.0009339706157334149,-0.0028003137558698654,-0.0047028763219714165
1773798196175722000,20.641721923828126,0.0007329019135795534,-0.0034352114889770746,-0.00598518829792738
1773798196195687700,20.661687744140625,0.001252484624274075,-0.002767823403701186,-0.0062757390551269054
1773798196215654000,20.68165380859375,0.0012828446924686432,-0.0035595810040831566,-0.004821386653929949
1773798196235619800,20.701619873046877,-0.001333178486675024,-0.002373675350099802,-0.007625162601470947
1773798196255585800,20.721585693359376,-0.0008279767935164273,-0.003228283952921629,-0.0059875850565731525
1773798196275552800,20.741552734375,-0.0006926882197149098,-0.0016767261549830437,-0.005268265027552843
1773798196295519000,20.76151904296875,0.0016247945604845881,-0.002094576135277748,-0.006169745232909918
1773798196315484700,20.781484619140624,0.00022024342615623027,-0.0024197481106966734,-0.005789179354906082
1773798196335451000,20.801450927734376,0.000928111607208848,-0.003450657706707716,-0.0052355085499584675
1773798196355416800,20.821416748046875,-0.0010583401890471578,-0.001936650718562305,-0.004592621233314276
1773798196375382800,20.8413828125,0.0005779059720225632,-0.0028727517928928137,-0.004349208436906338
1773798196395348700,20.8613486328125,-0.00013369068619795144,-0.0024628913961350918,-0.005821936298161745
1773798196415315000,20.88131494140625,0.0001560612436151132,-0.0037979339249432087,-0.00723367789760232
1773798196435281700,20.90128173828125,-0.0009302421822212636,-0.0032232238445430994,-0.003206978552043438
1773798196455248000,20.921247802734374,0.0006442186422646046,-0.002855974016711116,-0.005667473189532757
1773798196475213800,20.9412138671875,-0.0008878979133442044,-0.002941993996500969,-0.00395612558349967
1773798196495179800,20.9611796875,-0.0008492820779792964,-0.0032461269292980433,-0.004807538352906704
1773798196515145700,20.981145751953125,-0.00044767739018425345,-0.0030834078788757324,-0.005852829199284315
1773798196535112000,21.00111181640625,0.00023169501218944788,-0.00270683690905571,-0.005654689855873585
1773798196555078000,21.021077880859377,0.0005965480813756585,-0.004101800732314587,-0.005656021647155285
1773798196575043800,21.0410439453125,-0.00023702133330516517,-0.0035446672700345516,-0.006359362509101629
1773798196595010800,21.0610107421875,0.00014381069922819734,-0.00296276668086648,-0.005973736755549908
1773798196614976800,21.080976806640624,0.0009893643436953425,-0.0035124430432915688,-0.006169745232909918
1773798196634942700,21.100942626953124,0.0005185174522921443,-0.0026671558152884245,-0.005512476898729801
1773798196654909000,21.120908935546876,-0.00021198761533014476,-0.001948634977452457,-0.0049614692106842995
1773798196674875000,21.140875,-0.001615473534911871,-0.0026615632232278585,-0.005772667936980724
1773798196694840800,21.1608408203125,-0.000010652644050423987,-0.0037063213530927896,-0.0065228804014623165
1773798196714806800,21.180806884765627,0.0014908375451341271,-0.0032469260040670633,-0.005470931995660067
1773798196734773000,21.20077294921875,-0.0006056028068996966,-0.0034261567052453756,-0.005877862684428692
1773798196754738700,21.22073876953125,-0.0006000102148391306,-0.001582716591656208,-0.005922337528318167
1773798196774706000,21.240705810546874,-0.0009635316673666239,-0.0032730249222368,-0.006249906495213509
1773798196794671900,21.260671875,0.0007326356135308743,-0.002091646660119295,-0.0057710702531039715
1773798196814637800,21.280637939453126,0.0013824469642713666,-0.003965713083744049,-0.0051984903402626514
1773798196834603800,21.300603759765625,-0.0005281048361212015,-0.0028778119012713432,-0.005230181850492954
1773798196854570000,21.320570068359373,0.000010120012120751198,-0.0034738273825496435,-0.0048826392740011215
1773798196874535700,21.34053564453125,0.0006562029011547565,-0.002377403900027275,-0.0062696137465536594
1773798196894502000,21.360501953125,-0.00020053602929692715,-0.004732969682663679,-0.0048829056322574615
1773798196914467800,21.3804677734375,-0.00004207794336252846,-0.003492469433695078,-0.0056831855326890945
1773798196934434000,21.40043408203125,-0.00019387812062632293,-0.003596865339204669,-0.005901298485696316
1773798196954400800,21.42040087890625,-0.00023968449386302382,-0.0044104610569775105,-0.004749215207993984
1773798196974367000,21.440366943359376,0.0004324973560869694,-0.003953196108341217,-0.005645102355629206
1773798196994332700,21.460332763671875,-0.0007749798824079335,-0.0038219024427235126,-0.004310059826821089
1773798197014299000,21.480298828125,-0.001127848750911653,-0.0030927290208637714,-0.005401423200964928
1773798197034264800,21.500264892578127,-0.0006226470577530563,-0.002290318487212062,-0.005692773032933474
1773798197054231000,21.52023095703125,0.0001536643976578489,-0.0010732539230957627,-0.0054427022114396095
1773798197074196700,21.54019677734375,-0.0005901564727537334,-0.004090082831680775,-0.005930060520768166
1773798197094163000,21.560162841796874,-0.001978462329134345,-0.004391286056488752,-0.005282646510750055
1773798197114129000,21.58012890625,0.00012357067316770554,-0.003242398612201214,-0.0062459115870296955
1773798197134094800,21.6000947265625,0.0003989415417890996,-0.0016596820205450058,-0.005565207917243242
1773798197154061800,21.620061767578125,0.000660463934764266,-0.0036125779151916504,-0.006542054936289787
1773798197174028000,21.640028076171873,-0.0006905576447024941,-0.0028687571175396442,-0.006042978726327419
1773798197193993700,21.65999365234375,-0.0005360943032428622,-0.0028519791085273027,-0.005495699122548103
1773798197213960000,21.6799599609375,0.001415736391209066,-0.0026559706311672926,-0.004910602699965239
1773798197233926000,21.69992578125,0.0005853627808392048,-0.0023957795929163694,-0.004481567535549402
1773798197253891800,21.719891845703124,-0.0001155811914941296,-0.0017334514996036887,-0.005311142187565565
1773798197273857800,21.73985791015625,0.000871652620844543,-0.003704190719872713,-0.00526799913495779
1773798197293824000,21.759823974609375,0.00041811628034338355,-0.002939064521342516,-0.005849633365869522
1773798197313790000,21.7797900390625,0.00036139096482656896,-0.0036495958920568228,-0.005242166109383106
1773798197333757000,21.7997568359375,-0.0009028115891851485,-0.0020237360149621964,-0.00646828580647707
1773798197353723000,21.819722900390627,0.0009749832679517567,-0.0032503881957381964,-0.005053082015365362
1773798197373688800,21.839688720703126,0.0007470166892744601,-0.00239258399233222,-0.005206213798373938
1773798197393654800,21.85965478515625,0.0002615224220789969,-0.004131628200411797,-0.006322344299405813
1773798197413621000,21.87962109375,-0.0010072075529024005,-0.0029648973140865564,-0.006351905409246683
1773798197433587000,21.8995869140625,-0.0012213257141411304,-0.0026173547375947237,-0.005727127660065889
1773798197453553000,21.919552978515625,-0.0009299758239649236,-0.0035185683518648148,-0.005921006202697754
1773798197473518800,21.939518798828125,-0.0011731224367395043,-0.0027513117529451847,-0.005139634478837252
1773798197493485000,21.959485107421877,0.00006604639202123508,-0.0035364115610718727,-0.006490389816462994
1773798197513450800,21.97945068359375,-0.0002764361270237714,-0.003762513864785433,-0.0064983791671693325
1773798197533416700,21.999416748046876,0.0005187837523408234,-0.0038751657120883465,-0.006274673622101545
1773798197553383000,22.0193828125,-0.0009004147723317146,-0.003528155852109194,-0.005256014876067638
1773798197573350000,22.039349853515624,-0.0001555285998620093,-0.0029907298739999533,-0.006520483642816544
1773798197593315800,22.05931591796875,-0.001246892032213509,-0.0026517093647271395,-0.0059806606732308865
1773798197613282000,22.079281982421875,0.00010572749306447804,-0.003034938359633088,-0.004766525700688362
1773798197633247700,22.099247802734375,0.0005803027888759971,-0.0031755531672388315,-0.004720453172922134
1773798197653214000,22.1192138671875,-0.0010849718237295747,-0.0036730316933244467,-0.006868292577564716
1773798197673180000,22.139179931640626,0.0004183826094958931,-0.0038069887086749077,-0.005244829226285219
1773798197693146000,22.15914599609375,-0.00038748994120396674,-0.0027377295773476362,-0.006412093061953783
1773798197713111800,22.17911181640625,-0.0005925533478148282,-0.0031153657473623753,-0.006041114684194326
1773798197733078000,22.199078125,0.00008628641808172688,-0.003477289341390133,-0.006947122048586607
1773798197753044000,22.2190439453125,-0.0002561961009632796,-0.0023576964158564806,-0.005274123977869749
1773798197773010000,22.239010009765625,-0.0012447615154087543,-0.0020692760590463877,-0.006758836563676596
1773798197792976000,22.258975830078125,0.00013129384024068713,-0.0020266654901206493,-0.005033640656620264
1773798197812941800,22.27894189453125,-0.0009523464250378311,-0.0023153522051870823,-0.0060240705497562885
1773798197832908800,22.29890869140625,-0.002353169023990631,-0.0025446503423154354,-0.006030728109180927
1773798197852875000,22.318875,-0.0018362496048212051,-0.003689276985824108,-0.0044408212415874004
1773798197872841000,22.338841064453124,-0.00045353634050115943,-0.003183276392519474,-0.0046179210767149925
1773798197892807000,22.358806884765624,0.00018642126815393567,-0.0033398703671991825,-0.005422994960099459
1773798197912772900,22.37877294921875,-0.001603222917765379,-0.001835716888308525,-0.004984105937182903
1773798197932739000,22.398739013671875,-0.0005499427788890898,-0.0031441280152648687,-0.005477855913341045
1773798197952705000,22.418705078125,-0.0008237157016992569,-0.003311108099296689,-0.004829110112041235
1773798197972670700,22.438670654296875,-0.0019632822368294,-0.0017630126094445586,-0.00552126532420516
1773798197992637000,22.458636962890626,-0.0002079928817693144,-0.002270344877615571,-0.006518086884170771
1773798198012603000,22.478602783203126,-0.00014540860138367862,-0.002395247109234333,-0.005886917468160391
1773798198032568800,22.49856884765625,-0.000290018244413659,-0.003980094101279974,-0.0067721521481871605
1773798198052534800,22.51853466796875,-0.00065460498444736,-0.0025654230266809464,-0.005776130128651857
1773798198072501000,22.5385009765625,-0.0005491438205353916,-0.0031965922098606825,-0.005331382155418396
1773798198092467000,22.558467041015625,-0.001466869143769145,-0.0017827199772000313,-0.006995591334998608
1773798198112433000,22.578432861328125,0.0006226470577530563,-0.002913231961429119,-0.006318083498626947
1773798198132398800,22.59839892578125,-0.000023968450477696024,-0.0037734329234808683,-0.00689066294580698
1773798198152365800,22.61836572265625,-0.0018642127979546785,-0.004077033139765263,-0.005885319784283638
1773798198172331800,22.638331787109376,-0.0007099987124092877,-0.004010987002402544,-0.004974518436938524
1773798198192298000,22.658298095703124,-0.001190166687592864,-0.004071174189448357,-0.004904743749648333
1773798198212264000,22.678263916015624,0.0005882922559976578,-0.003404052462428808,-0.004950284026563168
1773798198232230000,22.69822998046875,0.00024580975878052413,-0.0036962011363357306,-0.006213421002030373
1773798198252195800,22.71819580078125,0.0005693838465958834,-0.0024564997293055058,-0.004023237619549036
1773798198272162000,22.738162109375,-0.0009315737406723201,-0.002591521944850683,-0.0059596216306090355
1773798198292127700,22.758127685546874,0.00039494677912443876,-0.0025803367607295513,-0.005967345088720322
1773798198312094000,22.778093994140626,-0.00015339808305725455,-0.0023728765081614256,-0.004515123087912798
1773798198332060000,22.798059814453126,-0.00021278657368384302,-0.002626675646752119,-0.006000102031975985
1773798198352026000,22.818026123046874,-0.0003328951424919069,-0.002924683503806591,-0.006052832584828138
1773798198371991800,22.83799169921875,-0.0007813714328221977,-0.0024346618447452784,-0.0043838294222950935
1773798198391958000,22.8579580078125,-0.0003254382754676044,-0.002523611532524228,-0.005828061606734991
