time,seconds_elapsed,z,y,x
1773790084992957200,0.017957275390625,-0.99554443359375,-0.00164794921875,-0.02069091796875
1773790085012921000,0.037921142578125,-0.9968414306640625,-0.001953125,-0.0215911865234375
1773790085032885000,0.057885009765625,-0.9942779541015625,-0.001251220703125,-0.0192718505859375
1773790085052849200,0.07784912109375,-0.995086669921875,-0.00067138671875,-0.0193328857421875
1773790085072813000,0.09781298828125,-0.9959716796875,-0.00244140625,-0.0197906494140625
1773790085092778200,0.1177783203125,-0.9957427978515625,-0.000762939453125,-0.01983642578125
1773790085112742100,0.1377421875,-0.9955902099609375,-0.002227783203125,-0.020172119140625
1773790085132706000,0.1577060546875,-0.996307373046875,-0.0017547607421875,-0.01995849609375
1773790085152670200,0.177670166015625,-0.9966583251953125,-0.0018310546875,-0.01971435546875
1773790085172634000,0.197634033203125,-0.99462890625,-0.0017547607421875,-0.0202789306640625
1773790085192598000,0.217597900390625,-0.995269775390625,-0.0016326904296875,-0.02001953125
1773790085212562200,0.237562255859375,-0.9954071044921875,-0.00201416015625,-0.020050048828125
1773790085232526000,0.257526123046875,-0.9954681396484375,-0.00177001953125,-0.0197906494140625
1773790085252491000,0.277490966796875,-0.9954986572265625,-0.0012664794921875,-0.019195556640625
1773790085272455000,0.297454833984375,-0.99627685546875,-0.0019378662109375,-0.0207061767578125
1773790085292419000,0.317419189453125,-0.99468994140625,-0.00177001953125,-0.0199432373046875
1773790085312383000,0.337383056640625,-0.9955291748046875,-0.0019073486328125,-0.01898193359375
1773790085332347000,0.357346923828125,-0.9962310791015625,-0.0032196044921875,-0.020751953125
1773790085352310800,0.377310791015625,-0.996246337890625,-0.0028076171875,-0.01953125
1773790085372275200,0.397275146484375,-0.99554443359375,-0.0013885498046875,-0.019805908203125
1773790085392239000,0.417239013671875,-0.9969635009765625,-0.0013885498046875,-0.0193939208984375
1773790085412204000,0.4372041015625,-0.995635986328125,-0.0012664794921875,-0.0212249755859375
1773790085432168000,0.45716796875,-0.9954833984375,-0.00103759765625,-0.0198974609375
1773790085452132000,0.477132080078125,-0.9966583251953125,-0.0014190673828125,-0.02081298828125
1773790085472096000,0.497095947265625,-0.995452880859375,-0.00225830078125,-0.0191192626953125
1773790085492060000,0.517059814453125,-0.995452880859375,-0.001678466796875,-0.0193634033203125
1773790085512023800,0.53702392578125,-0.9968719482421875,-0.00146484375,-0.020599365234375
1773790085531988000,0.556988037109375,-0.9964752197265625,-0.0023956298828125,-0.01995849609375
1773790085551952100,0.5769521484375,-0.9961090087890625,-0.00201416015625,-0.0208282470703125
1773790085571916000,0.596916015625,-0.995849609375,-0.002105712890625,-0.0180511474609375
1773790085591881000,0.616880859375,-0.9952239990234375,-0.0016021728515625,-0.0206298828125
1773790085611845000,0.63684521484375,-0.9964447021484375,-0.0013885498046875,-0.020172119140625
1773790085631809000,0.65680908203125,-0.9964599609375,-0.0014190673828125,-0.01995849609375
1773790085651773000,0.67677294921875,-0.995086669921875,-0.0012969970703125,-0.020721435546875
1773790085671736800,0.69673681640625,-0.99554443359375,-0.0015716552734375,-0.0193939208984375
1773790085691701000,0.716700927734375,-0.995574951171875,-0.0018768310546875,-0.0209503173828125
1773790085711665000,0.736664794921875,-0.995513916015625,-0.00091552734375,-0.019622802734375
1773790085731628800,0.75662890625,-0.9964141845703125,-0.0019683837890625,-0.0202484130859375
1773790085751594000,0.776593994140625,-0.9951171875,-0.000701904296875,-0.020050048828125
1773790085771558100,0.79655810546875,-0.996490478515625,-0.002838134765625,-0.0187835693359375
1773790085791522000,0.81652197265625,-0.9810638427734375,-0.000335693359375,-0.0196380615234375
1773790085811486000,0.83648583984375,-0.9998931884765625,0.0007476806640625,-0.0253448486328125
1773790085831450000,0.8564501953125,-0.9909515380859375,-0.0004425048828125,-0.020355224609375
1773790085851414000,0.8764140625,-1.008087158203125,0.0006866455078125,-0.0199737548828125
1773790085871378000,0.8963779296875,-0.83538818359375,0.001190185546875,-0.0220947265625
1773790085891341800,0.916341796875,-0.968963623046875,-0.034088134765625,-0.0092315673828125
1773790085911306000,0.936305908203125,-1.0583343505859375,0.0000457763671875,-0.0075225830078125
1773790085931271200,0.956271240234375,-1.0909881591796875,0.0260772705078125,-0.041229248046875
1773790085951235000,0.976235107421875,-1.0129852294921875,-0.01373291015625,-0.0410308837890625
1773790085971199000,0.996198974609375,-0.9463043212890625,-0.0172271728515625,-0.00347900390625
1773790085991163100,1.0161630859375,-0.9788360595703125,-0.0000762939453125,-0.01348876953125
1773790086011127000,1.036126953125,-0.970458984375,-0.0011138916015625,-0.0097198486328125
1773790086031091000,1.056091064453125,-1.022918701171875,-0.0007171630859375,-0.0321044921875
1773790086051054800,1.076054931640625,-0.990447998046875,0.008209228515625,-0.0316009521484375
1773790086071019000,1.09601904296875,-1.014862060546875,0.0143585205078125,-0.03369140625
1773790086090983000,1.11598291015625,-0.991363525390625,-0.0104217529296875,-0.0220947265625
1773790086110948000,1.135947998046875,-0.9956512451171875,-0.0079345703125,-0.0073394775390625
1773790086130912000,1.155912109375,-0.9928436279296875,-0.001312255859375,-0.015167236328125
1773790086150876200,1.175876220703125,-0.99041748046875,-0.017547607421875,-0.016265869140625
1773790086170840000,1.195840087890625,-0.996002197265625,-0.00225830078125,-0.03692626953125
1773790086190804000,1.215803955078125,-0.99200439453125,0.00640869140625,-0.020172119140625
1773790086210768000,1.235767822265625,-0.9978485107421875,0.0012969970703125,-0.007476806640625
1773790086230732000,1.25573193359375,-0.9957122802734375,-0.0042724609375,-0.0114593505859375
1773790086250695400,1.2756953125,-0.99212646484375,-0.0033416748046875,-0.0292816162109375
1773790086270659300,1.295659423828125,-0.9986419677734375,0.00213623046875,-0.0287933349609375
1773790086290623500,1.31562353515625,-0.9972686767578125,0.0009613037109375,-0.0195465087890625
1773790086310588700,1.335588623046875,-0.99786376953125,0.0026702880859375,-0.0220794677734375
1773790086330552600,1.355552490234375,-0.99432373046875,-0.0027313232421875,-0.0178985595703125
1773790086350516500,1.3755166015625,-0.9959259033203125,-0.0087890625,-0.0182342529296875
1773790086370480600,1.395480712890625,-0.9967193603515625,-0.0108184814453125,-0.01934814453125
1773790086390444500,1.415444580078125,-0.9948883056640625,-0.003662109375,-0.0263214111328125
1773790086410408400,1.435408447265625,-0.994293212890625,-0.0020751953125,-0.022552490234375
1773790086430372400,1.455372314453125,-0.9923858642578125,0.0033416748046875,-0.02374267578125
1773790086450336500,1.47533642578125,-0.9981689453125,0.0017547607421875,-0.021087646484375
1773790086470300400,1.495300537109375,-0.9957275390625,-0.0043182373046875,-0.020416259765625
1773790086490265600,1.515265625,-0.9961395263671875,-0.0015716552734375,-0.020416259765625
1773790086510229500,1.5352294921875,-0.995086669921875,-0.00103759765625,-0.019775390625
1773790086530193700,1.555193603515625,-0.997222900390625,-0.001617431640625,-0.02001953125
1773790086550157600,1.575157470703125,-0.9974365234375,-0.001678466796875,-0.018585205078125
1773790086570121500,1.59512158203125,-0.994903564453125,-0.0020751953125,-0.0164794921875
1773790086590085600,1.615085693359375,-0.99481201171875,-0.005218505859375,-0.0210418701171875
1773790086610049500,1.635049560546875,-0.996337890625,-0.0050048828125,-0.024017333984375
1773790086630013400,1.655013427734375,-0.9951934814453125,0.0008087158203125,-0.022674560546875
1773790086649977300,1.674977294921875,-0.99615478515625,0.0025787353515625,-0.0219573974609375
1773790086669941500,1.69494140625,-0.9951934814453125,0.0011749267578125,-0.018096923828125
1773790086689906700,1.71490673828125,-0.9966278076171875,0.0003204345703125,-0.0196685791015625
1773790086709870600,1.73487060546875,-0.9941864013671875,-0.0030059814453125,-0.016448974609375
1773790086729834500,1.75483447265625,-0.9962615966796875,-0.0074462890625,-0.0186920166015625
1773790086749798700,1.774798583984375,-0.995208740234375,-0.004180908203125,-0.023895263671875
1773790086769762600,1.794762451171875,-0.996124267578125,-0.0060577392578125,-0.027130126953125
1773790086789726500,1.8147265625,-0.9947357177734375,-0.0060272216796875,-0.0235443115234375
1773790086809690400,1.8346904296875,-0.994415283203125,-0.00396728515625,-0.02435302734375
1773790086829654500,1.854654541015625,-0.9950103759765625,-0.0047760009765625,-0.019683837890625
1773790086849618400,1.874618408203125,-0.99481201171875,-0.001953125,-0.0177154541015625
1773790086869582300,1.894582275390625,-0.9947509765625,0.0012359619140625,-0.0156707763671875
1773790086889547500,1.914547607421875,-0.996673583984375,0.0024566650390625,-0.017578125
1773790086909511700,1.93451171875,-0.9956817626953125,-0.0014190673828125,-0.018798828125
1773790086929475600,1.9544755859375,-0.9927215576171875,-0.0027313232421875,-0.0211334228515625
1773790086949439500,1.974439453125,-0.9969635009765625,-0.0026397705078125,-0.022369384765625
1773790086969403400,1.9944033203125,-0.996124267578125,-0.003692626953125,-0.021209716796875
1773790086989367600,2.014367431640625,-0.99627685546875,-0.004241943359375,-0.0205535888671875
1773790087009331500,2.03433154296875,-0.994903564453125,-0.0034942626953125,-0.0205841064453125
1773790087029295400,2.05429541015625,-0.9962310791015625,-0.0034332275390625,-0.019866943359375
1773790087049259500,2.074259521484375,-0.995025634765625,-0.00323486328125,-0.0215301513671875
1773790087069223400,2.094223388671875,-0.9946746826171875,-0.0005035400390625,-0.022613525390625
1773790087089187600,2.1141875,-0.9960784912109375,-0.0029144287109375,-0.0206756591796875
1773790087109152500,2.134152587890625,-0.99603271484375,-0.002685546875,-0.0216217041015625
1773790087129116400,2.154116455078125,-0.9962921142578125,-0.001800537109375,-0.021331787109375
1773790087149080600,2.17408056640625,-0.995208740234375,-0.00250244140625,-0.021026611328125
1773790087169044500,2.19404443359375,-0.9951934814453125,-0.0025634765625,-0.0206298828125
1773790087189008400,2.21400830078125,-0.9956512451171875,-0.0028839111328125,-0.021392822265625
1773790087208972500,2.23397265625,-0.9951934814453125,-0.0040435791015625,-0.0213623046875
1773790087228936400,2.2539365234375,-0.9955596923828125,-0.0027618408203125,-0.022064208984375
1773790087248901400,2.2739013671875,-0.996124267578125,-0.002593994140625,-0.0192413330078125
1773790087268865300,2.293865234375,-0.9960784912109375,-0.0015869140625,-0.0195770263671875
1773790087288829400,2.313829345703125,-0.995361328125,-0.001953125,-0.0193939208984375
1773790087308794600,2.333794677734375,-0.9957733154296875,-0.00250244140625,-0.0205078125
1773790087328758500,2.353758544921875,-0.9958038330078125,-0.0018768310546875,-0.0217132568359375
1773790087348722400,2.373722412109375,-0.99615478515625,-0.0016326904296875,-0.0219268798828125
1773790087368686300,2.393686279296875,-0.995941162109375,-0.0019378662109375,-0.021484375
1773790087388650500,2.413650390625,-0.9953765869140625,-0.002685546875,-0.02130126953125
1773790087408614400,2.433614501953125,-0.99530029296875,-0.003509521484375,-0.022613525390625
1773790087428578300,2.453578369140625,-0.995880126953125,-0.0033416748046875,-0.0197296142578125
1773790087448542500,2.47354248046875,-0.99603271484375,-0.0022430419921875,-0.0203094482421875
1773790087468506400,2.49350634765625,-0.99591064453125,-0.002593994140625,-0.0198822021484375
1773790087488470300,2.51347021484375,-0.9959259033203125,-0.0027618408203125,-0.019775390625
1773790087508434200,2.53343408203125,-0.9960174560546875,-0.003387451171875,-0.0216827392578125
1773790087528399400,2.5533994140625,-0.99505615234375,-0.002685546875,-0.0223236083984375
1773790087548363500,2.573363525390625,-0.9958038330078125,-0.0008697509765625,-0.0210418701171875
1773790087568327400,2.593327392578125,-0.99664306640625,-0.0008697509765625,-0.0194244384765625
1773790087588291300,2.613291259765625,-0.99566650390625,-0.002716064453125,-0.01983642578125
1773790087608255500,2.63325537109375,-0.9954071044921875,-0.0008087158203125,-0.0180206298828125
1773790087628219400,2.653219482421875,-0.9958038330078125,-0.0019378662109375,-0.0200958251953125
1773790087648183300,2.673183349609375,-0.995819091796875,-0.0023956298828125,-0.02069091796875
1773790087668147200,2.693147216796875,-0.995697021484375,-0.00274658203125,-0.021575927734375
1773790087688111400,2.713111328125,-0.99627685546875,-0.0027923583984375,-0.02099609375
1773790087708075300,2.7330751953125,-0.9962921142578125,-0.002655029296875,-0.02191162109375
1773790087728039400,2.753039306640625,-0.9952545166015625,-0.0019989013671875,-0.020660400390625
1773790087748003600,2.773003662109375,-0.99700927734375,-0.002685546875,-0.0194549560546875
1773790087767968500,2.792968505859375,-0.9958038330078125,-0.0019378662109375,-0.0207366943359375
1773790087787932400,2.812932373046875,-0.9958343505859375,-0.002593994140625,-0.0211181640625
1773790087807896300,2.832896240234375,-0.996063232421875,-0.0019683837890625,-0.0213775634765625
1773790087827860500,2.852860595703125,-0.9962921142578125,-0.0020294189453125,-0.0200042724609375
1773790087847824400,2.872824462890625,-0.994232177734375,-0.0026702880859375,-0.02142333984375
1773790087867788300,2.892788330078125,-0.995361328125,-0.002899169921875,-0.020477294921875
1773790087887752200,2.912752197265625,-0.99578857421875,-0.0021209716796875,-0.02056884765625
1773790087907716400,2.93271630859375,-0.995025634765625,-0.003448486328125,-0.0205230712890625
1773790087927680500,2.952680419921875,-0.9951019287109375,-0.0020599365234375,-0.019439697265625
1773790087947644400,2.97264453125,-0.99609375,-0.0021514892578125,-0.0209503173828125
1773790087967608600,2.992608642578125,-0.996490478515625,-0.0024871826171875,-0.0206298828125
1773790087987573500,3.012573486328125,-0.9949188232421875,-0.0014495849609375,-0.0209808349609375
1773790088007537400,3.032537353515625,-0.99566650390625,-0.0026092529296875,-0.019439697265625
1773790088027501300,3.052501220703125,-0.995513916015625,-0.003143310546875,-0.021087646484375
1773790088047465200,3.07246533203125,-0.9951171875,-0.0024566650390625,-0.0218353271484375
1773790088067429400,3.092429443359375,-0.9952239990234375,-0.0024261474609375,-0.0206146240234375
1773790088087393300,3.112393310546875,-0.99652099609375,-0.002349853515625,-0.0204925537109375
1773790088107357400,3.132357421875,-0.9958343505859375,-0.00128173828125,-0.0201568603515625
1773790088127321600,3.152321533203125,-0.9958648681640625,-0.00152587890625,-0.0200042724609375
1773790088147285500,3.172285400390625,-0.9952239990234375,-0.0019683837890625,-0.0219879150390625
1773790088167249400,3.19224951171875,-0.9959716796875,-0.00152587890625,-0.020050048828125
1773790088187213300,3.21221337890625,-0.9955596923828125,-0.0019378662109375,-0.0196075439453125
1773790088207177500,3.232177490234375,-0.996612548828125,-0.0023345947265625,-0.0201263427734375
1773790088227142400,3.252142333984375,-0.9948883056640625,-0.0023345947265625,-0.021026611328125
1773790088247106300,3.272106201171875,-0.9960479736328125,-0.00262451171875,-0.021575927734375
1773790088267070000,3.292070068359375,-0.9963836669921875,-0.0009002685546875,-0.0218353271484375
1773790088287034000,3.3120341796875,-0.9950408935546875,-0.0020599365234375,-0.0214080810546875
1773790088306998000,3.331998046875,-0.9969024658203125,-0.003173828125,-0.0212249755859375
1773790088326962000,3.3519619140625,-0.996826171875,-0.003204345703125,-0.0198516845703125
1773790088346926000,3.371926025390625,-0.99481201171875,-0.00225830078125,-0.0193634033203125
1773790088366890000,3.391889892578125,-0.995819091796875,-0.001953125,-0.0203857421875
1773790088386854000,3.41185400390625,-0.9963836669921875,-0.0029754638671875,-0.021942138671875
1773790088406818000,3.431818115234375,-0.99493408203125,-0.0013580322265625,-0.0220184326171875
1773790088426782200,3.4517822265625,-0.9962005615234375,-0.00238037109375,-0.02069091796875
1773790088446747100,3.4717470703125,-0.9951324462890625,-0.0019683837890625,-0.01983642578125
1773790088466711000,3.4917109375,-0.9957122802734375,-0.00274658203125,-0.0201263427734375
1773790088486675000,3.511675048828125,-0.995941162109375,-0.002105712890625,-0.021453857421875
1773790088506639000,3.53163916015625,-0.99542236328125,-0.0018463134765625,-0.020172119140625
1773790088526603000,3.55160302734375,-0.994903564453125,-0.0007476806640625,-0.018951416015625
1773790088546567000,3.57156689453125,-0.995452880859375,-0.0022735595703125,-0.0197296142578125
1773790088566530800,3.59153076171875,-0.99603271484375,-0.0023345947265625,-0.019866943359375
1773790088586495200,3.6114951171875,-0.996612548828125,-0.0021514892578125,-0.0216217041015625
1773790088606459100,3.631459228515625,-0.994781494140625,-0.0012664794921875,-0.0208892822265625
1773790088626423000,3.651423095703125,-0.996612548828125,-0.0017852783203125,-0.020294189453125
1773790088646387200,3.67138720703125,-0.9964752197265625,-0.0030670166015625,-0.0211944580078125
1773790088666351000,3.69135107421875,-0.9969329833984375,-0.003753662109375,-0.0205230712890625
1773790088686315000,3.71131494140625,-0.9953765869140625,-0.0028228759765625,-0.0208740234375
1773790088706280000,3.731280029296875,-0.9958953857421875,-0.0015411376953125,-0.0201873779296875
1773790088726244000,3.751244140625,-0.99462890625,-0.0018768310546875,-0.021881103515625
1773790088746208000,3.7712080078125,-0.9956817626953125,-0.001556396484375,-0.021575927734375
1773790088766172200,3.791172119140625,-0.99456787109375,-0.002288818359375,-0.01983642578125
1773790088786136000,3.811135986328125,-0.995880126953125,-0.0014801025390625,-0.0198516845703125
1773790088806100200,3.831100341796875,-0.9961395263671875,-0.0013885498046875,-0.019561767578125
1773790088826064100,3.851064208984375,-0.9958953857421875,-0.0010986328125,-0.019561767578125
1773790088846028000,3.871028076171875,-0.9952239990234375,-0.0019073486328125,-0.020538330078125
1773790088865992200,3.8909921875,-0.9953155517578125,-0.001861572265625,-0.01995849609375
1773790088885956000,3.9109560546875,-0.99627685546875,-0.002655029296875,-0.0198974609375
1773790088905920000,3.930919921875,-0.9961395263671875,-0.00250244140625,-0.020904541015625
1773790088925884000,3.9508837890625,-0.9958343505859375,-0.0031890869140625,-0.0222015380859375
1773790088945848000,3.97084814453125,-0.99505615234375,-0.00250244140625,-0.020477294921875
1773790088965813200,3.990813232421875,-0.9954071044921875,-0.0025482177734375,-0.0218353271484375
1773790088985777200,4.010777099609375,-0.997161865234375,-0.0016632080078125,-0.02069091796875
1773790089005741000,4.030740966796875,-0.99493408203125,-0.00091552734375,-0.019683837890625
1773790089025705200,4.050705322265625,-0.9955902099609375,-0.0023040771484375,-0.02020263671875
1773790089045669000,4.070669189453125,-0.995391845703125,-0.003509521484375,-0.021484375
1773790089065633000,4.090633056640625,-0.995758056640625,-0.00347900390625,-0.0218353271484375
1773790089085597000,4.110596923828125,-0.9957427978515625,-0.00250244140625,-0.0213775634765625
1773790089105561000,4.13056103515625,-0.9950103759765625,-0.0020751953125,-0.021209716796875
1773790089125525000,4.15052490234375,-0.9966888427734375,-0.0033111572265625,-0.020233154296875
1773790089145489000,4.170489013671875,-0.99609375,-0.0028839111328125,-0.0187225341796875
1773790089165453000,4.190453125,-0.9956512451171875,-0.001953125,-0.02093505859375
1773790089185417000,4.2104169921875,-0.9949798583984375,-0.0015411376953125,-0.020660400390625
1773790089205381000,4.230381103515625,-0.9951629638671875,-0.002593994140625,-0.0215911865234375
1773790089225345000,4.250344970703125,-0.9963226318359375,-0.00244140625,-0.0204925537109375
1773790089245310000,4.27031005859375,-0.9967041015625,-0.002105712890625,-0.019744873046875
1773790089265274000,4.290274169921875,-0.995574951171875,-0.0030364990234375,-0.02081298828125
1773790089285238000,4.310238037109375,-0.9953765869140625,-0.002777099609375,-0.020294189453125
1773790089305202000,4.330201904296875,-0.9960479736328125,-0.002777099609375,-0.0209197998046875
1773790089325166000,4.350166015625,-0.9965362548828125,-0.0018768310546875,-0.020416259765625
1773790089345130000,4.3701298828125,-0.995452880859375,-0.00341796875,-0.019256591796875
1773790089365094000,4.390093994140625,-0.9958953857421875,-0.0032501220703125,-0.0215606689453125
1773790089385058000,4.41005810546875,-0.99578857421875,-0.0011444091796875,-0.0191650390625
1773790089405022200,4.430022216796875,-0.9952239990234375,-0.0008544921875,-0.02191162109375
1773790089424986000,4.449986083984375,-0.9954986572265625,-0.0025787353515625,-0.019744873046875
1773790089444950000,4.469949951171875,-0.994964599609375,-0.003021240234375,-0.0212554931640625
1773790089464914200,4.4899140625,-0.9963226318359375,-0.0032196044921875,-0.0215301513671875
1773790089484878000,4.509878173828125,-0.995025634765625,-0.002593994140625,-0.021636962890625
1773790089504842000,4.529842041015625,-0.9964599609375,-0.0023651123046875,-0.0200958251953125
1773790089524807000,4.549806884765625,-0.99591064453125,-0.0009307861328125,-0.0207672119140625
1773790089544771000,4.56977099609375,-0.994049072265625,-0.00335693359375,-0.0214691162109375
1773790089564735000,4.58973486328125,-0.9958953857421875,-0.0031890869140625,-0.0203704833984375
1773790089584699100,4.60969921875,-0.996002197265625,-0.0011138916015625,-0.020355224609375
1773790089604663000,4.6296630859375,-0.9959716796875,-0.0014801025390625,-0.019989013671875
1773790089624627200,4.649627197265625,-0.9941253662109375,-0.0023040771484375,-0.019287109375
1773790089644591000,4.669591064453125,-0.996246337890625,-0.002197265625,-0.0205841064453125
1773790089664555000,4.689554931640625,-0.994110107421875,-0.0023956298828125,-0.021484375
1773790089684519200,4.709519287109375,-0.995574951171875,-0.0024261474609375,-0.02008056640625
1773790089704483000,4.729483154296875,-0.9957733154296875,-0.002105712890625,-0.0210723876953125
1773790089724447000,4.749447021484375,-0.994354248046875,-0.0028839111328125,-0.0206451416015625
1773790089744411000,4.769410888671875,-0.9964447021484375,-0.001617431640625,-0.01995849609375
1773790089764375000,4.789375,-0.9968109130859375,-0.001556396484375,-0.021453857421875
1773790089784339000,4.8093388671875,-0.9953765869140625,-0.0012359619140625,-0.0198822021484375
1773790089804304100,4.82930419921875,-0.9955902099609375,-0.0022430419921875,-0.020172119140625
1773790089824268000,4.84926806640625,-0.9954833984375,-0.0015106201171875,-0.02166748046875
1773790089844232200,4.869232177734375,-0.9952392578125,-0.0008544921875,-0.02142333984375
1773790089864196000,4.889196044921875,-0.997314453125,-0.0027923583984375,-0.0222320556640625
1773790089884160000,4.909159912109375,-0.995086669921875,-0.002471923828125,-0.0209197998046875
1773790089904124000,4.9291240234375,-0.9958038330078125,-0.0019073486328125,-0.0194854736328125
1773790089924088000,4.949088134765625,-0.99609375,-0.0027923583984375,-0.0211181640625
1773790089944052000,4.969052001953125,-0.996124267578125,-0.0020599365234375,-0.0207672119140625
1773790089964015900,4.989015869140625,-0.99554443359375,-0.0020751953125,-0.0202178955078125
1773790089983980000,5.00897998046875,-0.994720458984375,-0.002532958984375,-0.021026611328125
1773790090003944200,5.028944091796875,-0.9970703125,-0.0026397705078125,-0.02105712890625
1773790090023908000,5.048908203125,-0.9965362548828125,-0.003173828125,-0.0208587646484375
1773790090043872000,5.0688720703125,-0.9954071044921875,-0.0025177001953125,-0.0208892822265625
1773790090063836200,5.088836181640625,-0.9953460693359375,-0.001556396484375,-0.021636962890625
1773790090083800000,5.108800048828125,-0.995880126953125,-0.0019989013671875,-0.0190887451171875
1773790090103764000,5.128763916015625,-0.99566650390625,-0.0024871826171875,-0.0207061767578125
1773790090123729000,5.14872900390625,-0.99578857421875,-0.0022735595703125,-0.021148681640625
1773790090143693000,5.168693115234375,-0.99639892578125,-0.00244140625,-0.0209808349609375
1773790090163657000,5.188656982421875,-0.9949188232421875,-0.002655029296875,-0.021942138671875
1773790090183621000,5.20862109375,-0.995361328125,-0.003082275390625,-0.0217742919921875
1773790090203585000,5.2285849609375,-0.99652099609375,-0.0020751953125,-0.0206298828125
1773790090223549200,5.248549072265625,-0.99658203125,-0.002349853515625,-0.021759033203125
1773790090243513000,5.26851318359375,-0.9953155517578125,-0.0019989013671875,-0.02044677734375
1773790090263477500,5.2884775390625,-0.9959716796875,-0.0015411376953125,-0.0203094482421875
1773790090283441700,5.308441650390625,-0.9948883056640625,-0.0029144287109375,-0.0201416015625
1773790090303405600,5.328405517578125,-0.9948577880859375,-0.002716064453125,-0.0211639404296875
1773790090323369500,5.348369384765625,-0.99554443359375,-0.00128173828125,-0.0209503173828125
1773790090343333400,5.36833349609375,-0.9951934814453125,-0.0019073486328125,-0.0196685791015625
1773790090363297500,5.388297607421875,-0.995513916015625,-0.0019989013671875,-0.0195465087890625
1773790090383261400,5.408261474609375,-0.995361328125,-0.00250244140625,-0.019500732421875
1773790090403225600,5.4282255859375,-0.99566650390625,-0.002044677734375,-0.0198211669921875
1773790090423189800,5.448189697265625,-0.996337890625,-0.0026397705078125,-0.02099609375
1773790090443153700,5.468153564453125,-0.99542236328125,-0.0018157958984375,-0.0223236083984375
1773790090463118600,5.48811865234375,-0.9967041015625,-0.0022735595703125,-0.0214996337890625
1773790090483082500,5.50808251953125,-0.9960174560546875,-0.0020294189453125,-0.0212249755859375
1773790090503046400,5.52804638671875,-0.99578857421875,-0.00189208984375,-0.0198516845703125
1773790090523010600,5.548010498046875,-0.9967803955078125,-0.0018157958984375,-0.0199737548828125
1773790090542974500,5.567974365234375,-0.9964752197265625,-0.001922607421875,-0.020782470703125
1773790090562938400,5.5879384765625,-0.99652099609375,-0.0030517578125,-0.020599365234375
1773790090582902800,5.60790283203125,-0.995635986328125,-0.0026702880859375,-0.022613525390625
1773790090602866700,5.62786669921875,-0.9960174560546875,-0.002044677734375,-0.021575927734375
1773790090622830600,5.64783056640625,-0.997344970703125,-0.00384521484375,-0.0201873779296875
1773790090642794500,5.66779443359375,-0.995941162109375,-0.0038604736328125,-0.0194244384765625
1773790090662758700,5.687758544921875,-0.9954681396484375,-0.002166748046875,-0.021026611328125
1773790090682722600,5.70772265625,-0.9957427978515625,-0.0037994384765625,-0.0201568603515625
1773790090702686500,5.7276865234375,-0.99566650390625,-0.001800537109375,-0.0193023681640625
1773790090722650600,5.747650634765625,-0.994720458984375,-0.001708984375,-0.0205078125
1773790090742614500,5.767614501953125,-0.996063232421875,-0.00262451171875,-0.0212249755859375
1773790090762578400,5.787578369140625,-0.996185302734375,-0.0025634765625,-0.0203704833984375
1773790090782542600,5.80754248046875,-0.9954986572265625,-0.002105712890625,-0.0202484130859375
1773790090802506500,5.827506591796875,-0.9946441650390625,-0.00286865234375,-0.0206756591796875
1773790090822471700,5.8474716796875,-0.9951019287109375,-0.0019683837890625,-0.0203857421875
1773790090842435600,5.867435546875,-0.9955596923828125,-0.003326416015625,-0.02099609375
1773790090862399500,5.8873994140625,-0.9960784912109375,-0.0033721923828125,-0.0205535888671875
1773790090882363600,5.90736376953125,-0.9957733154296875,-0.0017547607421875,-0.020965576171875
1773790090902327600,5.92732763671875,-0.99603271484375,-0.00140380859375,-0.021026611328125
1773790090922291500,5.94729150390625,-0.996124267578125,-0.0009307861328125,-0.0208282470703125
1773790090942255600,5.967255615234375,-0.9950714111328125,-0.0016326904296875,-0.01983642578125
1773790090962219500,5.987219482421875,-0.9969482421875,-0.0019378662109375,-0.020721435546875
1773790090982183400,6.007183349609375,-0.9962005615234375,-0.0014190673828125,-0.0209503173828125
1773790091002147300,6.027147216796875,-0.9960479736328125,-0.0028533935546875,-0.0202789306640625
1773790091022111700,6.04711181640625,-0.995697021484375,-0.0035858154296875,-0.020843505859375
1773790091042075600,6.06707568359375,-0.9949493408203125,-0.001983642578125,-0.0203857421875
1773790091062039600,6.08703955078125,-0.99542236328125,-0.0018310546875,-0.0218963623046875
1773790091082003700,6.107003662109375,-0.99615478515625,-0.001922607421875,-0.02130126953125
1773790091101967600,6.126967529296875,-0.9963836669921875,-0.001708984375,-0.022125244140625
1773790091121931500,6.146931640625,-0.995849609375,-0.0021514892578125,-0.020477294921875
1773790091141895400,6.1668955078125,-0.9953155517578125,-0.00360107421875,-0.0220794677734375
1773790091161859600,6.186859619140625,-0.9965057373046875,-0.0029144287109375,-0.0219879150390625
1773790091181823500,6.206823486328125,-0.9970245361328125,-0.0012054443359375,-0.020355224609375
1773790091201787400,6.226787353515625,-0.9947357177734375,-0.0028839111328125,-0.0205230712890625
1773790091221751600,6.24675146484375,-0.99639892578125,-0.0022125244140625,-0.020751953125
1773790091241716700,6.266716796875,-0.9954986572265625,-0.001556396484375,-0.0208740234375
1773790091261679400,6.286679443359375,-0.99566650390625,-0.00311279296875,-0.021148681640625
1773790091281643300,6.306643310546875,-0.9967803955078125,-0.0025787353515625,-0.02117919921875
1773790091301607400,6.326607421875,-0.995330810546875,-0.001495361328125,-0.0203857421875
1773790091321571300,6.3465712890625,-0.9970855712890625,-0.0028533935546875,-0.021331787109375
1773790091341535200,6.36653515625,-0.9964447021484375,-0.0014190673828125,-0.020904541015625
1773790091361499400,6.38649951171875,-0.99554443359375,-0.0019683837890625,-0.020111083984375
1773790091381463600,6.406463623046875,-0.996612548828125,-0.0027618408203125,-0.02032470703125
1773790091401427500,6.426427490234375,-0.995819091796875,-0.003692626953125,-0.0216217041015625
1773790091421391400,6.446391357421875,-0.995452880859375,-0.0032501220703125,-0.02099609375
1773790091441355500,6.46635546875,-0.9953155517578125,-0.0030670166015625,-0.02117919921875
1773790091461319400,6.4863193359375,-0.9954833984375,-0.00115966796875,-0.0217132568359375
1773790091481283300,6.506283447265625,-0.9959716796875,-0.0029296875,-0.019805908203125
1773790091501247500,6.52624755859375,-0.9957275390625,-0.0023345947265625,-0.0209197998046875
1773790091521211400,6.54621142578125,-0.9968414306640625,-0.002166748046875,-0.0213623046875
1773790091541175300,6.56617529296875,-0.9954681396484375,-0.0020904541015625,-0.020355224609375
1773790091561139500,6.586139404296875,-0.9947967529296875,-0.0019073486328125,-0.0206298828125
1773790091581103400,6.606103271484375,-0.9959259033203125,-0.0035552978515625,-0.0211181640625
1773790091601067500,6.626067626953125,-0.9961090087890625,-0.00311279296875,-0.0216522216796875
1773790091621031400,6.646031494140625,-0.9973602294921875,-0.003143310546875,-0.0189361572265625
1773790091640995600,6.66599560546875,-0.9943389892578125,-0.002227783203125,-0.019927978515625
1773790091660959500,6.68595947265625,-0.99664306640625,-0.0026702880859375,-0.019683837890625
1773790091680923400,6.70592333984375,-0.9955902099609375,-0.0013275146484375,-0.0179901123046875
1773790091700888300,6.725888427734375,-0.9951019287109375,-0.0019989013671875,-0.0194091796875
1773790091720852500,6.7458525390625,-0.9961090087890625,-0.0023193359375,-0.0214385986328125
1773790091740816400,6.76581640625,-0.9960479736328125,-0.0021514892578125,-0.021728515625
1773790091760780300,6.7857802734375,-0.9956207275390625,-0.0027618408203125,-0.0212860107421875
1773790091780744200,6.805744140625,-0.997467041015625,-0.0040283203125,-0.021026611328125
1773790091800708600,6.82570849609375,-0.99493408203125,-0.00213623046875,-0.0208282470703125
1773790091820672500,6.845672607421875,-0.995330810546875,-0.0010528564453125,-0.0203704833984375
1773790091840636400,6.865636474609375,-0.9948272705078125,-0.0030059814453125,-0.0204315185546875
1773790091860600600,6.8856005859375,-0.99652099609375,-0.003173828125,-0.022430419921875
1773790091880564500,6.905564453125,-0.9964447021484375,-0.00250244140625,-0.0206298828125
1773790091900528400,6.9255283203125,-0.9962158203125,-0.0017547607421875,-0.02252197265625
1773790091920492300,6.9454921875,-0.9952392578125,-0.0016632080078125,-0.0212860107421875
1773790091940456400,6.96545654296875,-0.9955596923828125,-0.0025482177734375,-0.020416259765625
1773790091960420400,6.98542041015625,-0.99615478515625,-0.0028839111328125,-0.02032470703125
1773790091980384300,7.00538427734375,-0.9972381591796875,-0.00299072265625,-0.022216796875
1773790092000348400,7.025348388671875,-0.995025634765625,-0.0028076171875,-0.0196685791015625
1773790092020312300,7.045312255859375,-0.995208740234375,-0.0017547607421875,-0.0208587646484375
1773790092040276500,7.0652763671875,-0.9953155517578125,-0.00250244140625,-0.021209716796875
1773790092060240400,7.085240478515625,-0.99578857421875,-0.002166748046875,-0.02197265625
1773790092080204500,7.10520458984375,-0.9957733154296875,-0.0008087158203125,-0.0218048095703125
1773790092100168400,7.12516845703125,-0.9949188232421875,-0.0017852783203125,-0.0212249755859375
1773790092120132400,7.14513232421875,-0.996246337890625,-0.0021209716796875,-0.020843505859375
1773790092140096500,7.165096435546875,-0.9958038330078125,-0.00372314453125,-0.01995849609375
1773790092160060400,7.185060302734375,-0.99517822265625,-0.0023651123046875,-0.02130126953125
1773790092180024300,7.2050244140625,-0.996734619140625,-0.0025482177734375,-0.0206146240234375
1773790092199988500,7.224988525390625,-0.9967498779296875,-0.0020904541015625,-0.0202178955078125
1773790092219952400,7.244952392578125,-0.9949951171875,-0.0026092529296875,-0.020751953125
1773790092239916300,7.264916259765625,-0.9955902099609375,-0.0032196044921875,-0.0200958251953125
1773790092259880700,7.284880615234375,-0.9959259033203125,-0.0026092529296875,-0.0210723876953125
1773790092279844900,7.304844970703125,-0.994476318359375,-0.0012664794921875,-0.019805908203125
1773790092299808800,7.324808837890625,-0.995635986328125,-0.001556396484375,-0.0211181640625
1773790092319772700,7.344772705078125,-0.99432373046875,-0.0018768310546875,-0.02154541015625
1773790092339737600,7.364737548828125,-0.99609375,-0.0035552978515625,-0.0219268798828125
1773790092359701800,7.38470166015625,-0.9956207275390625,-0.00384521484375,-0.019500732421875
1773790092379666000,7.404666015625,-0.9959869384765625,-0.0028076171875,-0.020263671875
1773790092399629800,7.4246298828125,-0.995208740234375,-0.0031585693359375,-0.0211639404296875
1773790092419593700,7.44459375,-0.9951019287109375,-0.0019378662109375,-0.0206756591796875
1773790092439558000,7.464557861328125,-0.996063232421875,-0.0013427734375,-0.0213470458984375
1773790092459521800,7.484521728515625,-0.9954376220703125,-0.0029296875,-0.0201263427734375
1773790092479485700,7.504485595703125,-0.99517822265625,-0.002349853515625,-0.0197601318359375
1773790092499449900,7.524449951171875,-0.9962005615234375,-0.0031890869140625,-0.0208587646484375
1773790092519413800,7.544413818359375,-0.995269775390625,-0.0038604736328125,-0.0225677490234375
1773790092539377700,7.564377685546875,-0.997161865234375,-0.0017242431640625,-0.0225830078125
1773790092559341600,7.584341552734375,-0.9954681396484375,-0.0016021728515625,-0.0201873779296875
1773790092579305700,7.6043056640625,-0.996337890625,-0.002044677734375,-0.01873779296875
1773790092599270000,7.624269775390625,-0.9965362548828125,-0.003448486328125,-0.0211181640625
1773790092619233800,7.64423388671875,-0.995635986328125,-0.002044677734375,-0.021820068359375
1773790092639198000,7.664197998046875,-0.9951324462890625,-0.0023651123046875,-0.0221099853515625
1773790092659161900,7.684161865234375,-0.9951171875,-0.0016021728515625,-0.02093505859375
1773790092679125800,7.704125732421875,-0.9958953857421875,-0.0033416748046875,-0.0205078125
1773790092699089700,7.724089599609375,-0.996490478515625,-0.003082275390625,-0.0208282470703125
1773790092719053800,7.7440537109375,-0.996826171875,-0.0032806396484375,-0.0219268798828125
1773790092739017700,7.764017822265625,-0.9945220947265625,-0.00250244140625,-0.02044677734375
1773790092758981600,7.783981689453125,-0.995880126953125,-0.0020904541015625,-0.021209716796875
1773790092778945800,7.80394580078125,-0.99481201171875,-0.0035247802734375,-0.021759033203125
1773790092798909700,7.82390966796875,-0.995880126953125,-0.0035247802734375,-0.021514892578125
1773790092818873600,7.84387353515625,-0.9957427978515625,-0.0021820068359375,-0.0204010009765625
1773790092838837800,7.863837646484375,-0.996246337890625,-0.0025787353515625,-0.02215576171875
1773790092858802000,7.883802001953125,-0.99560546875,-0.001556396484375,-0.0219268798828125
1773790092878765800,7.903765869140625,-0.9952392578125,-0.00189208984375,-0.0213775634765625
1773790092898729700,7.923729736328125,-0.995086669921875,-0.003173828125,-0.0211639404296875
1773790092918694000,7.94369384765625,-0.9964599609375,-0.0025177001953125,-0.0205841064453125
1773790092938657800,7.96365771484375,-0.9973907470703125,-0.00103759765625,-0.01934814453125
1773790092958621700,7.98362158203125,-0.99462890625,-0.0025482177734375,-0.020965576171875
1773790092978585600,8.003585693359375,-0.9961395263671875,-0.002410888671875,-0.0213470458984375
1773790092998549800,8.0235498046875,-0.9949493408203125,-0.0017242431640625,-0.0222015380859375
1773790093018513700,8.043513671875,-0.9962310791015625,-0.0023651123046875,-0.0203094482421875
1773790093038477600,8.0634775390625,-0.9965667724609375,-0.0021820068359375,-0.02008056640625
1773790093058442000,8.08344189453125,-0.9964752197265625,-0.0017852783203125,-0.0206451416015625
1773790093078406000,8.103406005859375,-0.99603271484375,-0.0017547607421875,-0.02044677734375
1773790093098369800,8.123369873046874,-0.994537353515625,-0.0016632080078125,-0.0207672119140625
1773790093118333700,8.143333740234375,-0.9958953857421875,-0.001983642578125,-0.020599365234375
1773790093138297900,8.1632978515625,-0.9945220947265625,-0.00341796875,-0.0195770263671875
1773790093158261800,8.18326171875,-0.996185302734375,-0.00286865234375,-0.0217742919921875
1773790093178225700,8.2032255859375,-0.996612548828125,-0.0023651123046875,-0.0224609375
1773790093198189800,8.22318994140625,-0.9951629638671875,-0.0020294189453125,-0.0226593017578125
1773790093218153700,8.24315380859375,-0.994903564453125,-0.002532958984375,-0.020782470703125
1773790093238117600,8.26311767578125,-0.9962005615234375,-0.0010986328125,-0.0202178955078125
1773790093258081800,8.283081787109374,-0.99664306640625,-0.0023345947265625,-0.0201416015625
1773790093278046700,8.303046630859376,-0.99627685546875,-0.0039215087890625,-0.01910400390625
1773790093298009900,8.323009765625,-0.9961090087890625,-0.0008392333984375,-0.0203399658203125
1773790093317973800,8.342973876953126,-0.9962921142578125,-0.0024261474609375,-0.0199737548828125
1773790093337938700,8.362938720703125,-0.995849609375,-0.0025482177734375,-0.021026611328125
1773790093357902800,8.38290283203125,-0.99566650390625,-0.0020599365234375,-0.0198974609375
1773790093377866800,8.40286669921875,-0.9960784912109375,-0.004547119140625,-0.0204925537109375
1773790093397830700,8.42283056640625,-0.9966278076171875,-0.00286865234375,-0.0204620361328125
1773790093417794800,8.442794921875,-0.9945526123046875,-0.00201416015625,-0.020721435546875
1773790093437758700,8.4627587890625,-0.996246337890625,-0.0011138916015625,-0.020416259765625
1773790093457722600,8.48272265625,-0.996734619140625,-0.002532958984375,-0.0215301513671875
1773790093477686500,8.5026865234375,-0.9938812255859375,-0.001922607421875,-0.02154541015625
1773790093497651000,8.52265087890625,-0.9957122802734375,-0.00225830078125,-0.01947021484375
1773790093517614800,8.54261474609375,-0.995086669921875,-0.003173828125,-0.0211029052734375
1773790093537578800,8.562578857421874,-0.9952850341796875,-0.002471923828125,-0.0186004638671875
1773790093557543000,8.58254296875,-0.99493408203125,-0.00225830078125,-0.0191497802734375
1773790093577506800,8.6025068359375,-0.9953155517578125,-0.0019683837890625,-0.020477294921875
1773790093597470700,8.622470703125,-0.996429443359375,-0.0021820068359375,-0.0218353271484375
1773790093617434600,8.6424345703125,-0.994781494140625,-0.0022125244140625,-0.0224456787109375
1773790093637398800,8.662398681640624,-0.9951934814453125,-0.0022735595703125,-0.021575927734375
1773790093657362700,8.68236279296875,-0.9965057373046875,-0.003021240234375,-0.020416259765625
1773790093677326600,8.70232666015625,-0.9946136474609375,-0.0020599365234375,-0.01947021484375
1773790093697290800,8.722290771484374,-0.996673583984375,-0.001678466796875,-0.0204925537109375
1773790093717255000,8.7422548828125,-0.9960784912109375,-0.00164794921875,-0.0209808349609375
1773790093737218800,8.76221875,-0.996002197265625,-0.00238037109375,-0.0214385986328125
1773790093757182700,8.7821826171875,-0.9967498779296875,-0.0029144287109375,-0.02166748046875
1773790093777147000,8.80214697265625,-0.9965057373046875,-0.003143310546875,-0.0208587646484375
1773790093797110800,8.82211083984375,-0.9962921142578125,-0.0028228759765625,-0.0211944580078125
1773790093817074700,8.84207470703125,-0.996185302734375,-0.002044677734375,-0.021728515625
1773790093837038800,8.862038818359375,-0.9942626953125,-0.001739501953125,-0.0207672119140625
1773790093857002800,8.882002685546874,-0.9954833984375,-0.002227783203125,-0.019500732421875
1773790093876966700,8.901966552734375,-0.99517822265625,-0.0019378662109375,-0.022552490234375
1773790093896930800,8.921930908203125,-0.995697021484375,-0.00213623046875,-0.0213470458984375
1773790093916894700,8.941894775390624,-0.9953765869140625,-0.00323486328125,-0.0205230712890625
1773790093936858600,8.961858642578125,-0.9958343505859375,-0.00323486328125,-0.0213623046875
1773790093956822800,8.98182275390625,-0.9940338134765625,-0.0024566650390625,-0.0196533203125
1773790093976787000,9.001786865234376,-0.995758056640625,-0.002960205078125,-0.0196533203125
1773790093996750800,9.021750732421875,-0.99578857421875,-0.002410888671875,-0.0198516845703125
1773790094016714800,9.04171484375,-0.9961700439453125,-0.002197265625,-0.0216827392578125
1773790094036679000,9.061678955078126,-0.995941162109375,-0.0024566650390625,-0.0220947265625
1773790094056642800,9.081642822265625,-0.9946441650390625,-0.0019683837890625,-0.0215911865234375
1773790094076606700,9.101606689453124,-0.995880126953125,-0.001068115234375,-0.0197601318359375
1773790094096570600,9.121570556640625,-0.99615478515625,-0.00286865234375,-0.020843505859375
1773790094116534800,9.14153466796875,-0.995452880859375,-0.002685546875,-0.021087646484375
1773790094136498700,9.161498779296876,-0.9961395263671875,-0.002532958984375,-0.0205841064453125
1773790094156462600,9.181462646484375,-0.99560546875,-0.0016326904296875,-0.0203704833984375
1773790094176426800,9.2014267578125,-0.996002197265625,-0.000213623046875,-0.0204315185546875
1773790094196391000,9.221390869140626,-0.9956512451171875,-0.003082275390625,-0.0212554931640625
1773790094216354800,9.241354736328125,-0.9949493408203125,-0.001556396484375,-0.021087646484375
1773790094236318700,9.261318603515624,-0.995697021484375,-0.0030517578125,-0.0196990966796875
1773790094256282400,9.281282470703125,-0.99493408203125,-0.002349853515625,-0.0193939208984375
1773790094276246300,9.301246337890625,-0.9955902099609375,-0.001861572265625,-0.0218963623046875
1773790094296210200,9.321210205078126,-0.9958038330078125,-0.0030364990234375,-0.020843505859375
1773790094316174300,9.34117431640625,-0.9960174560546875,-0.0024871826171875,-0.02032470703125
1773790094336138200,9.36113818359375,-0.9950714111328125,-0.0027923583984375,-0.020721435546875
1773790094356102100,9.38110205078125,-0.995880126953125,-0.0024261474609375,-0.0194854736328125
1773790094376066300,9.40106640625,-0.995849609375,-0.0014190673828125,-0.0206451416015625
1773790094396030200,9.4210302734375,-0.9951934814453125,-0.0031890869140625,-0.0213623046875
1773790094415994000,9.440994140625,-0.9959259033203125,-0.00384521484375,-0.0201416015625
1773790094435958300,9.460958251953125,-0.9952545166015625,-0.0034332275390625,-0.0215911865234375
1773790094455922400,9.48092236328125,-0.9956512451171875,-0.002105712890625,-0.0217437744140625
1773790094475886300,9.50088623046875,-0.9964447021484375,-0.0005950927734375,-0.0212249755859375
1773790094495850200,9.520850341796875,-0.99627685546875,-0.002471923828125,-0.02166748046875
1773790094515814400,9.540814453125,-0.995147705078125,-0.0018310546875,-0.020172119140625
1773790094535778300,9.5607783203125,-0.9963226318359375,-0.00201416015625,-0.019775390625
1773790094555742200,9.5807421875,-0.996612548828125,-0.0012664794921875,-0.0189666748046875
1773790094575706400,9.600706298828126,-0.9967193603515625,-0.0026702880859375,-0.0206298828125
1773790094595670300,9.620670166015625,-0.99493408203125,-0.00238037109375,-0.0220184326171875
1773790094615634200,9.64063427734375,-0.996185302734375,-0.0006103515625,-0.02093505859375
1773790094635598000,9.66059814453125,-0.9954681396484375,-0.0019378662109375,-0.020904541015625
1773790094655562200,9.680562255859375,-0.99591064453125,-0.0030670166015625,-0.0228729248046875
1773790094675526100,9.700526123046876,-0.994720458984375,-0.0035552978515625,-0.0207061767578125
1773790094695489300,9.7204892578125,-0.9954071044921875,-0.00177001953125,-0.01953125
1773790094715453200,9.740453125,-0.9969024658203125,-0.001617431640625,-0.0209808349609375
1773790094735417300,9.760417236328125,-0.9954833984375,-0.001922607421875,-0.0199127197265625
1773790094755381200,9.78038134765625,-0.99591064453125,-0.002197265625,-0.0220947265625
1773790094775345400,9.800345458984374,-0.99566650390625,-0.003173828125,-0.0218353271484375
1773790094795309300,9.820309326171875,-0.99578857421875,-0.0017242431640625,-0.0211181640625
1773790094815273200,9.840273193359375,-0.9955291748046875,-0.002410888671875,-0.020751953125
1773790094835237400,9.8602373046875,-0.9959869384765625,-0.0017242431640625,-0.0203094482421875
1773790094855201300,9.880201171875,-0.994781494140625,-0.0017242431640625,-0.020599365234375
1773790094875165200,9.900165283203124,-0.9952239990234375,-0.000244140625,-0.0221405029296875
1773790094895129000,9.920129150390625,-0.99578857421875,-0.0018310546875,-0.0203704833984375
1773790094915093200,9.94009326171875,-0.99432373046875,-0.002716064453125,-0.0212554931640625
1773790094935057200,9.96005712890625,-0.99591064453125,-0.003509521484375,-0.0211334228515625
1773790094955021000,9.98002099609375,-0.995391845703125,-0.0018768310546875,-0.019744873046875
1773790094974985500,9.9999853515625,-0.994964599609375,-0.0030517578125,-0.020111083984375
1773790094994949400,10.019949462890626,-0.996002197265625,-0.0023040771484375,-0.01898193359375
1773790095014913300,10.039913330078125,-0.9968719482421875,-0.002349853515625,-0.0209808349609375
1773790095034877200,10.059877197265624,-0.9963836669921875,-0.00250244140625,-0.0207977294921875
1773790095054841300,10.07984130859375,-0.993804931640625,-0.0036163330078125,-0.0230865478515625
1773790095074805200,10.09980517578125,-0.9956207275390625,-0.0022125244140625,-0.021575927734375
1773790095094769200,10.11976904296875,-0.9967041015625,-0.00335693359375,-0.0228118896484375
1773790095114733300,10.1397333984375,-0.9961090087890625,-0.0032501220703125,-0.020416259765625
1773790095134697200,10.159697265625,-0.99493408203125,-0.001739501953125,-0.0200958251953125
1773790095154661000,10.1796611328125,-0.996795654296875,-0.0023193359375,-0.019989013671875
1773790095174625300,10.199625244140625,-0.99530029296875,-0.001983642578125,-0.021881103515625
1773790095194589400,10.21958935546875,-0.9960174560546875,-0.0041656494140625,-0.0216522216796875
1773790095214553300,10.23955322265625,-0.9956817626953125,-0.0023651123046875,-0.0224456787109375
1773790095234517200,10.259517333984375,-0.995452880859375,-0.0006256103515625,-0.021820068359375
1773790095254482000,10.27948193359375,-0.9958038330078125,-0.0023040771484375,-0.0222930908203125
1773790095274445800,10.29944580078125,-0.9967193603515625,-0.00238037109375,-0.0194549560546875
1773790095294409700,10.31940966796875,-0.9965972900390625,-0.0029296875,-0.0196685791015625
1773790095314373600,10.33937353515625,-0.995574951171875,-0.003387451171875,-0.0215606689453125
1773790095334337800,10.359337890625,-0.9951629638671875,-0.00238037109375,-0.019256591796875
1773790095354301700,10.3793017578125,-0.99688720703125,-0.0023040771484375,-0.02203369140625
1773790095374265900,10.399265869140624,-0.99560546875,-0.0030059814453125,-0.0211029052734375
1773790095394230000,10.41922998046875,-0.9953460693359375,-0.0016326904296875,-0.021270751953125
1773790095414194000,10.43919384765625,-0.9959564208984375,-0.0011749267578125,-0.020416259765625
1773790095434157800,10.45915771484375,-0.99627685546875,-0.00189208984375,-0.0197906494140625
1773790095454121700,10.479121826171875,-0.995208740234375,-0.0016632080078125,-0.0192108154296875
1773790095474086000,10.4990859375,-0.9960174560546875,-0.0011444091796875,-0.0211639404296875
1773790095494049800,10.5190498046875,-0.9944610595703125,-0.0021820068359375,-0.0204620361328125
1773790095514013700,10.539013671875,-0.9968109130859375,-0.003082275390625,-0.022064208984375
1773790095533977900,10.558977783203124,-0.9965057373046875,-0.0016937255859375,-0.0207061767578125
1773790095553941800,10.578941650390625,-0.996337890625,-0.002471923828125,-0.02130126953125
1773790095573905700,10.59890576171875,-0.9954376220703125,-0.0026092529296875,-0.0191802978515625
1773790095593869600,10.61886962890625,-0.9959564208984375,-0.0016632080078125,-0.0205230712890625
1773790095613834000,10.638833984375,-0.9969482421875,-0.0030059814453125,-0.0198516845703125
1773790095633798000,10.6587978515625,-0.9961700439453125,-0.0030517578125,-0.0216827392578125
1773790095653761000,10.678760986328125,-0.995391845703125,-0.003173828125,-0.020843505859375
1773790095673726000,10.698725830078125,-0.9958953857421875,-0.0030670166015625,-0.021514892578125
1773790095693689900,10.71868994140625,-0.99591064453125,-0.0018157958984375,-0.02215576171875
1773790095713652700,10.73865283203125,-0.99627685546875,-0.002044677734375,-0.021697998046875
1773790095733617000,10.758616943359375,-0.99652099609375,-0.00146484375,-0.0205078125
1773790095753580800,10.778580810546876,-0.994964599609375,-0.0027923583984375,-0.020538330078125
1773790095773544700,10.798544677734375,-0.997283935546875,-0.002197265625,-0.0195465087890625
1773790095793508900,10.8185087890625,-0.9958648681640625,-0.0033416748046875,-0.0206756591796875
1773790095813472800,10.83847265625,-0.9952850341796875,-0.0034942626953125,-0.0211944580078125
1773790095833436700,10.858436767578125,-0.9963531494140625,-0.0025482177734375,-0.0199432373046875
1773790095853400800,10.87840087890625,-0.9951324462890625,-0.0011749267578125,-0.0202789306640625
1773790095873364700,10.89836474609375,-0.9936370849609375,-0.0020904541015625,-0.0213470458984375
1773790095893329000,10.918328857421875,-0.99871826171875,-0.0030059814453125,-0.02227783203125
1773790095913292800,10.938292724609376,-0.994781494140625,-0.001556396484375,-0.02117919921875
1773790095933257000,10.958257080078125,-0.9959716796875,-0.0009613037109375,-0.0194854736328125
1773790095953220900,10.978220947265624,-0.9955902099609375,-0.00152587890625,-0.0200042724609375
1773790095973184800,10.998184814453126,-0.99493408203125,-0.0025482177734375,-0.0218505859375
1773790095993149000,11.01814892578125,-0.9966583251953125,-0.003875732421875,-0.021820068359375
1773790096013112800,11.03811279296875,-0.995849609375,-0.0043792724609375,-0.0216522216796875
1773790096033076700,11.05807666015625,-0.9949951171875,-0.0033111572265625,-0.0216064453125
1773790096053040600,11.07804052734375,-0.9960174560546875,-0.002593994140625,-0.0210113525390625
1773790096073004800,11.0980048828125,-0.995941162109375,-0.0025482177734375,-0.018310546875
1773790096092968700,11.11796875,-0.99505615234375,-0.002044677734375,-0.021697998046875
1773790096112932900,11.137932861328125,-0.9956817626953125,-0.0027313232421875,-0.01953125
1773790096132897000,11.15789697265625,-0.995086669921875,-0.00177001953125,-0.0209503173828125
1773790096152861000,11.17786083984375,-0.995574951171875,-0.001068115234375,-0.021881103515625
1773790096172824800,11.197824951171874,-0.99505615234375,-0.0023345947265625,-0.02117919921875
