time,seconds_elapsed,z,y,x
1773790084997948200,0.0229482421875,-0.0004063983797095716,-0.0025747441686689854,-0.0051992894150316715
1773790085017912000,0.042912109375,-0.0021254688035696745,-0.0036970002111047506,-0.004622981417924166
1773790085037876200,0.062876220703125,-0.0024197481106966734,-0.0018101505702361465,-0.00666429428383708
1773790085057840000,0.082840087890625,-0.0001739044237183407,-0.003169428091496229,-0.005425125360488892
1773790085077805000,0.10280517578125,-0.000598145998083055,-0.004269579891115427,-0.005514874123036861
1773790085097769000,0.12276904296875,-0.00008948221511673182,-0.002445314545184374,-0.007247526664286852
1773790085117733000,0.142733154296875,-0.00041625206358730793,-0.0022453111596405506,-0.003748931922018528
1773790085137697300,0.162697265625,-0.0011358382180333138,-0.003085538512095809,-0.005402488633990288
1773790085157661200,0.1826611328125,0.0022245384752750397,-0.0031649006996303797,-0.0041215079836547375
1773790085177625000,0.202625,0.001017061178572476,-0.002764627570286393,-0.007272027432918549
1773790085197589200,0.22258935546875,-0.0000045273736759554595,-0.004225105047225952,-0.005086104851216078
1773790085217553200,0.24255322265625,-0.0011206581257283688,-0.0038458709605038166,-0.00618226220831275
1773790085237517000,0.26251708984375,-0.0001752359967213124,-0.0031787490006536245,-0.0054845139384269714
1773790085257482000,0.28248193359375,0.0010735202813521028,-0.003022421384230256,-0.0062584285624325275
1773790085277446100,0.302446044921875,-0.0015100123127922416,-0.0038394792936742306,-0.005629123654216528
1773790085297410000,0.32241015625,0.00023222764139063656,-0.00267727579921484,-0.005088502075523138
1773790085317374000,0.3423740234375,-0.0004183826094958931,-0.0030091057997196913,-0.006905576679855585
1773790085337337900,0.362337890625,-0.00027537086862139404,-0.004608600400388241,-0.006901049055159092
1773790085357302000,0.382302001953125,-0.001948368619196117,-0.002831739140674472,-0.006883206311613321
1773790085377266000,0.402265869140625,0.00027750138542614877,-0.00344533147290349,-0.005179848056286573
1773790085397229800,0.422229736328125,0.0008378304773941636,-0.002767823403701186,-0.005257346201688051
1773790085417195000,0.442195068359375,-0.000005592638444795739,-0.0027422569692134857,-0.006478139199316502
1773790085437159200,0.4621591796875,-0.00038695731200277805,-0.0020271982066333294,-0.006142314523458481
1773790085457123000,0.482123046875,0.00014460964302998036,-0.0023273364640772343,-0.005360410548746586
1773790085477087000,0.5020869140625,-0.00031798143754713237,-0.0031427964568138123,-0.006884271278977394
1773790085497051000,0.52205078125,-0.00027377295191399753,-0.0023188143968582153,-0.006419549696147442
1773790085517015000,0.54201513671875,-0.00022370553051587194,-0.002692722249776125,-0.0049287122674286366
1773790085536979000,0.56197900390625,-0.0006522081675939262,-0.0020849888678640127,-0.006791593506932259
1773790085556942800,0.58194287109375,-0.00015233281010296196,-0.0026849990244954824,-0.006215285509824753
1773790085576908000,0.601907958984375,-0.0019955066964030266,-0.002055161399766803,-0.006587861571460962
1773790085596872200,0.6218720703125,0.0004777711001224816,-0.0023499734234064817,-0.007364972028881311
1773790085616836000,0.641836181640625,-0.00043223105603829026,-0.003641606541350484,-0.00628985371440649
1773790085636800000,0.661800048828125,-0.0009329052991233766,-0.0033241575583815575,-0.0057223341427743435
1773790085656764000,0.681763916015625,0.000056459015468135476,-0.0033995250705629587,-0.006423810962587595
1773790085676728000,0.70172802734375,0.00022264027211349458,-0.004195011220872402,-0.005665342323482037
1773790085696692000,0.72169189453125,-0.0021971079986542463,-0.00264771468937397,-0.0041068606078624725
1773790085716655900,0.74165576171875,-0.0005965480813756585,-0.0033571808598935604,-0.0054480284452438354
1773790085736620000,0.7616201171875,-0.000538491178303957,-0.0034639735240489244,-0.0043745082803070545
1773790085756585200,0.781585205078125,-0.0003195793251506984,-0.00042796999332495034,-0.005885053426027298
1773790085776549000,0.801549072265625,0.00014221279707271606,-0.0038096518255770206,-0.005766276270151138
1773790085796513000,0.821512939453125,-0.00006125270738266408,-0.005112203769385815,-0.00034194986801594496
1773790085816477200,0.841477294921875,0.0007821703911758959,-0.005245894659310579,-0.00003355582884978503
1773790085836441000,0.861441162109375,0.0023704797495156527,-0.008153000846505165,0.0024607607629150152
1773790085856405000,0.881405029296875,0.003439206164330244,-0.00887684803456068,-0.0007882956997491419
1773790085876369000,0.901368896484375,0.002846919232979417,-0.06477739661931992,0.026622556149959564
1773790085896333000,0.9213330078125,-0.00038296254933811724,-0.16577965021133423,0.05967211723327637
1773790085916297000,0.941296875,-0.005347893573343754,-0.03340775892138481,-0.08770668506622314
1773790085936262000,0.961261962890625,0.0009302421822212636,-0.004539091605693102,-0.049969423562288284
1773790085956226000,0.98122607421875,0.002079662401229143,-0.006549245677888393,0.011830028146505356
1773790085976190200,1.001190185546875,-0.0008711199625395238,-0.004039216320961714,0.036561738699674606
1773790085996154000,1.021154052734375,-0.004956408869475126,-0.0027627632953226566,0.018550248816609383
1773790086016118000,1.041117919921875,-0.004042145796120167,-0.004431500099599361,-0.008508799597620964
1773790086036082000,1.06108203125,-0.003975833300501108,-0.0032003207597881556,-0.015836486592888832
1773790086056046000,1.081046142578125,0.003820038167759776,-0.0068270135670900345,-0.01611771620810032
1773790086076010000,1.101010009765625,0.004618986509740353,-0.0024647556710988283,-0.010393518954515457
1773790086095974000,1.120973876953125,0.0028458540327847004,-0.00640676636248827,-0.006220345385372639
1773790086115938800,1.140938720703125,-0.002436526119709015,-0.0038903458043932915,-0.0020064255222678185
1773790086135903200,1.1609033203125,-0.007421697489917278,-0.0036842171102762222,0.00014434332842938602
1773790086155867100,1.1808671875,-0.0028037759475409985,-0.004008323885500431,-0.004090349189937115
1773790086175831000,1.2008310546875,0.0006780407857149839,-0.0037987329997122288,-0.003294330323114991
1773790086195795000,1.220794921875,0.0011329087428748608,-0.0038780951872467995,-0.0038748993538320065
1773790086215759000,1.240759033203125,-0.0025001754984259605,-0.0037358824629336596,-0.005885586142539978
1773790086235723000,1.260722900390625,-0.002843723399564624,-0.0028210864402353764,-0.006196643225848675
1773790086255686400,1.280686279296875,-0.0013156015193089843,-0.005148955620825291,-0.006646983791142702
1773790086275650600,1.300650634765625,0.0013166668359190226,-0.003139067906886339,-0.00520647969096899
1773790086295615500,1.320615478515625,0.0021901836153119802,-0.0043649207800626755,-0.004992095287889242
1773790086315579400,1.340579345703125,-0.000006391586794052273,-0.004276504274457693,-0.005041896365582943
1773790086335543300,1.360543212890625,-0.0015401060227304697,-0.003579022129997611,-0.005329518113285303
1773790086355507700,1.3805078125,-0.000532365869730711,-0.0029976540245115757,-0.004443484358489513
1773790086375471600,1.4004716796875,-0.0014178669080138206,-0.002959570847451687,-0.005708485841751099
1773790086395435500,1.420435546875,0.0004772384709212929,-0.0030013825744390488,-0.0057316552847623825
1773790086415399400,1.4403994140625,0.0011387676931917667,-0.004748682491481304,-0.004839496221393347
1773790086435363600,1.460363525390625,0.0003254382754676044,-0.0029526466969400644,-0.005030977539718151
1773790086455327500,1.480327392578125,0.0006729807937517762,-0.003837615018710494,-0.005627525504678488
1773790086475291400,1.50029150390625,0.0011400992516428232,-0.003947070799767971,-0.005738579668104649
1773790086495256300,1.52025634765625,-0.00003861583536490798,-0.00390259618870914,-0.006908506155014038
1773790086515220500,1.540220458984375,0.001817873795516789,-0.003358246060088277,-0.003644269658252597
1773790086535184600,1.5601845703125,0.0012362393317744136,-0.00375958438962698,-0.005307946354150772
1773790086555148500,1.5801484375,0.0000010652644277797663,-0.003290868131443858,-0.006591057404875755
1773790086575112700,1.60011279296875,-0.001178448786959052,-0.0017291904659941792,-0.007239803206175566
1773790086595076600,1.62007666015625,-0.0015366439474746585,-0.0026261431630700827,-0.007559116464108229
1773790086615040500,1.64004052734375,0.000699079770129174,-0.0025779400020837784,-0.006232063286006451
1773790086635004400,1.66000439453125,0.0012990899849683046,-0.0018333201296627522,-0.0059654805809259415
1773790086654968600,1.679968505859375,0.0010807107901200652,-0.002888997085392475,-0.007136738859117031
1773790086674932500,1.699932373046875,-0.00006764429417671636,-0.0009390306076966226,-0.005176119972020388
1773790086694897400,1.7198974609375,-0.0016234630020335317,-0.0014141384745016694,-0.006865895353257656
1773790086714861300,1.739861328125,-0.000010386328540334944,-0.002758235903456807,-0.006344448775053024
1773790086734825700,1.75982568359375,0.0003278351214248687,-0.0023957795929163694,-0.006913832388818264
1773790086754789600,1.77978955078125,-0.0007669904152862728,-0.002984072081744671,-0.005950567312538624
1773790086774753500,1.79975341796875,0.0010735202813521028,-0.0028032432310283184,-0.00563977612182498
1773790086794717400,1.819717529296875,0.0022218753583729267,-0.003425091505050659,-0.007309844717383385
1773790086814681600,1.839681640625,0.0006708502769470215,-0.0036434705834835768,-0.0060933125205338
1773790086834645500,1.8596455078125,-0.00032437301706522703,-0.0015875103417783976,-0.005416869651526213
1773790086854609400,1.879609375,-0.00014434332842938602,-0.0024141555186361074,-0.006316485349088907
1773790086874573600,1.899573486328125,0.00021917815320193768,-0.0028873991686850786,-0.005075985100120306
1773790086894538500,1.91953857421875,-0.0008165251929312944,-0.0025398568250238895,-0.006137787364423275
1773790086914502700,1.939502685546875,-0.0012399677652865648,-0.002680205274373293,-0.006487726699560881
1773790086934466600,1.959466552734375,0.0003755057114176452,-0.0014671353856101632,-0.006740993354469538
1773790086954430500,1.979430419921875,-0.0000881506348378025,-0.0023158849216997623,-0.005144162103533745
1773790086974394600,1.99939453125,-0.0022453111596405506,-0.002930276095867157,-0.0054301852360367775
1773790086994358500,2.019358642578125,-0.001008805469609797,-0.004486361052840948,-0.00580702256411314
1773790087014322400,2.039322509765625,-0.0013233247445896268,-0.0033164345659315586,-0.006912766955792904
1773790087034286600,2.05928662109375,-0.0007014766451902688,-0.0025515747256577015,-0.006954045966267586
1773790087054250500,2.07925048828125,-0.0012809804175049067,-0.0025217472575604916,-0.0068120998330414295
1773790087074214400,2.09921435546875,-0.0017145430902019143,-0.004165450111031532,-0.006117014680057764
1773790087094179300,2.119179443359375,-0.0004191815387457609,-0.003347327234223485,-0.003915645647794008
1773790087114143500,2.1391435546875,-0.00012889699428342283,-0.00253479671664536,-0.006190251559019089
1773790087134107600,2.159107666015625,-0.00030839405371807516,-0.002939597237855196,-0.004159591160714626
1773790087154071600,2.179071533203125,0.0011065434664487839,-0.0031585090328007936,-0.005908489227294922
1773790087174035500,2.199035400390625,-0.0002210423699580133,-0.0021015002857893705,-0.006227003410458565
1773790087193999600,2.21899951171875,0.0010178601369261742,-0.0025012409314513206,-0.004990497604012489
1773790087213963500,2.238963623046875,-0.0008157262345775962,-0.0007664577569812536,-0.005393700208514929
1773790087233927400,2.258927490234375,0.0011917646043002605,-0.0025939189363271,-0.00637960247695446
1773790087253892400,2.278892333984375,-0.0011566109023988247,-0.002354234457015991,-0.004570250865072012
1773790087273856500,2.2988564453125,-0.0004114583716727793,-0.003163036424666643,-0.006897320970892906
1773790087293820400,2.3188203125,-0.0014745922526344657,-0.002376871183514595,-0.006225138902664185
1773790087313785300,2.338785400390625,-0.0007613977650180459,-0.002694586291909218,-0.004798217210918665
1773790087333749200,2.358749267578125,-0.0006503439508378506,-0.0014809839194640517,-0.006820355542004108
1773790087353713200,2.378713134765625,-0.0005227785441093147,-0.003010703483596444,-0.00535375252366066
1773790087373677600,2.398677490234375,-0.000474575295811519,-0.003518834710121155,-0.005340703297406435
1773790087393641500,2.418641357421875,-0.0009331716573797166,-0.0026996464002877474,-0.005510612856596708
1773790087413605400,2.43860546875,0.00044474788592197,-0.0030418625101447105,-0.005557484459131956
1773790087433569500,2.458569580078125,-0.0002759034978225827,-0.0034229608718305826,-0.005554554983973503
1773790087453533400,2.478533447265625,-0.001002413802780211,-0.0032519858796149492,-0.006042446009814739
1773790087473497300,2.498497314453125,-0.00026072346372529864,-0.0037436054553836584,-0.005373992491513491
1773790087493461200,2.518461181640625,-0.00032384038786403835,-0.003379285102710128,-0.004531102254986763
1773790087513425400,2.53842529296875,-0.000022636868379777297,-0.0028485171496868134,-0.005860818549990654
1773790087533390300,2.558390380859375,0.0007574030314572155,-0.0031076427549123764,-0.006804376374930143
1773790087553354500,2.5783544921875,-0.00020053602929692715,-0.003979295492172241,-0.006563893053680658
1773790087573318400,2.598318359375,-0.0007131945458240807,-0.0042706448584795,-0.005638711154460907
1773790087593282600,2.618282470703125,-0.00017470336752012372,-0.003771568648517132,-0.004588892683386803
1773790087613246500,2.63824658203125,-0.00012170646368758753,-0.0027483822777867317,-0.005221926141530275
1773790087633210400,2.65821044921875,-0.0009289105655625463,-0.0034224283881485462,-0.006487726699560881
1773790087653174500,2.678174560546875,-0.001121457084082067,-0.0031153657473623753,-0.005905826110392809
1773790087673138400,2.698138427734375,0.00020133497309871018,-0.0030477214604616165,-0.005429386626929045
1773790087693102300,2.718102294921875,-0.00035206988104619086,-0.0037907434161752462,-0.0065050371922552586
1773790087713066200,2.738066162109375,0.0015981629258021712,-0.0015624766238033772,-0.005660548806190491
1773790087733030400,2.758030517578125,0.0003483414766378701,-0.0012876383261755109,-0.0051870387978851795
1773790087752995600,2.77799560546875,-0.0004426173691172153,-0.0034285534638911486,-0.0065100970678031445
1773790087772959500,2.79795947265625,0.00031611722079105675,-0.002001898130401969,-0.00646615494042635
1773790087792923400,2.81792333984375,0.000264718197286129,-0.0041305627673864365,-0.00552206439897418
1773790087812887600,2.837887451171875,0.00010572749306447804,-0.002520682057365775,-0.005879194475710392
1773790087832851500,2.8578515625,-0.00036671728594228625,-0.004071706905961037,-0.0070427292957901955
1773790087852815400,2.8778154296875,-0.000713993504177779,-0.002397910226136446,-0.006253368686884642
1773790087872779300,2.897779296875,-0.0000977380113909021,-0.0024975123815238476,-0.006998520810157061
1773790087892743400,2.917743408203125,-0.0011590076610445976,-0.002195776207372546,-0.005953496787697077
1773790087912707300,2.937707275390625,-0.000010386328540334944,-0.002983273006975651,-0.00558278476819396
1773790087932671200,2.957671142578125,0.0007281082216650248,-0.0021819279063493013,-0.005668005906045437
1773790087952635400,2.977635498046875,0.0015736619243398309,-0.0030751521699130535,-0.00606481684371829
1773790087972599300,2.997599365234375,-0.0010910971323028207,-0.0033222935162484646,-0.00592526700347662
1773790087992564500,3.017564453125,-0.0010274475207552314,-0.003166232258081436,-0.004861867055296898
1773790088012528400,3.0375283203125,0.0006050702068023384,-0.003326820908114314,-0.0038874163292348385
1773790088032492300,3.0574921875,0.0003203782835043967,-0.0020485036075115204,-0.004875448998063803
1773790088052456400,3.07745654296875,0.0004673847579397261,-0.002712962217628956,-0.004868258256465197
1773790088072420400,3.09742041015625,0.0008295746520161629,-0.0041284323669970036,-0.005621400196105242
1773790088092384300,3.11738427734375,-0.00005725796290789731,-0.003621100215241313,-0.0073447320610284805
1773790088112348400,3.137348388671875,0.0005075985100120306,-0.002531334524974227,-0.005631520412862301
1773790088132312300,3.157312255859375,-0.001107076066546142,-0.0017350494163110852,-0.00538411270827055
1773790088152276200,3.177276123046875,-0.0009206547983922064,-0.0024029703345149755,-0.005344964098185301
1773790088172240400,3.197240478515625,-0.00001704423084447626,-0.0021672805305570364,-0.006199039984494448
1773790088192204500,3.21720458984375,-0.0002615224220789969,-0.003825897118076682,-0.005299424286931753
1773790088212169500,3.23716943359375,-0.0013816480059176683,-0.002130528911948204,-0.005566006526350975
1773790088232133400,3.25713330078125,-0.0011078750248998404,-0.0028759476263076067,-0.007501591928303242
1773790088252097000,3.277096923828125,-0.0007635282818228006,-0.0033539850264787674,-0.005310343112796545
1773790088272061200,3.297061279296875,-0.000014647385796706658,-0.0036695697344839573,-0.005879460833966732
1773790088292025000,3.317025146484375,0.0003294330381322652,-0.003381948219612241,-0.004328968469053507
1773790088311989000,3.336989013671875,-0.00028282770654186606,-0.004122573416680098,-0.005364139098674059
1773790088331953200,3.356953125,0.0007286408799700439,-0.002159290947020054,-0.006061088293790817
1773790088351917000,3.3769169921875,-0.0014626081101596355,-0.0023840616922825575,-0.004994226153939962
1773790088371881000,3.396880859375,-0.0002735066518653184,-0.0035055188927799463,-0.005018726922571659
1773790088391844900,3.416844970703125,-0.0009105347562581301,-0.003591539105400443,-0.006113286130130291
1773790088411809000,3.43680908203125,-0.0019286612514406443,-0.003498861100524664,-0.0060110208578407764
1773790088431773000,3.45677294921875,0.0017675400013104081,-0.003865312086418271,-0.005471464246511459
1773790088451737000,3.476737060546875,0.0000900148443179205,-0.003139067906886339,-0.005411809775978327
1773790088471702000,3.496701904296875,-0.0018660769565030932,-0.0041156490333378315,-0.005344697739928961
1773790088491666200,3.516666259765625,-0.0003885551996063441,-0.003171824850142002,-0.005757221486419439
1773790088511630000,3.536630126953125,0.0007747135823592544,-0.001728924224153161,-0.004729507956653833
1773790088531594000,3.556593994140625,-0.0020058928057551384,-0.0015036207623779774,-0.006951382849365473
1773790088551558100,3.57655810546875,-0.0002692455891519785,-0.0027262780349701643,-0.0057159424759447575
1773790088571522000,3.59652197265625,-0.0007526093395426869,-0.0025989788118749857,-0.006649380549788475
1773790088591486000,3.61648583984375,-0.001490304945036769,-0.004041879437863827,-0.007080812472850084
1773790088611449900,3.636449951171875,0.00017310546536464244,-0.0028032432310283184,-0.006559898145496845
1773790088631414000,3.6564140625,0.000006125270374468528,-0.003915112931281328,-0.0049436260014772415
1773790088651378200,3.676378173828125,0.001377653214149177,-0.003341201925650239,-0.005624329671263695
1773790088671342000,3.696342041015625,0.000294545607175678,-0.0033486587926745415,-0.0065103634260594845
1773790088691306200,3.71630615234375,0.0007342335302382708,-0.005351089406758547,-0.005654689855873585
1773790088711271200,3.736271240234375,-0.00013928332191426307,-0.003736148588359356,-0.004803809802979231
1773790088731235000,3.756235107421875,-0.000040746363083599135,-0.0041585261933505535,-0.004610730800777674
1773790088751199000,3.776198974609375,0.001347825862467289,-0.002805107505992055,-0.005401955917477608
1773790088771163000,3.796162841796875,-0.0007968177669681609,-0.002948119305074215,-0.0038059235084801912
1773790088791127000,3.816126953125,0.00041039311327040195,-0.003561977995559573,-0.007284278050065041
1773790088811091000,3.836091064453125,-0.000254331884207204,-0.0018913770327344537,-0.006563093978911638
1773790088831055000,3.85605517578125,-0.0008412926108576357,-0.002008556155487895,-0.005314604379236698
1773790088851019300,3.876019287109375,-0.00037683729897253215,-0.003424026072025299,-0.004947354551404715
1773790088870983200,3.895983154296875,0.0008167914929799736,-0.0024000408593565226,-0.005629123654216528
1773790088890947000,3.915947021484375,-0.0010807107901200652,-0.003638410707935691,-0.005575061310082674
1773790088910911000,3.935910888671875,-0.0010279801208525896,-0.003481284249573946,-0.005941246170550585
1773790088930875100,3.955875244140625,-0.0006282397080212831,-0.002882871776819229,-0.00558012118563056
1773790088950839000,3.975839111328125,0.000040746363083599135,-0.002709766384214163,-0.00663446681573987
1773790088970804000,3.995803955078125,0.0003909520455636084,-0.002454102970659733,-0.006476541515439749
1773790088990767900,4.015767822265625,0.0009086705395020545,-0.0020042951218783855,-0.005793440621346235
1773790089010732000,4.03573193359375,-0.0007001450285315514,-0.002770220162346959,-0.005587578285485506
1773790089030696200,4.0556962890625,-0.0019244002178311348,-0.00418462511152029,-0.0057588196359574795
1773790089050660000,4.07566015625,0.00039547940832562745,-0.002414954360574484,-0.005091697443276644
1773790089070624000,4.0956240234375,0.0016290555940940976,-0.002555835759267211,-0.00705711031332612
1773790089090588200,4.115588134765625,0.000041811628761934116,-0.002061286708340049,-0.005041896365582943
1773790089110552000,4.135552001953125,0.0008881642133928835,-0.003224555402994156,-0.005037102848291397
1773790089130516000,4.155515869140625,-0.0011209244839847088,-0.003829359309747815,-0.005423527676612139
1773790089150480100,4.175480224609375,-0.00025592977181077003,-0.0031166973058134317,-0.00558145297691226
1773790089170444000,4.195444091796875,-0.00017896443023346364,-0.002877545543015003,-0.005542038008570671
1773790089190408000,4.215407958984375,-0.00021944446780253202,-0.0028602350503206253,-0.005107410252094269
1773790089210372000,4.2353720703125,-0.0008703210623934865,-0.003059173235669732,-0.00401551416143775
1773790089230337000,4.2553369140625,-0.001689775730483234,-0.0020327907986938953,-0.008104798384010792
1773790089250301200,4.27530126953125,-0.0010490191634744406,-0.003153448924422264,-0.0049585397355258465
1773790089270265000,4.29526513671875,-0.000322775129461661,-0.003790477057918906,-0.005812615156173706
1773790089290229000,4.31522900390625,0.00011584750609472394,-0.003138801548629999,-0.003937750123441219
1773790089310193200,4.335193115234375,0.00009134642459684983,-0.0030178942251950502,-0.00498197553679347
1773790089330157000,4.355156982421875,-0.00045087316539138556,-0.003433347214013338,-0.005892510060220957
1773790089350121000,4.375120849609375,-0.00021198761533014476,-0.0022101574577391148,-0.005482915788888931
1773790089370085000,4.395085205078125,0.0005424859118647873,-0.0029981867410242558,-0.005633118096739054
1773790089390049000,4.415049072265625,-0.0007323693134821951,-0.0025856629945337772,-0.006090116687119007
1773790089410013000,4.435012939453125,-0.000859934720210731,-0.0015765913994982839,-0.003900465788319707
1773790089429976800,4.454976806640625,-0.00011211907985853031,-0.0025270734913647175,-0.005422728601843119
1773790089449941200,4.474941162109375,-0.000474575295811519,-0.002907373011112213,-0.005572664551436901
1773790089469905200,4.4949052734375,-0.0008641957538202405,-0.002808036981150508,-0.0062826634384691715
1773790089489869000,4.514869140625,-0.0010040117194876075,-0.002998985582962632,-0.005428321193903685
1773790089509834000,4.534833984375,-0.0009651295840740204,-0.004042678512632847,-0.006031793542206287
1773790089529798100,4.554798095703125,0.00031878036679700017,-0.002560629276558757,-0.005628590937703848
1773790089549762000,4.574761962890625,0.000028229507734067738,-0.0027949875220656395,-0.005927397403866053
1773790089569726000,4.594725830078125,0.0006090649403631687,-0.0021963089238852262,-0.0043505397625267506
1773790089589689900,4.61468994140625,-0.001213602488860488,-0.0026080335956066847,-0.00612367270514369
1773790089609654000,4.634654052734375,0.0005816344055347145,-0.0031353395897895098,-0.005334045272320509
1773790089629618200,4.6546181640625,-0.0002969424531329423,-0.004007791168987751,-0.005155080929398537
1773790089649582000,4.67458203125,-0.0010572749888524413,-0.0024652881547808647,-0.005617139395326376
1773790089669546200,4.694546142578125,-0.0010295780375599861,-0.00210682675242424,-0.00552392890676856
1773790089689510100,4.71451025390625,-0.001160339335910976,-0.003236006945371628,-0.0057074204087257385
1773790089709474000,4.73447412109375,-0.000925182132050395,-0.0038333539851009846,-0.005640575196594
1773790089729438000,4.75443798828125,-0.0009246495319530368,-0.00355931487865746,-0.005781456362456083
1773790089749402000,4.774402099609375,-0.0014245248166844249,-0.0033571808598935604,-0.005382515024393797
1773790089769366000,4.794365966796875,-0.00000852211542223813,-0.0020362529903650284,-0.006548712961375713
1773790089789330000,4.814329833984375,-0.0008080030675046146,-0.0026581010315567255,-0.005585181526839733
1773790089809294800,4.834294921875,-0.0008964200387708843,-0.0033870083279907703,-0.0057188719511032104
1773790089829259300,4.85425927734375,-0.00009906959166983142,-0.0035441347863525152,-0.006136988289654255
1773790089849223200,4.87422314453125,-0.000027696874894900247,-0.003358778776600957,-0.00538304727524519
1773790089869187000,4.89418701171875,0.0005339637864381075,-0.0037593182642012835,-0.005624862387776375
1773790089889151000,4.91415087890625,-0.00017976337403524667,-0.0015912387752905488,-0.005471197888255119
1773790089909115100,4.934115234375,-0.00044767739018425345,-0.004318315535783768,-0.006228601094335318
1773790089929079000,4.9540791015625,-0.0011491540353745222,-0.003602724289521575,-0.00538411270827055
1773790089949043000,4.97404296875,-0.0005677859298884869,-0.002956907730549574,-0.006229133810847998
1773790089969007000,4.994007080078125,0.0002671150432433933,-0.003534547286108136,-0.00628958735615015
1773790089988971000,5.013970947265625,-0.0003866909828502685,-0.003284742822870612,-0.006204099860042334
1773790090008935000,5.033934814453125,-0.00045912896166555583,-0.0036426717415452003,-0.0064893243834376335
1773790090028899000,5.053899169921875,0.0004878911131527275,-0.0027273432351648808,-0.005199822131544352
1773790090048863000,5.073863037109375,-0.0015805860748514533,-0.0031758195254951715,-0.006105829495936632
1773790090068827100,5.0938271484375,0.0001411475386703387,-0.004095675423741341,-0.005733252968639135
1773790090088791000,5.113791015625,0.0003225088003091514,-0.0029547770973294973,-0.005556951742619276
1773790090108755200,5.133755126953125,-0.0004801679460797459,-0.0038312235847115517,-0.006072007119655609
1773790090128720100,5.15372021484375,0.00016192019393201917,-0.003334810258820653,-0.0052022188901901245
1773790090148684000,5.17368408203125,-0.000055393749789800495,-0.0014213290996849537,-0.00634844321757555
1773790090168648000,5.19364794921875,0.0003323625132907182,-0.0032229574862867594,-0.004332430195063353
1773790090188612000,5.213612060546875,-0.0006093312404118478,-0.0032645028550177813,-0.006470682565122843
1773790090208576000,5.233575927734375,0.0007403587806038558,-0.0033625070936977863,-0.006996923126280308
1773790090228540000,5.253539794921875,-0.0003091930120717734,-0.002525475574657321,-0.0059625511057674885
1773790090248504000,5.273504150390625,-0.0010490191634744406,-0.0026988473255187273,-0.005723133217543364
1773790090268468700,5.29346875,-0.0005584649043157697,-0.0024053670931607485,-0.005675196181982756
1773790090288432600,5.3134326171875,0.0015195996966212988,-0.0033534523099660873,-0.007142597809433937
1773790090308396500,5.333396484375,0.0006554039428010583,-0.003625893732532859,-0.006363623309880495
1773790090328360400,5.3533603515625,0.0007747135823592544,-0.0036709012929350138,-0.0056861150078475475
1773790090348324600,5.37332470703125,0.0010839065071195364,-0.0035025894176214933,-0.0042733084410429
1773790090368288500,5.39328857421875,-0.0020157466642558575,-0.0034996599424630404,-0.004156928043812513
1773790090388252400,5.41325244140625,-0.0008096009842120111,-0.003040797309949994,-0.006176136899739504
1773790090408216600,5.433216552734375,-0.001973136095330119,-0.002778742229565978,-0.00555056007578969
1773790090428180500,5.453180419921875,-0.0010463559301570058,-0.002621083054691553,-0.005138303153216839
1773790090448145700,5.473145751953125,-0.0005336974863894284,-0.0038778288289904594,-0.006074670236557722
1773790090468109600,5.493109619140625,-0.000027696874894900247,-0.0036823528353124857,-0.005532717332243919
1773790090488073500,5.513073486328125,0.00015526228526141495,-0.0027049726340919733,-0.006415288895368576
1773790090508037600,5.53303759765625,-0.0013933659065514803,-0.0027262780349701643,-0.005621400196105242
1773790090528001500,5.55300146484375,0.0004370247188489884,-0.0035888757556676865,-0.006325540132820606
1773790090547965400,5.57296533203125,0.00005352953667170368,-0.003727892879396677,-0.005517803598195314
1773790090567929600,5.5929296875,0.0002918824611697346,-0.0017204020405188203,-0.006383330561220646
1773790090587893500,5.6128935546875,-0.0009108011145144701,-0.0014767227694392204,-0.004053330980241299
1773790090607857400,5.632857421875,-0.0016769925132393837,-0.003970507066696882,-0.004358529578894377
1773790090627821600,5.652821533203125,-0.0003685815026983619,-0.0026525084394961596,-0.005750829819589853
1773790090647785700,5.67278564453125,-0.001449025934562087,-0.002945189829915762,-0.005161738954484463
1773790090667749600,5.69274951171875,0.0008468852029182017,-0.002560895634815097,-0.0071037160232663155
1773790090687713500,5.712713623046875,-0.0003376888344064355,-0.004328702110797167,-0.005891445092856884
1773790090707677700,5.732677734375,-0.00009720538218971342,-0.0033622407354414463,-0.005952697712928057
1773790090727641600,5.7526416015625,-0.0009321063989773393,-0.00347489258274436,-0.005600361619144678
1773790090747605500,5.77260546875,-0.0012937636347487569,-0.0018421085551381111,-0.005886651109904051
1773790090767569700,5.792569580078125,-0.0008317052270285785,-0.0029316076543182135,-0.006074137985706329
1773790090787533600,5.812533447265625,0.0004988100845366716,-0.003123888047412038,-0.006124471314251423
1773790090807497500,5.83249755859375,-0.0001030643325066194,-0.002798982197418809,-0.006040848325937986
1773790090827462400,5.85246240234375,-0.0006274407496675849,-0.00236222380772233,-0.004766792058944702
1773790090847426600,5.872426513671875,-0.001386441639624536,-0.0031337416730821133,-0.004614459350705147
1773790090867390700,5.892390625,-0.0009350358741357923,-0.0010724549647420645,-0.005164934787899256
1773790090887354600,5.912354736328125,0.0006258428329601884,-0.004244545940309763,-0.0051867724396288395
1773790090907318500,5.932318603515625,-0.0008607336785644293,-0.0026557042729109526,-0.005418733693659306
1773790090927282700,5.95228271484375,-0.0006450176006183028,-0.0029672940727323294,-0.005528189707547426
1773790090947246600,5.97224658203125,-0.000987766426987946,-0.0032804817892611027,-0.005603024736046791
1773790090967210500,5.99221044921875,-0.00009747169679030776,-0.0037936728913336992,-0.005139101762324572
1773790090987174400,6.01217431640625,-0.000934236915782094,-0.002275671111419797,-0.006440855097025633
1773790091007138600,6.032138671875,-0.00020532972121145576,-0.003263703780248761,-0.006849383935332298
1773790091027102500,6.0521025390625,-0.0003270361921750009,-0.0032581111881881952,-0.004860801622271538
1773790091047066400,6.07206640625,-0.0009169263648800552,-0.0024112260434776545,-0.007016630377620459
1773790091067030800,6.09203076171875,-0.0007193197961896658,-0.0025933862198144197,-0.005152950529009104
1773790091086994700,6.11199462890625,-0.0012381036067381501,-0.0026764769572764635,-0.004908472299575806
1773790091106958600,6.13195849609375,-0.0006322344415821135,-0.003026682650670409,-0.006442186422646046
1773790091126922500,6.151922607421875,0.00006870955257909372,-0.0038157771341502666,-0.005803826730698347
1773790091146886700,6.17188671875,0.0018309232546016574,-0.0029342707712203264,-0.0062184808775782585
1773790091166850600,6.1918505859375,-0.0001893507578643039,-0.00261841993778944,-0.006403304636478424
1773790091186814500,6.211814453125,-0.0000023968450477696024,-0.0021726067643612623,-0.005393433850258589
1773790091206778600,6.231778564453125,-0.0026256104465574026,-0.003120425855740905,-0.005020058713853359
1773790091226742500,6.251742431640625,-0.00018722022650763392,-0.002645051572471857,-0.006677343975752592
1773790091246707500,6.27170751953125,-0.00031878036679700017,-0.003881557146087289,-0.005306348204612732
1773790091266670600,6.291670654296875,0.0003246393462177366,-0.004710599314421415,-0.00484295841306448
1773790091286634500,6.311634521484375,0.0006058691651560366,-0.0032402679789811373,-0.005857090000063181
1773790091306598400,6.331598388671875,-0.00009667274571256712,-0.003695668652653694,-0.006301038898527622
1773790091326562300,6.351562255859375,0.0005747101386077702,-0.003136138431727886,-0.005903429351747036
1773790091346526500,6.3715263671875,-0.00020879182557109743,-0.0020964404102414846,-0.006077333353459835
1773790091366490400,6.391490478515625,-0.0008551410282962024,-0.0021321268286556005,-0.005338572897017002
1773790091386454300,6.411454345703125,-0.001281779375858605,-0.0023001721128821373,-0.005474926438182592
1773790091406418400,6.43141845703125,-0.0007158577209338546,-0.0019771307706832886,-0.004834436345845461
1773790091426382600,6.451382568359375,-0.0005608617211692035,-0.0034906051587313414,-0.0057492321357131
1773790091446346500,6.471346435546875,-0.0010349043877795339,-0.003500725142657757,-0.0064893243834376335
1773790091466310400,6.491310302734375,0.000054861116950633004,-0.0034232272300869226,-0.005562544334679842
1773790091486274600,6.511274658203125,-0.0006130596739239991,-0.0026466494891792536,-0.006527673918753862
1773790091506238500,6.531238525390625,0.0000045273736759554595,-0.00466505903750658,-0.006258694920688868
1773790091526202400,6.551202392578125,-0.0015299860388040543,-0.002157160546630621,-0.004172374494373798
1773790091546166500,6.57116650390625,-0.0005845638806931674,-0.005066397599875927,-0.005785451270639896
1773790091566130400,6.59113037109375,-0.0019214707426726818,-0.002129729837179184,-0.006442719139158726
1773790091586094300,6.61109423828125,0.0015686018159613013,-0.0037891454994678497,-0.005371063016355038
1773790091606058200,6.631058349609375,-0.0003150519623886794,-0.0036671727430075407,-0.0060299295000731945
1773790091626022400,6.6510224609375,-0.00046046054922044277,-0.0025180187076330185,-0.004737497307360172
1773790091645986300,6.670986328125,0.00015233281010296196,-0.0031382690649479628,-0.007274956908077002
1773790091665950500,6.690950439453125,0.0019481023773550987,-0.002931075170636177,-0.005258944351226091
1773790091685914600,6.71091455078125,-0.0005230448441579938,-0.003775030840188265,-0.0057494984939694405
1773790091705879600,6.730879638671875,-0.0000029294772048160667,-0.0027350664604455233,-0.00561048137024045
1773790091725843500,6.750843505859375,-0.0008194546680897474,-0.003221093211323023,-0.005150287412106991
1773790091745807400,6.770807373046875,-0.00004926848123432137,-0.0035092474427074194,-0.005206213798373938
1773790091765771300,6.790771240234375,-0.0011944277212023735,-0.0029550434555858374,-0.006443251855671406
1773790091785735400,6.8107353515625,-0.0009829727932810783,-0.0021699436474591494,-0.005702094174921513
1773790091805699300,6.83069921875,-0.0007651261985301971,-0.0034346787724643946,-0.004550276789814234
1773790091825663200,6.850663330078125,-0.0011014834744855762,-0.002590989461168647,-0.007444334216415882
1773790091845627600,6.870627685546875,-0.0008383630774915218,-0.0033273533917963505,-0.006991863250732422
1773790091865591600,6.890591552734375,-0.000055393749789800495,-0.0027395938523113728,-0.0054490938782691956
1773790091885555500,6.910555419921875,0.0010743191232904792,-0.0032730249222368,-0.006833404768258333
1773790091905519400,6.930519287109375,0.0000021305288555595325,-0.0031196267809718847,-0.00541367381811142
1773790091925483500,6.9504833984375,0.0014849785948172212,-0.0037465349305421114,-0.005747634451836348
1773790091945447400,6.970447509765625,-0.0014708638191223145,-0.003108175238594413,-0.006842459551990032
1773790091965411300,6.990411376953125,-0.0005962817813269794,-0.0030149647500365973,-0.0054395063780248165
1773790091985375500,7.01037548828125,-0.0004293015517760068,-0.0027379959356039762,-0.005447496194392443
1773790092005339400,7.03033935546875,0.00023169501218944788,-0.004000866785645485,-0.006322077941149473
1773790092025303300,7.05030322265625,0.000749679864384234,-0.002216282533481717,-0.004796885885298252
1773790092045267500,7.070267333984375,-0.0006913566030561924,-0.0030485205352306366,-0.0052296495996415615
1773790092065231400,7.0902314453125,-0.00040320257539860904,-0.0037087181117385626,-0.0051713259890675545
1773790092085195500,7.110195556640625,0.0007880293414928019,-0.0034903388004750013,-0.005784918554127216
1773790092105159400,7.130159423828125,-0.0003802994033321738,-0.004265851341187954,-0.006172941066324711
1773790092125123600,7.15012353515625,-0.0010359697043895721,-0.0030240193009376526,-0.006628874223679304
1773790092145087500,7.17008740234375,-0.0002561961009632796,-0.0032871398143470287,-0.004942027851939201
1773790092165051400,7.190051513671875,0.001294029993005097,-0.0034551850985735655,-0.005711148958653212
1773790092185015600,7.210015625,-0.00022184131375979632,-0.0032661007717251778,-0.006648581475019455
1773790092204979500,7.2299794921875,-0.0010181264951825142,-0.003519633784890175,-0.00800413079559803
1773790092224943400,7.249943359375,0.0003515372518450022,-0.003454652614891529,-0.004963599611073732
1773790092244907300,7.2699072265625,0.0008338357438333333,-0.002478337613865733,-0.005585181526839733
1773790092264872000,7.289871826171875,-0.0004932174342684448,-0.003227484878152609,-0.006642456166446209
1773790092284835800,7.3098359375,0.00025752768851816654,-0.002775280037894845,-0.005527124274522066
1773790092304800800,7.32980078125,-0.00036618465674109757,-0.003999269101768732,-0.005997438915073872
1773790092324764700,7.3497646484375,0.00009507485083304346,-0.0043830303475260735,-0.007227020338177681
1773790092344728800,7.369728759765625,-0.00002157160452043172,-0.0029862024821341038,-0.006483998149633408
1773790092364692700,7.389692626953125,-0.0006428870838135481,-0.0024082965683192015,-0.005872802808880806
1773790092384656600,7.40965673828125,-0.0005411543534137309,-0.003142263740301132,-0.004715392831712961
1773790092404620500,7.42962060546875,-0.0008932242053560913,-0.002525209216400981,-0.006877879612147808
1773790092424585000,7.4495849609375,0.0005400890368036926,-0.0027137610595673323,-0.005507683381438255
1773790092444548900,7.469548828125,0.00003861583536490798,-0.003594468580558896,-0.0059899818152189255
1773790092464512800,7.4895126953125,-0.00001917476038215682,-0.003909786697477102,-0.007136738859117031
1773790092484477000,7.509476806640625,-0.000565389113035053,-0.0029824741650372744,-0.0073018549010157585
1773790092504440800,7.52944091796875,-0.000711064029019326,-0.004505269695073366,-0.005376123357564211
1773790092524404700,7.54940478515625,0.000251402409048751,-0.0027292075101286173,-0.004837365821003914
1773790092544368600,7.56936865234375,0.0013483584625646472,-0.0019089538836851716,-0.004889830015599728
1773790092564332800,7.589332763671875,-0.0010381002211943269,-0.0026165556628257036,-0.005084773525595665
1773790092584296700,7.609296630859375,-0.001008805469609797,-0.0029230855870991945,-0.005923402961343527
1773790092604260600,7.629260498046875,-0.0008804410463199019,-0.0018522285390645266,-0.006098638754338026
1773790092624224800,7.649224853515625,-0.0015968313673511147,-0.0016050871927291155,-0.005387042183429003
1773790092644188700,7.669188720703125,0.0002894856152124703,-0.004680771846324205,-0.005969741847366095
1773790092664152800,7.68915283203125,0.0008567389450035989,-0.0030924626626074314,-0.0033478597179055214
1773790092684116700,7.70911669921875,-0.0010820423485711217,-0.0036400086246430874,-0.006346845533698797
1773790092704081000,7.729080810546875,0.0002146507758880034,-0.0025486452504992485,-0.0059654805809259415
1773790092724044800,7.749044921875,-0.0007773766992613673,-0.0027270768769085407,-0.004805141594260931
1773790092744008700,7.7690087890625,-0.0014024205738678575,-0.0037886130157858133,-0.005514607764780521
1773790092763972900,7.788972900390625,0.0007161240209825337,-0.0038567897863686085,-0.0060416474007070065
1773790092783936800,7.808936767578125,-0.0007515440811403096,-0.0026501116808503866,-0.006403570994734764
1773790092803900700,7.828900634765625,-0.0015851134667173028,-0.003117762738838792,-0.00583764910697937
1773790092823864600,7.848864501953125,-0.000901480030734092,-0.001845038030296564,-0.006075469311326742
1773790092843828700,7.868828857421875,-0.0006402239087037742,-0.0027864654548466206,-0.00497984467074275
1773790092863792600,7.888792724609375,0.0006543386843986809,-0.0025630262680351734,-0.005608350969851017
1773790092883756800,7.9087568359375,0.00028309403569437563,-0.002924417145550251,-0.006785734556615353
1773790092903721000,7.928720947265625,-0.0008114652009680867,-0.0036136433482170105,-0.007386011071503162
1773790092923684900,7.948684814453125,-0.000791491474956274,-0.002718554809689522,-0.005083441734313965
1773790092943648800,7.968648681640625,-0.000011984225238848012,-0.0023821976501494646,-0.006475742440670729
1773790092963612700,7.98861279296875,-0.000017843178284238093,-0.0030178942251950502,-0.006577741354703903
1773790092983576800,8.008576904296875,-0.0005046690348535776,-0.0020367854740470648,-0.00504056503996253
1773790093003540700,8.028540771484375,0.0006311691831797361,-0.0034991272259503603,-0.0046181874349713326
1773790093023504600,8.048504638671876,0.0014823154779151082,-0.003665574826300144,-0.005966546013951302
1773790093043468800,8.06846875,-0.00001944107498275116,-0.0024410535115748644,-0.0065258098766207695
1773790093063432700,8.0884326171875,-0.0013688647886738181,-0.003471963107585907,-0.007222226355224848
1773790093083396600,8.108396728515626,0.0005233111442066729,-0.0029196233954280615,-0.0043779704719781876
1773790093103360800,8.12836083984375,-0.002269812161102891,-0.0028453213162720203,-0.004971588961780071
1773790093123325000,8.148324951171874,-0.0016815199051052332,-0.00404454255476594,-0.005751628894358873
1773790093143288800,8.168288818359375,-0.0013640711549669504,-0.002011485630646348,-0.00552126532420516
1773790093163252700,8.188252685546875,0.0003278351214248687,-0.0038450718857347965,-0.005249889567494392
1773790093183217000,8.208216796875,0.001463406952098012,-0.0034019220620393753,-0.004028563853353262
1773790093203180800,8.228180908203125,-0.00037444045301526785,-0.0030751521699130535,-0.0056799896992743015
1773790093223144700,8.248144775390625,-0.0005379585199989378,-0.0028061727061867714,-0.005286374595016241
1773790093243108900,8.26810888671875,-0.0006202502408996224,-0.003855990944430232,-0.005014998838305473
1773790093263072800,8.28807275390625,-0.00020160128769930452,-0.0036096484400331974,-0.006104764062911272
1773790093283037700,8.30803759765625,-0.000966993800830096,-0.0031515848822891712,-0.007407316006720066
1773790093303001600,8.328001708984376,-0.0014415690675377846,-0.002770752878859639,-0.007137804292142391
1773790093322965800,8.3479658203125,0.0000023968450477696024,-0.0029406624380499125,-0.005577191710472107
1773790093342930000,8.367929931640624,0.0009369000908918679,-0.003510046284645796,-0.005630454979836941
1773790093362893800,8.387893798828125,-0.0006804376607760787,-0.0032855418976396322,-0.005596633069217205
1773790093382857700,8.407857666015625,-0.0007592672482132912,-0.0028767467010766268,-0.006280798930674791
1773790093402822000,8.42782177734375,-0.0001853560097515583,-0.0029768813401460648,-0.0060946443118155
1773790093422785800,8.447785888671875,-0.00019627496658358723,-0.0019185412675142288,-0.007254983298480511
1773790093442749700,8.467749755859375,-0.0018668759148567915,-0.0031212246976792812,-0.006468818057328463
1773790093462713600,8.487713623046876,-0.0008018778171390295,-0.002871153876185417,-0.006327404174953699
1773790093482677800,8.507677734375,-0.00010652644414221868,-0.0024104269687086344,-0.007220895029604435
1773790093502641700,8.5276416015625,-0.001773132593370974,-0.004372644238173962,-0.006404103245586157
1773790093522605600,8.54760546875,-0.0018820558907464147,-0.0014583469601348042,-0.005458947736769915
1773790093542570000,8.567570068359375,-0.0011385013349354267,-0.0024402544368058443,-0.005554821342229843
1773790093562534000,8.587533935546874,0.00013315805699676275,-0.003358778776600957,-0.004972121678292751
1773790093582497800,8.607497802734375,-0.0008157262345775962,-0.0029055087361484766,-0.005757487844675779
1773790093602461700,8.627461669921875,-0.001579787116497755,-0.0035262915771454573,-0.005711948033422232
1773790093622425900,8.64742578125,-0.0017619474092498422,-0.0025449167005717754,-0.005465605296194553
1773790093642389800,8.6673896484375,-0.0006940197781659663,-0.005050418432801962,-0.006719954311847687
1773790093662353700,8.687353759765625,-0.0009616674506105483,-0.0020655477419495583,-0.006324208807200193
1773790093682317800,8.70731787109375,-0.0018290589796379209,-0.0038490667939186096,-0.007472829893231392
1773790093702281700,8.72728173828125,0.000051399008953012526,-0.0024775387719273567,-0.0056392434053123
1773790093722245600,8.74724560546875,0.0002713761059567332,-0.0019507654942572117,-0.006019276566803455
1773790093742209800,8.767209716796875,0.0000977380113909021,-0.005242698825895786,-0.006639793049544096
1773790093762173700,8.787173583984375,0.0003174488083459437,-0.0035926043055951595,-0.004250404890626669
1773790093782137900,8.807137939453124,-0.000319845654303208,-0.0024770060554146767,-0.006461361423134804
1773790093802101800,8.827101806640625,-0.00012889699428342283,-0.003195260651409626,-0.005921006202697754
1773790093822066000,8.84706591796875,-0.0004423510399647057,-0.0027417242527008057,-0.006189985200762749
1773790093842029800,8.86702978515625,-0.0017835189355537295,-0.0023851271253079176,-0.00509915454313159
1773790093861993700,8.88699365234375,0.0010093380697071552,-0.003775030840188265,-0.0052203284576535225
1773790093881958000,8.9069580078125,-0.0004873584839515388,-0.003571032779291272,-0.006047506351023912
1773790093901921800,8.926921875,0.0007235808880068362,-0.0024972460232675076,-0.005198223982006311
1773790093921885700,8.9468857421875,-0.0003294330381322652,-0.0026517093647271395,-0.004478105343878269
1773790093941849600,8.966849609375,0.00010652644414221868,-0.0026873957831412554,-0.005969741847366095
1773790093961813800,8.986813720703125,0.0005858954391442239,-0.002996056107804179,-0.006506635341793299
1773790093981777700,9.006777587890625,0.00005299690383253619,-0.0027297399938106537,-0.005343632772564888
1773790094001741600,9.026741455078126,-0.0010700580896809697,-0.0018836538074538112,-0.004741225857287645
1773790094021706000,9.0467060546875,-0.00028628981090150774,-0.003614442190155387,-0.005540973041206598
1773790094041670000,9.066669921875,-0.0007355650886893272,-0.003318032482638955,-0.0044016726315021515
1773790094061633800,9.0866337890625,-0.0014359764754772186,-0.002231728984043002,-0.005701827816665173
1773790094081597700,9.10659765625,0.0019446401856839657,-0.00192200334277004,-0.005007541738450527
1773790094101561900,9.126561767578124,0.0008546083699911833,-0.0021315941121429205,-0.005519933998584747
1773790094121525800,9.14652587890625,0.00034408041392453015,-0.0026429209392517805,-0.005677592940628529
1773790094141489700,9.16648974609375,-0.00048363005043938756,-0.0012506204657256603,-0.006231796927750111
1773790094161453800,9.186453857421874,0.0004165183927398175,-0.0034639735240489244,-0.004815794061869383
1773790094181417700,9.206417724609375,0.0010490191634744406,-0.0029294772539287806,-0.0062829297967255116
1773790094201381600,9.226381591796875,0.00022690132027491927,-0.002499643014743924,-0.005373193882405758
1773790094221345500,9.246345458984376,0.0010697918478399515,-0.0030834078788757324,-0.006350839976221323
1773790094241309700,9.266309814453125,-0.00017363809456583112,-0.0026288062799721956,-0.005339105147868395
1773790094261273000,9.286273193359374,-0.00009747169679030776,-0.003230147995054722,-0.005042162723839283
1773790094281237200,9.3062373046875,0.000002663161012605997,-0.002002164488658309,-0.006183859892189503
1773790094301201400,9.326201416015625,-0.0007925567333586514,-0.003385410411283374,-0.00751970149576664
1773790094321165300,9.346165283203124,0.0009094694978557527,-0.0031009847298264503,-0.00498091010376811
1773790094341129200,9.366129150390625,-0.0005102616851218045,-0.002698048483580351,-0.0065465825609862804
1773790094361093400,9.38609326171875,-0.002139583695679903,-0.0023379891645163298,-0.007458448875695467
1773790094381057300,9.406057373046876,-0.0011004181578755379,-0.0023150858469307423,-0.004740426782518625
1773790094401021200,9.426021240234375,-0.0007661914569325745,-0.0014948323369026184,-0.004507932811975479
1773790094420985300,9.4459853515625,-0.0010154632618650794,-0.00440966198220849,-0.00669332267716527
1773790094440949200,9.46594921875,-0.0014109427575021982,-0.0031883365008980036,-0.006178000941872597
1773790094460913200,9.4859130859375,-0.000291616132017225,-0.0030160299502313137,-0.006396380253136158
1773790094480877000,9.505876953125,-0.0009299758239649236,-0.0016050871927291155,-0.005234709475189447
1773790094500841500,9.525841552734375,0.0010032127611339092,-0.0027358653023838997,-0.0049036783166229725
1773790094520805400,9.545805419921875,0.0003249056462664157,-0.001936650718562305,-0.006149238906800747
1773790094540769300,9.565769287109376,-0.0009768474847078323,-0.0024551681708544493,-0.006579605862498283
1773790094560733400,9.5857333984375,-0.0009856359101831913,-0.0018777948571369052,-0.006185724399983883
1773790094580697300,9.605697265625,0.001669269404374063,-0.0024226775858551264,-0.005842708982527256
1773790094600661200,9.6256611328125,-0.0009677927591837943,-0.002290584845468402,-0.00567040266469121
1773790094620625200,9.645625244140625,0.0000857537888805382,-0.0031137678306549788,-0.00535348616540432
1773790094640589300,9.66558935546875,-0.0011403656098991632,-0.003309244057163596,-0.006048038601875305
1773790094660553200,9.68555322265625,-0.000556600687559694,-0.0037412086967378855,-0.00609277980402112
1773790094680516400,9.705516357421875,-0.000642620783764869,-0.0030466562602669,-0.004579305648803711
1773790094700480300,9.725480224609376,0.0008335694437846541,-0.00290444353595376,-0.00520674604922533
1773790094720445200,9.745445068359375,0.00012303804396651685,-0.0020937772933393717,-0.004465588368475437
1773790094740408000,9.765407958984374,-0.0008932242053560913,-0.0026668894570320845,-0.0036424053832888603
1773790094760372200,9.785372314453125,-0.001156877144239843,-0.004172374494373798,-0.0076270271092653275
1773790094780336400,9.80533642578125,0.0001395496365148574,-0.0015760586829856038,-0.006118612363934517
1773790094800300300,9.82530029296875,-0.00029294771957211196,-0.003825897118076682,-0.0062882560305297375
1773790094820264400,9.845264404296875,0.000993891735561192,-0.0035081820096820593,-0.005613677203655243
1773790094840228400,9.865228271484375,-0.0003810983616858721,-0.0030064424499869347,-0.006177734583616257
1773790094860192300,9.885192138671876,-0.00046685212873853743,-0.0026224146131426096,-0.006134591531008482
1773790094880156200,9.90515625,-0.0012961605098098516,-0.003525492735207081,-0.006517820525914431
1773790094900120300,9.925120361328124,-0.00048655952559784055,-0.0030623688362538815,-0.006667756475508213
1773790094920084200,9.945084228515626,-0.0010338390711694956,-0.0024583640042692423,-0.007955128327012062
1773790094940048100,9.965048095703125,-0.00022770027862861753,-0.0036788906436413527,-0.006232862360775471
1773790094960012300,9.98501220703125,0.000010386328540334944,-0.003204581793397665,-0.005574528593569994
1773790094979976200,10.00497607421875,0.00041758365114219487,-0.002799248555675149,-0.006074137985706329
1773790094999940000,10.024940185546875,-0.0005350290448404849,-0.003855990944430232,-0.006280798930674791
1773790095019904300,10.044904296875,-0.0013369068037718534,-0.0041494714096188545,-0.006222209427505732
1773790095039868400,10.064868408203125,-0.000254331884207204,-0.0031915323343127966,-0.00686003640294075
1773790095059832300,10.084832275390625,-0.00048655952559784055,-0.003427754621952772,-0.006246710661798716
1773790095079796200,10.104796142578126,0.0006641923682764173,-0.0025220136158168316,-0.00561154680326581
1773790095099760400,10.124760498046875,0.0010546117555350065,-0.003065032185986638,-0.006271477788686752
1773790095119724300,10.144724365234374,-0.0014564828015863895,-0.0031369375064969063,-0.00563950976356864
1773790095139688200,10.164688232421875,-0.001234907773323357,-0.003424292430281639,-0.0062523032538592815
1773790095159652400,10.18465234375,0.0005984122981317341,-0.005109807010740042,-0.005654956214129925
1773790095179616300,10.2046162109375,0.0005765743553638458,-0.004188353195786476,-0.004128698725253344
1773790095199580200,10.224580078125,-0.0005733785801567137,-0.0023031015880405903,-0.006291984114795923
1773790095219544000,10.2445439453125,-0.000597879639826715,-0.003922303672879934,-0.006222742144018412
1773790095239508200,10.26450830078125,0.0005036037764512002,-0.003967577591538429,-0.006019010208547115
1773790095259473000,10.284472900390625,0.00035420042695477605,-0.0033393376506865025,-0.005363073665648699
1773790095279436800,10.304436767578125,-0.0007187871960923076,-0.003082076320424676,-0.006142580881714821
1773790095299400700,10.324400634765626,-0.0008218514849431813,-0.003846936160698533,-0.005681321490556002
1773790095319364900,10.34436474609375,0.0000031957933970261365,-0.0026530411560088396,-0.005234176758676767
1773790095339328800,10.364328857421874,0.00023222764139063656,-0.002225870033726096,-0.004561462439596653
1773790095359292700,10.384292724609375,-0.001091629732400179,-0.003668237943202257,-0.0054517569951713085
1773790095379256800,10.4042568359375,-0.0012066783383488655,-0.0027864654548466206,-0.006108758971095085
1773790095399220700,10.424220703125,-0.000251402409048751,-0.002523345174267888,-0.00449914438650012
1773790095419184600,10.4441845703125,-0.0005768407136201859,-0.004006725735962391,-0.005875732284039259
1773790095439148800,10.464148681640625,-0.0003504719934426248,-0.004030694253742695,-0.0060293967835605145
1773790095459113000,10.484113037109376,-0.00044128578156232834,-0.0013579458463937044,-0.005875199567526579
1773790095479076900,10.504076904296875,-0.0016903083305805922,-0.0033779535442590714,-0.0061508365906775
1773790095499040800,10.524040771484374,-0.0003808320325333625,-0.00421232171356678,-0.005762814078480005
1773790095519005000,10.5440048828125,-0.00045034053619019687,-0.003596865339204669,-0.005172924138605595
1773790095538968800,10.56396875,-0.0007747135823592544,-0.0021909826900810003,-0.006557767745107412
1773790095558932700,10.5839326171875,-0.0003866909828502685,-0.00336117553524673,-0.00430233683437109
1773790095578896600,10.603896728515625,0.0005842975224368274,-0.003129480639472604,-0.005904494319111109
1773790095598860800,10.62386083984375,0.0005230448441579938,-0.0017366473330184817,-0.006382531952112913
1773790095618824700,10.64382470703125,0.001817341079004109,-0.0035127094015479088,-0.006055495701730251
1773790095638788600,10.66378857421875,-0.0008040083339437842,-0.002417883835732937,-0.005404352676123381
1773790095658751700,10.683751708984374,0.0001102548703784123,-0.002407231368124485,-0.006070942152291536
1773790095678715600,10.703715576171875,-0.0003382214636076242,-0.003263970138505101,-0.005819805897772312
1773790095698679800,10.7236796875,-0.000502804818097502,-0.002283926820382476,-0.006468551699072123
1773790095718644000,10.74364404296875,0.00009507485083304346,-0.0026181535795331,-0.006842459551990032
1773790095738607900,10.76360791015625,-0.001127316034398973,-0.0032091091852635145,-0.006088785361498594
1773790095758571800,10.78357177734375,-0.0002759034978225827,-0.0031819448340684175,-0.005761216394603252
1773790095778536000,10.803535888671876,-0.0016192019684240222,-0.003308977698907256,-0.006670419592410326
1773790095798499800,10.823499755859375,-0.0010346380295231938,-0.0031254857312887907,-0.0038285604678094387
1773790095818463700,10.843463623046874,0.0001233043585671112,-0.0028668928425759077,-0.006056561134755611
1773790095838428000,10.863427978515626,0.00046605319948866963,-0.0037092508282512426,-0.004713262431323528
1773790095858391800,10.883391845703125,-0.0014082795241847634,-0.0028298748657107353,-0.0057279267348349094
1773790095878355700,10.903355712890624,0.0008415589109063148,-0.0027475832030177116,-0.006144445389509201
1773790095898319600,10.923319580078125,-0.00024101608141791075,-0.003466104157269001,-0.00500967213883996
1773790095918283800,10.94328369140625,0.0004146541759837419,-0.003285009181126952,-0.005617139395326376
1773790095938248000,10.963248046875,-0.0002998719282913953,-0.0036780918017029762,-0.006069077644497156
1773790095958211800,10.9832119140625,0.0007182545377872884,-0.004997687879949808,-0.005374258849769831
1773790095978176000,11.003176025390625,-0.0006103964988142252,-0.002130795270204544,-0.005811017472296953
1773790095998140000,11.023139892578126,0.00036378781078383327,-0.0036397422663867474,-0.006133259739726782
1773790096018103800,11.043103759765625,0.000054328484111465514,-0.0023281353060156107,-0.005079447291791439
1773790096038067700,11.063067626953124,-0.00004793690095539205,-0.004581702407449484,-0.006202768534421921
1773790096058031900,11.083031982421875,0.00018615495355334133,-0.0035454663448035717,-0.005688245873898268
1773790096077995800,11.102995849609375,-0.0002713761059567332,-0.00273133791051805,-0.006566289812326431
1773790096097959700,11.122959716796874,-0.0006652576266787946,-0.004998220596462488,-0.004919923841953278
1773790096117923800,11.142923828125,-0.00048389637959189713,-0.004424575716257095,-0.006082393694669008
1773790096137887700,11.1628876953125,-0.00013981595111545175,-0.0035478631034493446,-0.00515721132978797
1773790096157851600,11.1828515625,-0.0011281149927526712,-0.003221093211323023,-0.006106362212449312
1773790096177815800,11.20281591796875,-0.0004772384709212929,-0.003878894029185176,-0.005367334932088852
