time,seconds_elapsed,z,y,x
1773790085002939100,0.027939208984375,0.0009194238809868693,-0.0007248306646943092,-0.0005028308369219303
1773790085022903300,0.0479033203125,-0.0002640844031702727,0.00002658925950527191,-0.0010722917504608631
1773790085042867200,0.0678671875,-0.0008104680455289781,0.000958950724452734,-0.0017727385275065899
1773790085062831000,0.0878310546875,-0.00023374181182589382,0.0005152646917849779,-0.00023029278963804245
1773790085082796000,0.107796142578125,-0.0006414966192096472,-0.0000016854610294103622,0.00042209867388010025
1773790085102760200,0.12776025390625,-0.0004954853793606162,-0.0009446854237467051,0.0015810118056833744
1773790085122724000,0.14772412109375,-0.0009014355600811541,0.0007419830653816462,-0.0006098067387938499
1773790085142688000,0.16768798828125,0.00003262657264713198,0.0013852387201040983,0.001158740371465683
1773790085162652200,0.187652099609375,0.000009142982889898121,-0.0007872851565480232,-0.000189861748367548
1773790085182616300,0.2076162109375,-0.000860965927131474,0.00036328076384961605,0.0013530007563531399
1773790085202580200,0.227580322265625,-0.0007232660427689552,-0.00045481626875698566,0.0004575345665216446
1773790085222544100,0.247544189453125,0.0005284595536068082,-0.0008919979445636272,-0.0003154897131025791
1773790085242509000,0.267509033203125,-0.0005113999941386282,-0.00029146112501621246,0.0008417991921305656
1773790085262473200,0.28747314453125,-0.00007538413046859205,-0.0000018330756574869156,-0.0000573527067899704
1773790085282437000,0.30743701171875,-0.0010872671846300364,-0.0003699962981045246,-0.00023646140471100807
1773790085302401000,0.327401123046875,0.0016073642764240503,0.00029168627224862576,-0.0012315348722040653
1773790085322365000,0.347364990234375,0.0008365896064788103,-0.0006882729940116405,-0.0007554632611572742
1773790085342329000,0.3673291015625,0.00010025486699305475,-0.00008693826384842396,0.00048385467380285263
1773790085362293000,0.38729296875,-0.0009953485568985343,0.0003991052508354187,0.0006055026315152645
1773790085382257000,0.4072568359375,-0.00031954480800777674,-0.0004484490491449833,-0.0010003834031522274
1773790085402221000,0.427220947265625,0.0003948378434870392,-0.0011068247258663177,0.0010001333430409431
1773790085422186000,0.44718603515625,-0.0003038773429580033,0.0005546072497963905,0.0007796767167747021
1773790085442150100,0.467150146484375,0.0007786260102875531,-0.00048719136975705624,-0.00002838391810655594
1773790085462114000,0.487114013671875,-0.00003182821092195809,0.00006031268276274204,0.0006118626333773136
1773790085482078000,0.507077880859375,0.0009149545803666115,-0.0002994583919644356,-0.001372277271002531
1773790085502042000,0.5270419921875,0.001000431482680142,0.0004512930754572153,0.00031131040304899216
1773790085522006000,0.547006103515625,0.000377318006940186,-0.0000370517373085022,-0.00034459633752703667
1773790085541970000,0.566969970703125,-0.00021620409097522497,0.00011310726404190063,0.0000778823159635067
1773790085561934000,0.58693408203125,-0.0016264062141999602,-0.0015377779491245747,-0.0005732262507081032
1773790085581899000,0.60689892578125,0.0014507574960589409,0.0002997848205268383,-0.00013806438073515892
1773790085601863000,0.62686279296875,0.0003668018034659326,0.00040361983701586723,0.0001513357274234295
1773790085621827000,0.6468271484375,0.00006865779869258404,-0.0007730282377451658,0.0004228162579238415
1773790085641791200,0.666791259765625,0.00002943648723885417,0.0004250409547239542,-0.00040047336369752884
1773790085661755100,0.686755126953125,-0.0005244773346930742,-0.0005157033447176218,0.0006581447087228298
1773790085681719000,0.706718994140625,0.001342523144558072,-0.0005432683974504471,0.00007206900045275688
1773790085701683000,0.726682861328125,0.0016284550074487925,-0.0003234685864299536,0.0005148756317794323
1773790085721647000,0.746647216796875,0.00005351510480977595,0.00044203782454133034,-0.00044098589569330215
1773790085741611000,0.766611083984375,0.0003927733050659299,0.0002710947301238775,0.0004016011953353882
1773790085761576000,0.786575927734375,-0.00016682845307514071,-0.00017388095147907734,0.0005607209168374538
1773790085781539800,0.806539794921875,0.0008336917962878942,-0.0024462509900331497,0.0001477738842368126
1773790085801504000,0.82650390625,0.0021757432259619236,-0.002408313099294901,0.0006625289097428322
1773790085821468200,0.84646826171875,0.0014856407651677728,-0.0012626280076801777,0.0036208571400493383
1773790085841432000,0.86643212890625,0.002394774928689003,-0.004863716196268797,0.00949365645647049
1773790085861396000,0.88639599609375,0.00499273044988513,-0.017361421138048172,0.012533710338175297
1773790085881360100,0.906360107421875,0.0025499947369098663,0.03510924056172371,-0.06888628005981445
1773790085901324000,0.926323974609375,-0.015629569068551064,0.10506277531385422,0.14272375404834747
1773790085921288000,0.946287841796875,-0.0040854462422430515,-0.002062896266579628,0.016227567568421364
1773790085941252900,0.9662529296875,0.0023073102347552776,-0.001137190731242299,-0.05298253893852234
1773790085961217000,0.986217041015625,0.005795805249363184,-0.007225987501442432,-0.04176381230354309
1773790085981181000,1.006180908203125,0.0024732048623263836,0.0009922846220433712,0.0012637637555599213
1773790086001145000,1.02614501953125,-0.004715101793408394,-0.0007142741233110428,0.022341422736644745
1773790086021109000,1.04610888671875,-0.006795023567974567,-0.0012863250449299812,0.01775258406996727
1773790086041073200,1.0660732421875,-0.0030466518364846706,-0.0008077393285930157,0.005309548228979111
1773790086061037000,1.086037109375,0.005755901336669922,-0.0020762067288160324,0.0025250008329749107
1773790086081001000,1.1060009765625,0.006238732486963272,-0.0005917609669268131,-0.004439431242644787
1773790086100965000,1.125965087890625,0.0022559750359505415,-0.002268487121909857,-0.004863939248025417
1773790086120930000,1.145929931640625,-0.0028816270641982555,-0.001817076001316309,-0.0002900315448641777
1773790086140894000,1.16589404296875,-0.0059327129274606705,-0.002254372462630272,-0.0010692011564970016
1773790086160857900,1.18585791015625,-0.0019697195384651423,0.00009291968308389187,-0.0021930718794465065
1773790086180822000,1.205822021484375,0.002168168080970645,-0.0016945695970207453,0.0015688366256654263
1773790086200786200,1.2257861328125,-0.00005352517473511398,0.0002964071463793516,0.0025880637113004923
1773790086220750000,1.24575,-0.0026751135010272264,-0.0003081460017710924,0.002545401453971863
1773790086240714000,1.2657138671875,-0.0023104562424123287,-0.0005419610533863306,0.0011393758468329906
1773790086260677600,1.285677734375,0.0007347001228481531,-0.0008759265765547752,0.0014225412160158157
1773790086280641500,1.3056416015625,0.0007624947465956211,-0.0015726150013506413,0.0013392558321356773
1773790086300606500,1.3256064453125,0.001251275883987546,-0.0005283905193209648,-0.00012599769979715347
1773790086320570400,1.3455703125,0.0002730762935243547,-0.00047777872532606125,0.0009220619685947895
1773790086340534500,1.365534423828125,-0.0017265024362131953,0.0007214362267404795,0.00038019800558686256
1773790086360498400,1.38549853515625,-0.0014513136120513082,-0.00010547274723649025,0.0007324982434511185
1773790086380462300,1.40546240234375,0.00018814869690686464,-0.0001172022894024849,-0.00023353565484285355
1773790086400426800,1.4254267578125,-0.0007871143752709031,-0.00025674421340227127,0.0005583809688687325
1773790086420390700,1.445390625,0.0007044580997899175,-0.0012919295113533735,0.001993222162127495
1773790086440354600,1.4653544921875,0.00040536487358622253,-0.0006993643473833799,0.0008010310120880604
1773790086460318500,1.485318359375,0.0008067668532021344,-0.0016373156104236841,0.0022639750968664885
1773790086480282600,1.50528271484375,0.0008714954601600766,-0.0009630108252167702,-0.00016578566282987595
1773790086500247600,1.52524755859375,0.0006100641330704093,0.00029932637698948383,-0.0017114668153226376
1773790086520211500,1.54521142578125,-0.0003138981119263917,-0.000551008153706789,0.00015416555106639862
1773790086540175400,1.56517529296875,0.002082750666886568,0.0004583396948873997,-0.0005980539135634899
1773790086560139500,1.585139404296875,0.0009189065895043314,0.0005000489763915539,0.0008947383612394333
1773790086580103400,1.605103515625,0.0003753279452212155,0.00009718094952404499,0.0019510001875460148
1773790086600067600,1.625067626953125,-0.0005472854245454073,-0.0001544835977256298,0.0005223406478762627
1773790086620031500,1.645031494140625,0.001243721111677587,0.0001869690604507923,-0.0007479172199964523
1773790086639995600,1.66499560546875,0.0019874023273587227,-0.000044165877625346184,-0.0008311341516673565
1773790086659959600,1.68495947265625,-0.0002709937689360231,-0.000021291198208928108,-0.00042006419971585274
1773790086679923500,1.70492333984375,0.0008152078953571618,0.0011433609761297703,-0.00024046003818511963
1773790086699888400,1.724888427734375,-0.000050907518016174436,0.002161274431273341,0.0004959041252732277
1773790086719852500,1.7448525390625,0.0008220274467021227,0.0015682396478950977,-0.00098728621378541
1773790086739816400,1.76481640625,-0.00043059312156401575,0.00016450113616883755,-0.001278495416045189
1773790086759780400,1.7847802734375,0.00011971237836405635,0.0011546871392056346,-0.00007212022319436073
1773790086779744500,1.80474462890625,0.0007198135135695338,0.00037464615888893604,-0.00043881963938474655
1773790086799708700,1.824708740234375,0.000012295873602852225,0.00011099572293460369,0.0009265472181141376
1773790086819672600,1.844672607421875,0.0006270976737141609,-0.000828868243843317,0.0007086126133799553
1773790086839636500,1.864636474609375,0.0006917727878317237,0.0007450850680470467,-0.0003513791598379612
1773790086859600600,1.8846005859375,0.0008536929963156581,0.00019594118930399418,-0.0005700243636965752
1773790086879564500,1.904564453125,-0.0002650876413099468,-0.00014521810226142406,0.0008202516473829746
1773790086899529500,1.924529541015625,0.001743761938996613,0.000892614247277379,0.0008724173530936241
1773790086919493400,1.944493408203125,-0.0006904195179231465,-0.00012421002611517906,-0.0007638027891516685
1773790086939457500,1.96445751953125,-0.00008219544542953372,-0.0002432775218039751,0.0005647917278110981
1773790086959421400,1.98442138671875,0.000283483270322904,0.0005295551382005215,0.0009727347642183304
1773790086979385600,2.004385498046875,0.0016505209496244788,0.0002222573384642601,0.00033875973895192146
1773790086999349500,2.024349609375,0.00047022843500599265,-0.0007849619723856449,0.00015569478273391724
1773790087019313700,2.044313720703125,-0.00007633649511262774,-0.00039347982965409756,-0.00016997428610920906
1773790087039277600,2.064277587890625,-0.0003756490768864751,0.0012110581155866385,-0.00009998632594943047
1773790087059241500,2.084241455078125,-0.00030046358006075025,0.0011484766146168113,0.0013263667933642864
1773790087079205600,2.10420556640625,-0.001257364172488451,0.00042464560829102993,0.0018854178488254547
1773790087099170600,2.124170654296875,0.0002985522442031652,0.0004432825371623039,-0.0011204206384718418
1773790087119134500,2.144134521484375,0.0005114027881063521,-0.00200334913097322,-0.00019490253180265427
1773790087139098400,2.164098388671875,0.0034025509376078844,-0.000303465174511075,-0.00046105822548270226
1773790087159062500,2.1840625,0.00033660142798908055,-0.0013980071526020765,-0.0013558459468185902
1773790087179026700,2.204026611328125,-0.0004933943273499608,0.0002118605189025402,0.0010837879963219166
1773790087198990600,2.223990478515625,0.0017728714738041162,0.0012848455226048827,0.00041164224967360497
1773790087218954500,2.24395458984375,0.0008021289249882102,0.0003783171996474266,0.0005414439365267754
1773790087238918700,2.263918701171875,0.00019003660418093204,0.0003375760279595852,-0.0006506582722067833
1773790087258883600,2.283883544921875,-0.00016891679842956364,-0.0003982789348810911,0.00007271068170666695
1773790087278847500,2.303847412109375,-0.0002884084533434361,0.000001730397343635559,0.0001749405637383461
1773790087298811400,2.323811279296875,-0.00129801279399544,-0.0009322401601821184,0.0007019801996648312
1773790087318776300,2.3437763671875,-0.0006636612815782428,-0.0003079872112721205,0.0004496718756854534
1773790087338740200,2.363740234375,0.0009892716770991683,-0.0010819006711244583,0.0004658992402255535
1773790087358704400,2.383704345703125,0.0004039863124489784,0.00007684738375246525,0.00021680444478988647
1773790087378668300,2.403668212890625,0.0009923968464136124,-0.00020786188542842865,0.0005675083957612514
1773790087398632200,2.423632080078125,-0.00027436460368335247,0.0005625812336802483,0.0005322122015058994
1773790087418596400,2.443596435546875,0.0007902424549683928,0.0009266568813472986,0.0004533650353550911
1773790087438560500,2.463560546875,0.00005894529749639332,0.000014520250260829926,-0.00031650206074118614
1773790087458524400,2.4835244140625,-0.00010183910490013659,0.0012704775435850024,0.0014684726484119892
1773790087478488300,2.50348828125,0.001344837248325348,-0.0012880496215075254,0.0005926657468080521
1773790087498452500,2.523452392578125,-0.0005674302228726447,-0.000018502818420529366,-0.0006914748810231686
1773790087518416400,2.54341650390625,0.0004935867036692798,-0.0000704426784068346,0.0006346199661493301
1773790087538381300,2.56338134765625,-0.00026746041839942336,0.001338904956355691,-0.000751058105379343
1773790087558345200,2.58334521484375,-0.00048138981219381094,0.00038681807927787304,0.00012494437396526337
1773790087578309400,2.603309326171875,0.0008842588867992163,-0.00039187795482575893,0.0006337137892842293
1773790087598273300,2.623273193359375,0.0018076170235872269,-0.0008100187405943871,0.00045320577919483185
1773790087618237400,2.643237548828125,-0.00016112960292957723,-0.00017429236322641373,0.0015748036094009876
1773790087638201600,2.66320166015625,0.00019532596343196929,0.00021637161262333393,0.0006056986749172211
1773790087658165500,2.68316552734375,-0.00041179711115546525,0.0004965432453900576,0.0009933654218912125
1773790087678129400,2.70312939453125,0.0002916077501140535,-0.00026164413429796696,-0.00021297624334692955
1773790087698093300,2.72309326171875,-0.0005473453202284873,-0.00018682819791138172,0.001256273128092289
1773790087718057500,2.743057373046875,0.0006383581785485148,0.0001860293559730053,0.0008885608986020088
1773790087738021400,2.763021484375,-0.00031237085931934416,-0.001461047912016511,-0.00011214055120944977
1773790087757986300,2.782986328125,0.000017217244021594524,0.000027672620490193367,0.00033029913902282715
1773790087777950200,2.8029501953125,0.0013336711563169956,-0.0007633189670741558,-0.00042348168790340424
1773790087797914600,2.82291455078125,0.00005885364953428507,-0.0008245401550084352,-0.00036796415224671364
1773790087817878500,2.84287841796875,0.0006870358483865857,-0.0007404033094644547,-0.0012729237787425518
1773790087837842400,2.862842529296875,-0.0005245539941824973,0.0005571064539253712,-0.00012959353625774384
1773790087857806300,2.882806396484375,0.0005251223337836564,-0.00022295513190329075,0.0005396776832640171
1773790087877770500,2.9027705078125,-0.0006050723604857922,-0.00043252273462712765,0.0007399106398224831
1773790087897734400,2.922734375,-0.0004996821517124772,0.00007852702401578426,-0.000229603610932827
1773790087917698300,2.9426982421875,0.000016886944649741054,-0.0011856781784445047,-0.00017044506967067719
1773790087937662500,2.962662353515625,0.001212042523548007,0.000012999633327126503,-0.0012968205846846104
1773790087957626400,2.98262646484375,-0.0002688438107725233,-0.00006370525807142258,0.00032351724803447723
1773790087977591300,3.00259130859375,-0.0003536946314852685,-0.00008581951260566711,0.00047783926129341125
1773790087997555500,3.022555419921875,0.00046520770411007106,0.0007019566837698221,0.00030936719849705696
1773790088017519400,3.042519287109375,-0.0008564413874410093,-0.0004455926828086376,-0.0006193653680384159
1773790088037483500,3.0624833984375,-0.00006515189306810498,-0.00017526675947010517,0.0008923155255615711
1773790088057447400,3.082447509765625,-0.000556245562620461,0.00047880946658551693,0.0004877271130681038
1773790088077411300,3.102411376953125,0.0009526439243927598,0.00001699826680123806,-0.000663041602820158
1773790088097375500,3.12237548828125,0.0014554994413629174,-0.000586184673011303,0.00003786617890000343
1773790088117339400,3.14233935546875,0.00045227527152746916,-0.0005886300932615995,0.000986573752015829
1773790088137303300,3.16230322265625,-0.0012249385472387075,-0.00019525294192135334,-0.0002731899730861187
1773790088157267500,3.182267333984375,0.0007611758774146438,0.0003546790685504675,-0.00008183345198631287
1773790088177231400,3.2022314453125,0.00045327446423470974,-0.0003688773140311241,0.000170048326253891
1773790088197195300,3.2221953125,0.00011144904419779778,-0.00036703492514789104,0.0003319862298667431
1773790088217160400,3.242160400390625,-0.0002082081336993724,0.0014441737439483404,0.0013773655518889427
1773790088237124400,3.262124267578125,-0.0001664940791670233,-0.001283163670450449,0.0009397375397384167
1773790088257088000,3.282087890625,0.0008891563629731536,0.00020902208052575588,0.000010081101208925247
1773790088277052200,3.30205224609375,-0.0004689514171332121,-0.0005712939891964197,-0.00019325967878103256
1773790088297016000,3.32201611328125,0.00031169381691142917,0.000739918788895011,0.0011337758041918278
1773790088316980200,3.341980224609375,0.001265102531760931,-0.0011566292960196733,0.0006536711007356644
1773790088336944000,3.361944091796875,-0.0012751542963087559,-0.00016688648611307144,0.0001265350729227066
1773790088356908000,3.381907958984375,-0.0007967171259224415,-0.000016169855371117592,0.00037549762055277824
1773790088376872000,3.401871826171875,0.00011995222303085029,0.0007087008561939001,0.0008943802677094936
1773790088396836000,3.421836181640625,0.0011109671322628856,-0.000438113696873188,-0.0007474212907254696
1773790088416800000,3.441800048828125,-0.00025502906646579504,-0.0006433909293264151,-0.00024646008387207985
1773790088436764000,3.461763916015625,-0.0003009786014445126,0.0008973863441497087,0.00034045102074742317
1773790088456728800,3.481728759765625,-0.0003292444162070751,-0.001015390269458294,-0.0002911551855504513
1773790088476693200,3.501693359375,-0.0002353200688958168,-0.0007448189426213503,-0.00026376498863101006
1773790088496657200,3.5216572265625,0.0006482848548330367,-0.0000603310763835907,0.00010704854503273964
1773790088516621000,3.54162109375,0.0006661114748567343,0.000082006910815835,-0.000373124610632658
1773790088536585200,3.561585205078125,0.0002001427492359653,0.0005114448722451925,0.0009358054958283901
1773790088556549000,3.581549072265625,-0.0010879810433834791,-0.0014539265539497137,-0.00027509965002536774
1773790088576513000,3.601512939453125,-0.00013801478780806065,0.00007374794222414494,0.00033406075090169907
1773790088596477000,3.621476806640625,-0.0000037445861380547285,-0.0002518387045711279,0.0002796887420117855
1773790088616441000,3.641441162109375,0.0006192837608978152,0.0004085400141775608,0.000020583625882864
1773790088636405000,3.661405029296875,0.0009736204519867897,-0.0006179467309266329,-0.000343474093824625
1773790088656369000,3.681368896484375,-0.0006779918330721557,0.0004024461377412081,-0.00021464796736836433
1773790088676333000,3.7013330078125,0.001231757109053433,-0.0011995667591691017,-0.00028518540784716606
1773790088696297200,3.721297119140625,-0.0007063555531203747,0.0006080043967813253,-0.0005264263600111008
1773790088716262100,3.74126220703125,0.0005739756743423641,-0.0006902748718857765,0.00143409613519907
1773790088736226000,3.76122607421875,-0.000020372128346934915,-0.00041830423288047314,0.0007011503912508488
1773790088756190000,3.78118994140625,-0.0004904418019577861,-0.0005630641244351864,-0.00044703204184770584
1773790088776154000,3.801154052734375,-0.0010016835294663906,-0.00006576231680810452,-0.0005474919453263283
1773790088796118000,3.821117919921875,0.0007063712109811604,0.0008814525790512562,-0.0005923667922616005
1773790088816082000,3.84108203125,0.001275379559956491,-0.00017859041690826416,0.0006683585233986378
1773790088836046000,3.861046142578125,0.001702730543911457,0.00013363361358642578,0.000334092415869236
1773790088856010000,3.881010009765625,-0.00021290159202180803,-0.0009214254096150398,0.00004657590761780739
1773790088875974000,3.900973876953125,-0.0013312227092683315,0.0006467471830546856,0.0008177515119314194
1773790088895938000,3.92093798828125,0.0016054472653195262,0.0012069809017702937,-0.0017053992487490177
1773790088915902200,3.940902099609375,-0.0009297076612710953,-0.00019776471890509129,-0.0010207300074398518
1773790088935866000,3.9608662109375,0.0008862826507538557,0.00007587950676679611,-0.00023202085867524147
1773790088955830000,3.980830078125,0.0009595172014087439,0.00034613837487995625,-0.0005013612098991871
1773790088975795000,4.000794921875,-0.00031059846514835954,0.0009781799744814634,-0.002183863427489996
1773790088995759000,4.020759033203125,0.0006116020958870649,-0.0006923265755176544,0.0002062278799712658
1773790089015723000,4.040722900390625,0.00020124534785281867,0.0006474459078162909,0.0010945298708975315
1773790089035687000,4.06068701171875,-0.0007289251661859453,-0.0008280626498162746,-0.00035084551200270653
1773790089055651000,4.080651123046875,0.0008297889144159853,0.0011747956741601229,-0.0000402289442718029
1773790089075615200,4.100615234375,0.001424093614332378,0.0000917178113013506,-0.0003638956695795059
1773790089095579100,4.1205791015625,-0.00012263502867426723,0.0004216083325445652,-0.0004158439114689827
1773790089115543000,4.14054296875,-0.00010370156087446958,0.0003911603707820177,-0.00013107480481266975
1773790089135507200,4.160507080078125,-0.00036606937646865845,0.0009217283222824335,0.0003357222303748131
1773790089155471000,4.18047119140625,0.0006297907093539834,0.0013504696544259787,-0.00017354218289256096
1773790089175435000,4.20043505859375,0.0011177065316587687,-0.0006668227724730968,0.00017679762095212936
1773790089195399200,4.220399169921875,0.0007005773950368166,0.001591430976986885,-0.0007413295097649097
1773790089215363000,4.240363037109375,-0.00046228052815422416,0.0003739842213690281,-0.00008144555613398552
1773790089235328000,4.260327880859375,-0.0015874458476901054,-0.00007411814294755459,0.0006058784201741219
1773790089255292000,4.2802919921875,0.000024622873752377927,-0.00017063203267753124,0.0007335161790251732
1773790089275256000,4.300256103515625,-0.00018950633239001036,0.0002339871134608984,-0.000047676265239715576
1773790089295220200,4.32022021484375,0.0006945028435438871,0.0003163493238389492,-0.001505355816334486
1773790089315184000,4.34018408203125,-0.0007378403679467738,-0.00004613935016095638,0.0004895646125078201
1773790089335148000,4.36014794921875,-0.0008394808392040431,0.00006478046998381615,0.00008900975808501244
1773790089355112200,4.3801123046875,0.0006728361477144063,0.0002017843071371317,0.0008119251579046249
1773790089375076000,4.400076171875,-0.00008276682638097554,0.0005709684919565916,-0.0005116271786391735
1773790089395040000,4.4200400390625,-0.00004814259591512382,-0.0006084302440285683,0.0019057735335081816
1773790089415004000,4.44000390625,-0.0012870916398242116,-0.0003284595441073179,0.00041415030136704445
1773790089434968000,4.459968017578125,0.0007542917155660689,-0.0003285035490989685,-0.0003575598821043968
1773790089454932000,4.479931884765625,0.0011092496570199728,-0.00046953605487942696,-0.0007085469551384449
1773790089474896000,4.499895751953125,-0.0016314758686348796,-0.00006271596066653728,-0.0006960290484130383
1773790089494860000,4.519860107421875,0.0004264684394001961,0.00028085452504456043,-0.0013235989026725292
1773790089514825200,4.5398251953125,-0.0005476494552567601,0.0012451362563297153,0.00040543777868151665
1773790089534789000,4.5597890625,0.00026382459327578545,-0.0003430051729083061,-0.0015161894261837006
1773790089554753000,4.5797529296875,-0.0002447551232762635,-0.0006181017961353064,0.00002038571983575821
1773790089574717000,4.599717041015625,0.001109867705963552,-0.00040926667861640453,-0.0006086644716560841
1773790089594681000,4.61968115234375,-0.001379047753289342,0.0005399666260927916,-0.0004145912826061249
1773790089614645000,4.63964501953125,-0.0006762014236301184,-8.221250027418137e-7,0.00042973877862095833
1773790089634609000,4.65960888671875,0.0006885300390422344,0.0009936667047441006,-0.000007909722626209259
1773790089654573000,4.679572998046875,-0.0010632456978783011,0.0012826372403651476,0.0000713421031832695
1773790089674537000,4.699536865234375,0.0006456562550738454,0.0004929038695991039,-0.0006986190564930439
1773790089694501000,4.719501220703125,-0.0015063488390296698,-0.00034044799394905567,0.0011229002848267555
1773790089714465000,4.739465087890625,-0.00010659221152309328,0.0004755470436066389,-0.0009605907835066319
1773790089734429200,4.75942919921875,-9.787909220904112e-7,-0.0007839393801987171,0.0008181449957191944
1773790089754393000,4.77939306640625,0.0009357371600344777,0.00007706740871071815,0.0005114334635436535
1773790089774357000,4.79935693359375,-0.0007745180046185851,-0.00008693872950971127,-0.000580882653594017
1773790089794321200,4.819321044921875,0.00007183675188571215,-0.0013160109519958496,0.00043510738760232925
1773790089814286000,4.8392861328125,0.0002074600342893973,-0.00011430773884057999,0.0005757780745625496
1773790089834250000,4.85925,-0.0003376590320840478,-0.000641881488263607,-0.0003165849484503269
1773790089854214000,4.8792138671875,0.0009401533752679825,0.00020920205861330032,0.0010967790149152279
1773790089874178000,4.899177978515625,0.0004300986765883863,0.00023331400007009506,0.001219132449477911
1773790089894142200,4.91914208984375,-0.00022900666226632893,0.00031125801615417004,-0.0012482460588216782
1773790089914106000,4.939106201171875,-0.0002887223963625729,0.0008308473043143749,-0.000543330330401659
1773790089934070000,4.959070068359375,-0.0009295286145061255,0.0005176861304789782,-0.00009534740820527077
1773790089954034200,4.9790341796875,0.00031367261544801295,0.0003076475113630295,-0.0009168647229671478
1773790089973998000,4.998998046875,0.00019252183847129345,-0.0005117082037031651,0.00044638803228735924
1773790089993962000,5.0189619140625,-0.0012293619802221656,0.0008564330637454987,-0.0006724763661623001
1773790090013926100,5.038926025390625,0.0002319824998266995,-0.00004559475928544998,0.00038449233397841454
1773790090033890000,5.05889013671875,0.0003589783445931971,-0.00026642228476703167,-0.0002322816289961338
1773790090053854000,5.07885400390625,-0.0007509232382290065,0.0011659961892291903,-0.001205218955874443
1773790090073817900,5.09881787109375,0.000024807348381727934,0.00032452656887471676,0.0002942918799817562
1773790090093782000,5.118781982421875,-0.00035527616273611784,0.0015773670747876167,-0.00045886076986789703
1773790090113746200,5.13874609375,0.0007873001741245389,0.0011828385759145021,-0.0009832852520048618
1773790090133711000,5.158711181640625,-0.00048555340617895126,-0.0002712204586714506,0.00033715181052684784
1773790090153675000,5.178675048828125,0.0010710309725254774,-0.00032292166724801064,0.00042167073115706444
1773790090173639200,5.19863916015625,0.00006683354149572551,-0.00003265496343374252,0.000022362452000379562
1773790090193603000,5.21860302734375,0.0009687280980870128,-0.000017074868083000183,0.0013215797953307629
1773790090213567000,5.23856689453125,0.0006888313801027834,0.000023705419152975082,0.000927370972931385
1773790090233531000,5.25853076171875,0.00003430145443417132,-0.0003410934004932642,-0.0009970967657864094
1773790090253495600,5.27849560546875,-0.00024332094471901655,0.00033769733272492886,-0.0009400765411555767
1773790090273459500,5.29845947265625,0.001346908276900649,0.00016363593749701977,0.0008914349600672722
1773790090293423600,5.318423583984375,0.0005042626871727407,0.00032551283948123455,-0.0008091586641967297
1773790090313387500,5.338387451171875,0.0003186120302416384,0.0009949870873242617,-0.0014867689460515976
1773790090333351700,5.3583515625,0.0006630578427575529,-0.001140030799433589,0.00007721688598394394
1773790090353315600,5.378315673828125,0.000404511287342757,0.0009909712243825197,0.0009155571460723877
1773790090373279500,5.398279541015625,0.0002621469902805984,-0.0020983696449548006,0.00040431227535009384
1773790090393243600,5.41824365234375,-0.0011738850735127926,-0.00029946956783533096,0.00006416859105229378
1773790090413207600,5.43820751953125,0.0011151463259011507,0.0003034202381968498,-0.000432704109698534
1773790090433171500,5.45817138671875,-0.001047117286361754,0.0003514711279422045,0.0005159587599337101
1773790090453136400,5.478136474609375,0.000050310074584558606,-0.0004364685155451298,-0.00042385049164295197
1773790090473100500,5.4981005859375,0.00021031044889241457,-0.00007751304656267166,-0.0008597476407885551
1773790090493064700,5.518064697265625,-0.00029223100864328444,-0.0002566415350884199,-0.001055257860571146
1773790090513028600,5.538028564453125,-0.0016492108115926385,-0.0004727595951408148,0.00104037718847394
1773790090532992500,5.557992431640625,-0.0006306463619694114,0.0002720397897064686,-0.0002325461246073246
1773790090552956700,5.577956787109375,0.00019104854436591268,-0.001415693899616599,0.0005256999284029007
1773790090572920600,5.597920654296875,0.00002675811992958188,0.0005112318322062492,-0.0004389015957713127
1773790090592884500,5.617884521484375,-0.00007392505358438939,0.0006150077097117901,-0.0013980274088680744
1773790090612848600,5.6378486328125,-0.001180144026875496,-0.0006544466596096754,0.0002711196430027485
1773790090632812500,5.6578125,-0.000037120626075193286,0.0009017027914524078,0.0008669337257742882
1773790090652776400,5.6777763671875,-0.0020905351266264915,0.0003121334593743086,-0.00001424737274646759
1773790090672740400,5.697740234375,-0.0001657406974118203,-0.0006905670743435621,-0.00009939959272742271
1773790090692704500,5.71770458984375,-0.001668525394052267,-0.0016602573450654745,0.0008432613685727119
1773790090712668700,5.737668701171875,0.0016416697762906551,-0.00028909090906381607,-0.0001420215703547001
1773790090732632600,5.757632568359375,0.0001616985973669216,-0.0004107493441551924,0.0011689714156091213
1773790090752596700,5.7775966796875,0.0008810668950900435,-0.0003150501288473606,0.0004881862550973892
1773790090772560600,5.797560546875,-0.0011358004994690418,-0.0010905079543590546,-0.0015492355450987816
1773790090792524500,5.817524658203125,-0.0016026919474825263,-0.0010262816213071346,-0.0003355052322149277
1773790090812489500,5.837489501953125,-0.000841998727992177,0.00045274803414940834,-0.0013370625674724579
1773790090832453400,5.857453369140625,0.0003273783950135112,-0.000023504719138145447,-0.0004604002460837364
1773790090852417500,5.87741748046875,0.0010073160519823432,0.00017982558347284794,-0.001164859626442194
1773790090872381400,5.89738134765625,-0.0006053725956007838,0.0003703178372234106,0.0002078828401863575
1773790090892345600,5.917345703125,-0.0006853353697806597,-0.0007527372799813747,0.00007198285311460495
1773790090912309800,5.937309814453125,-0.0013447774108499289,0.00032900599762797356,-0.0008644638583064079
1773790090932273700,5.957273681640625,-0.00037741955020464957,0.00135545595549047,-0.0011559529229998589
1773790090952237600,5.977237548828125,-0.0004971360322088003,-0.00008805561810731888,0.001240480225533247
1773790090972201500,5.997201416015625,0.0014265108620747924,0.001226291642524302,-0.0020371894352138042
1773790090992165600,6.01716552734375,-0.0006299616070464253,-0.0011209170334041119,0.00004518125206232071
1773790091012129500,6.037129638671875,-0.001091949176043272,0.00017033726908266544,0.0008968082256615162
1773790091032093400,6.057093505859375,-0.0001238981494680047,0.00010694190859794617,-0.0012591793201863766
1773790091052057600,6.0770576171875,-0.0007813404081389308,0.00001666974276304245,0.00023311655968427658
1773790091072021500,6.097021484375,-0.00021334514894988388,-0.00004207855090498924,-0.00009733205661177635
1773790091091985400,6.1169853515625,-0.00009552837582305074,0.0015596469165757298,0.0003247321583330631
1773790091111949600,6.136949462890625,-0.000003913184627890587,-0.0001572060864418745,0.0007847324013710022
1773790091131913700,6.156913818359375,-0.00019252917263656855,-0.00048098014667630196,-0.0009555439464747906
1773790091151877600,6.176877685546875,-0.000006360787665471435,0.00006462843157351017,-0.0003046588972210884
1773790091171841500,6.196841552734375,0.00046863037277944386,-0.00013539078645408154,0.0007678959518671036
1773790091191805700,6.2168056640625,-0.0003578547912184149,0.00025718146935105324,-0.0010435068979859352
1773790091211769600,6.23676953125,0.0001230209309142083,0.000602631364017725,0.0007730419747531414
1773790091231734500,6.256734619140625,-0.00010713681695051491,-0.001053603831678629,-0.0002928352914750576
1773790091251697700,6.27669775390625,0.0006648210110142827,0.00018918770365417004,-0.001333458349108696
1773790091271661600,6.29666162109375,0.00025316246319562197,-0.00048156920820474625,0.0007188501767814159
1773790091291625500,6.31662548828125,0.0004047130641993135,0.0004708454944193363,-0.0008067660965025425
1773790091311589400,6.33658935546875,0.0003357446694280952,0.000014321878552436829,0.00031265988945961
1773790091331553500,6.356553466796875,-0.00008287373930215836,0.0013885049847885966,0.00012718653306365013
1773790091351517400,6.376517333984375,0.0004596014623530209,0.00005238945595920086,-0.000306794885545969
1773790091371481300,6.3964814453125,0.000844829308334738,0.0010510000865906477,-0.0013733068481087685
1773790091391445500,6.416445556640625,0.0012102738255634904,0.0006279610097408295,-0.001279774121940136
1773790091411409400,6.436409423828125,-0.0004987198626622558,0.00021339301019906998,-0.0002324311062693596
1773790091431373300,6.456373291015625,0.0003575693699531257,-0.0005904743447899818,-0.0006101042963564396
1773790091451337200,6.476337158203125,0.00047706664190627635,-0.00003273552283644676,0.0009048297069966793
1773790091471301400,6.49630126953125,-0.001636316766962409,-0.00035969517193734646,0.00038890959694981575
1773790091491265500,6.516265625,0.0002712704590521753,0.0004936074838042259,-0.00033067772164940834
1773790091511229400,6.5362294921875,0.0013570621376857162,-0.0000983155332505703,-0.0002223234623670578
1773790091531193600,6.556193603515625,0.00032266636844724417,-0.0006581121124327183,-0.0009010392241179943
1773790091551157500,6.576157470703125,0.0004377894802019,-0.000604419969022274,0.0000385921448469162
1773790091571121400,6.596121337890625,0.00026273319963365793,-0.0008179491851478815,0.0005066944286227226
1773790091591085300,6.616085205078125,0.0002324671804672107,-0.0006878976710140705,0.00035381969064474106
1773790091611049500,6.636049560546875,0.0007231997442431748,0.000676475465297699,0.000406862236559391
1773790091631013400,6.656013427734375,-0.0004037307226099074,-0.00023966003209352493,0.0013241125270724297
1773790091650977300,6.675977294921875,-0.001008176477625966,-0.0005442863330245018,-0.0013058953918516636
1773790091670941400,6.69594140625,0.0002194772387156263,0.0019211850594729185,0.0006016301922500134
1773790091690905300,6.7159052734375,-0.0000031329109333455563,-0.00006106612272560596,0.00034833140671253204
1773790091710870500,6.73587060546875,-0.0004909791750833392,0.0006833975203335285,0.0005238638259470463
1773790091730834400,6.75583447265625,0.001603251788765192,-0.00036610523238778114,-0.0002847537398338318
1773790091750798300,6.77579833984375,0.0005694874562323093,-0.0002435818314552307,-0.00047146808356046677
1773790091770762500,6.795762451171875,-0.0008842739625833929,-0.000550159253180027,0.0003439411520957947
1773790091790726400,6.815726318359375,0.0002372239250689745,0.00006795977242290974,0.001015012152493
1773790091810690300,6.835690185546875,0.000014853256288915873,0.00020262249745428562,-0.000503207091242075
1773790091830654500,6.855654541015625,-0.0008201211458072066,0.00012172129936516285,-0.00017407163977622986
1773790091850618400,6.875618408203125,0.0005722043570131063,0.0005548566114157438,-0.0006215469911694527
1773790091870582300,6.895582275390625,-0.0003360003756824881,-0.0007399469614028931,-0.00043078744783997536
1773790091890546400,6.91554638671875,0.0006439439603127539,0.0013812992256134748,0.00010645249858498573
1773790091910510600,6.935510498046875,-0.00010755140101537108,-0.0001713267993181944,0.001732722856104374
1773790091930474500,6.955474609375,0.001951732556335628,-0.00041982298716902733,0.0005130013450980186
1773790091950438400,6.9754384765625,0.0006252694292925298,0.00019976776093244553,0.00043162889778614044
1773790091970402600,6.995402587890625,0.000628132838755846,0.00100403418764472,0.0006573149003088474
1773790091990366500,7.015366455078125,0.0009514224948361516,-0.00007795030251145363,0.0005912957713007927
1773790092010330400,7.035330322265625,-0.0006379152182489634,-0.00009055016562342644,-0.00007114652544260025
1773790092030294500,7.05529443359375,0.00010849928366951644,-0.0002009363379329443,-0.0006816904060542583
1773790092050258400,7.075258544921875,0.00042627358925528824,-0.00035407370887696743,0.00012091314420104027
1773790092070222300,7.095222412109375,-0.0008793481392785907,-0.00023326696828007698,-0.001249705906957388
1773790092090186200,7.115186279296875,0.0005262894555926323,0.00013806275092065334,0.00034537818282842636
1773790092110150400,7.135150390625,0.0009994838619604707,0.00044457498006522655,-0.0011591422371566296
1773790092130114300,7.1551142578125,0.0008950333576649427,0.0009318962693214417,0.0008728252723813057
1773790092150078500,7.175078369140625,-0.0014096865197643638,0.000988776097074151,-0.0001454222947359085
1773790092170042600,7.195042724609375,-0.0003449592040851712,-0.00039965775795280933,-0.00024571968242526054
1773790092190006500,7.215006591796875,0.0001422899658791721,-0.0004089169669896364,0.000382870901376009
1773790092209970400,7.234970458984375,-0.0004395705764181912,0.0000486795324832201,0.0006705471314489841
1773790092229934300,7.254934326171875,-0.00026775311562232673,-0.0008635253179818392,0.0003593051806092262
1773790092249898500,7.2748984375,-0.0004657739191316068,0.00019820942543447018,-0.000045313965529203415
1773790092269862700,7.294862548828125,-0.0003213954623788595,0.0006638632621616125,0.00026653148233890533
1773790092289826800,7.314826904296875,-0.0004232974024489522,-0.0000046247150748968124,0.001328092534095049
1773790092309791000,7.334791015625,-0.0002652927942108363,-0.00037300284020602703,-0.0017290269024670124
1773790092329756000,7.354755859375,0.000554865226149559,0.0010858257301151752,-0.00017378712072968483
1773790092349719800,7.3747197265625,0.000027813046472147107,-0.0005038885865360498,-0.00040684686973690987
1773790092369683700,7.39468359375,-0.0017742130439728498,0.0012359595857560635,-0.00008697621524333954
1773790092389647600,7.414647705078125,-0.0006516564753837883,0.0010737362317740917,-0.00020049698650836945
1773790092409611800,7.43461181640625,-0.0006903838948346674,0.0007839016616344452,0.0007280861027538776
1773790092429575700,7.45457568359375,0.0010671784402802587,-0.0013082334771752357,0.0009169476106762886
1773790092449539600,7.47453955078125,0.0009044519974850118,0.0001116008497774601,-0.00168990483507514
1773790092469504000,7.49450390625,0.00002431802568025887,-0.00003337254747748375,0.0011875731870532036
1773790092489468000,7.514468017578125,0.0011768511030822992,-0.00020055053755640984,-0.0006851376965641975
1773790092509431800,7.534431884765625,0.0005683931522071362,-0.000807878328487277,0.00047693774104118347
1773790092529395700,7.554395751953125,0.001154055236838758,-0.0009187946561723948,-0.0005189576186239719
1773790092549359900,7.57435986328125,0.0013105871621519327,0.000597797567024827,0.0002152775414288044
1773790092569323800,7.59432373046875,-0.00031037454027682543,0.0014681058237329125,0.0004980736412107944
1773790092589287700,7.61428759765625,-0.0009272291208617389,-0.0009526689536869526,0.0002411017194390297
1773790092609251800,7.634251953125,0.00027387012960389256,0.0012225586688145995,0.00037467991933226585
1773790092629215700,7.6542158203125,0.0006674922769889235,0.0013549837749451399,0.000617501325905323
1773790092649179600,7.6741796875,0.00189162977039814,0.0008196835406124592,0.0012820255942642689
1773790092669143600,7.6941435546875,0.00018542337056715041,-0.0004435335285961628,-0.00028651347383856773
1773790092689107700,7.714107666015625,0.000026718247681856155,0.0004383064806461334,0.0005131098441779613
1773790092709072000,7.73407177734375,-0.0002634110569488257,0.00011872430332005024,0.000200686976313591
1773790092729035800,7.754035888671875,-0.00014191839727573097,-0.0008557003457099199,0.0007784957997500896
1773790092749000000,7.774,-0.0003912507963832468,-0.0011128035839647055,0.00011877808719873428
1773790092768963800,7.7939638671875,0.001821516896598041,-0.0007964435499161482,-0.00015359511598944664
1773790092788927700,7.813927734375,0.0007801851024851203,-0.0013775695115327835,-0.0003445800393819809
1773790092808891600,7.8338916015625,0.000834570440929383,0.00024663680233061314,-0.0008520861156284809
1773790092828855800,7.853855712890625,0.000692285131663084,0.0005662424955517054,-0.0008507729507982731
1773790092848819700,7.87381982421875,0.00007936172187328339,-0.0005174516700208187,-0.0005774474702775478
1773790092868783600,7.89378369140625,0.0010449786204844713,0.000626774039119482,0.0005594748072326183
1773790092888747800,7.913747802734375,0.0017732027918100357,0.001740381121635437,-0.00021189404651522636
1773790092908711700,7.933711669921875,0.0007414865540340543,0.0005605595652014017,-0.0004124757833778858
1773790092928675600,7.953675537109375,0.0007634864887222648,0.0017909313319250941,0.0008434727787971497
1773790092948639700,7.9736396484375,0.0010061390930786729,0.0006060984451323748,-0.00013226550072431564
1773790092968604000,7.99360400390625,0.001660045818425715,0.0004070911090821028,0.0003792443312704563
1773790092988567800,8.01356787109375,0.000042944710003212094,0.00021711131557822227,0.0013783322647213936
1773790093008531700,8.03353173828125,-0.00041728568612597883,-0.0002699492033571005,-0.0009361128322780132
1773790093028496000,8.053495849609375,0.0015103076584637165,-0.00024815602228045464,0.00022617774084210396
1773790093048459800,8.073459716796876,0.0011828038841485977,-0.0003471404779702425,0.00041949469596147537
1773790093068423700,8.093423583984375,-0.00023828342091292143,0.0005897693336009979,0.0010366253554821014
1773790093088387800,8.113387939453125,0.0014435171615332365,-0.00014525605365633965,0.00018883217126131058
1773790093108351700,8.133351806640626,0.0007630231557413936,0.000748706515878439,0.0007621143013238907
1773790093128315600,8.153315673828125,-0.001410038908943534,0.0005679281894117594,-0.00040160631760954857
1773790093148279600,8.173279541015624,-0.0008918822859413922,-0.0008592838421463966,0.0010456214658915997
1773790093168243700,8.19324365234375,-0.0003519215388223529,0.0013827107613906264,-0.0009210575371980667
1773790093188207900,8.213207763671875,0.0001472213480155915,0.0007080354262143373,0.0003664987161755562
1773790093208171800,8.233171875,0.0005784234963357449,0.000021567102521657944,0.00046906154602766037
1773790093228136000,8.253135986328125,0.001838273135945201,0.0004671707283705473,-0.0004157223738729954
1773790093248099800,8.273099853515625,-0.0010642526904121041,-0.00045657274313271046,-0.0005820496007800102
1773790093268063700,8.293063720703126,0.0012896202970296144,-0.0004513103049248457,-0.00027264002710580826
1773790093288028700,8.313028564453125,-0.0012762839905917645,-0.00011603930033743382,0.00009556440636515617
1773790093307991800,8.33299169921875,0.00021497192210517824,0.0007867219392210245,0.0019379747100174427
1773790093327955700,8.352955810546876,0.00019344291649758816,0.0010640944819897413,-0.00045977532863616943
1773790093347920600,8.372920654296875,-0.0009468719363212585,0.000040185172110795975,0.0015712515451014042
1773790093367884800,8.392884765625,0.0009071769891306758,0.0009193220175802708,0.0002962211146950722
1773790093387849000,8.412848876953126,-0.00022831483511254191,0.0007566758431494236,0.0020428758580237627
1773790093407812900,8.432812744140625,-0.0015652176225557923,-0.0006253973115235567,-0.0005604634061455727
1773790093427776800,8.45277685546875,-0.0015216207830235362,-0.00039927009493112564,-0.0012643053196370602
1773790093447740700,8.47274072265625,0.0006817299290560186,0.0008382047526538372,-0.0004351893439888954
1773790093467704800,8.492704833984375,0.000004548732249531895,-0.00032157893292605877,0.00012442190200090408
1773790093487668700,8.512668701171876,0.0013058673357591033,0.0008674070704728365,-0.0004895413294434547
1773790093507632600,8.532632568359375,-0.0012200928758829832,-0.00012546731159090996,0.0008445908315479755
1773790093527596800,8.5525966796875,0.0007541704690083861,0.00006026006303727627,0.0003371327184140682
1773790093547560700,8.572560791015626,-0.0009946450591087341,-0.0006074144039303064,-0.001424853689968586
1773790093567524600,8.592524658203125,-0.0006640512146987021,0.000429266132414341,0.00030395109206438065
1773790093587488800,8.61248876953125,-0.0003209564310964197,-0.0004539049696177244,-0.0008439375087618828
1773790093607453000,8.632452880859375,0.0003925131750293076,0.0008666410576552153,0.0003709099255502224
1773790093627416800,8.652416748046875,0.00170912966132164,0.00011440366506576538,-0.00025553442537784576
1773790093647380700,8.672380615234376,-0.0018061728915199637,0.0002916143275797367,0.00014272239059209824
1773790093667345000,8.692344970703125,-0.00006136510637588799,0.0003898723516613245,0.00028034625574946404
1773790093687308800,8.712308837890625,-0.00039945606840774417,0.0009519285522401333,0.0011640693992376328
1773790093707272700,8.732272705078126,0.0003105316136498004,-0.0005895150825381279,0.0007390598766505718
1773790093727236900,8.75223681640625,-0.0010710668284446,-0.0007418054156005383,0.0008838172070682049
1773790093747200800,8.77220068359375,0.00010277370893163607,-0.00019635818898677826,0.00009629270061850548
1773790093767164700,8.79216455078125,0.00020132953068241477,0.0005529446061700583,0.00004240265116095543
1773790093787128600,8.812128662109375,-0.0010199319804087281,-0.00013745203614234924,-0.00004824157804250717
1773790093807092700,8.8320927734375,-0.0009240983636118472,0.0004597487859427929,0.0006788335740566254
1773790093827056600,8.852056640625,-0.0006067672511562705,0.0002803206443786621,0.00045888544991612434
1773790093847020800,8.872020751953125,-0.00021723442478105426,0.0008775219321250916,0.0002004639245569706
1773790093866985000,8.89198486328125,0.00028894003480672836,0.0003342367708683014,0.0006484575569629669
1773790093886948900,8.911948974609375,-0.00035372324055060744,-0.00007465574890375137,-0.00022798869758844376
1773790093906912800,8.931912841796875,0.0003146540548186749,-0.0010422805789858103,-0.0003852890804409981
1773790093926876700,8.951876708984376,-0.0003265058621764183,0.0007770212832838297,0.00015070941299200058
1773790093946840800,8.9718408203125,0.0001949612924363464,0.000624560983851552,0.0002859923988580704
1773790093966804700,8.9918046875,0.001244280720129609,0.0002709990367293358,0.00022742664441466331
1773790093986768600,9.0117685546875,-0.0010567140998318791,0.0008035390637814999,0.0007102838717401028
1773790094006732800,9.03173291015625,0.0007535783224739134,0.0003034451510757208,-0.0010549770668148994
1773790094026696700,9.05169677734375,-0.001135013997554779,0.0005748346447944641,-0.0007530767470598221
1773790094046660600,9.07166064453125,-0.0006804981967434287,-0.0007549719884991646,0.0009061694145202637
1773790094066624800,9.091624755859375,0.0005343452794477344,0.001331491395831108,0.00021342141553759575
1773790094086589000,9.1115888671875,0.00007915000605862588,0.001539766788482666,-0.0011787614785134792
1773790094106552800,9.131552734375,-0.0016280084382742643,-0.0005090304184705019,0.00035472447052598
1773790094126516700,9.151516845703124,0.00036691309651359916,0.0011965748853981495,-0.0005249194800853729
1773790094146481000,9.17148095703125,-0.0001232256181538105,-0.0001295139081776142,-0.00026658782735466957
1773790094166444800,9.19144482421875,0.0008621878805570304,0.0005531206261366606,-0.00036712922155857086
1773790094186408700,9.21140869140625,-0.000530449440702796,-0.0005072236526757479,0.00010641198605298996
1773790094206372900,9.231372802734375,-0.000514174927957356,0.0009431042708456516,0.0011597969569265842
1773790094226336800,9.251336669921875,0.0007152018952183425,-0.0005771841388195753,0.00006596976891160011
1773790094246300700,9.27130078125,-0.00041959743248298764,0.0006871793884783983,-0.0006203618831932545
1773790094266264300,9.291264404296875,-0.0018978784792125225,0.0012751182075589895,-0.00044740596786141396
1773790094286228200,9.311228271484374,-0.0005330057465471327,0.000022295396775007248,-0.00006672460585832596
1773790094306192100,9.331192138671875,-0.0004104799882043153,-0.001036748755723238,0.00025806576013565063
1773790094326156300,9.35115625,0.0006577898166142404,-0.0002485655713826418,0.0008968878537416458
1773790094346120400,9.371120361328124,-0.0011593763483688235,-0.0004933679010719061,-0.0015807868912816048
1773790094366084400,9.39108447265625,0.00014426710549741983,0.0012532557593658566,0.0004144241102039814
1773790094386048300,9.41104833984375,-0.0019268014002591372,0.001023187767714262,0.0001300969161093235
1773790094406012400,9.431012451171876,0.001235805219039321,-0.00023090303875505924,0.001246828120201826
1773790094425976300,9.450976318359375,-0.00005823493120260537,-0.0004491349682211876,0.00010301778092980385
1773790094445940200,9.470940185546874,-0.0007946473779156804,-0.00008947704918682575,0.0004590027965605259
1773790094465904000,9.490904052734376,-0.0005188034265302122,0.00003607734106481075,-0.000480123795568943
1773790094485868300,9.510868408203125,-0.0008399458602070808,0.0016856628935784101,-0.0007008789107203484
1773790094505832200,9.530832275390624,0.00010174541239393875,-0.0006346930749714375,-0.0003583063371479511
1773790094525796000,9.550796142578125,0.0005341807845979929,-0.0005205930210649967,0.00044048717245459557
1773790094545760300,9.57076025390625,-0.00043285454739816487,0.0006344595458358526,-0.000389645341783762
1773790094565724400,9.590724365234376,0.0005475572543218732,0.001626242883503437,-0.0017359675839543343
1773790094585688300,9.610688232421875,-0.0004516399931162596,0.0013396743452176452,-0.0004248032346367836
1773790094605652200,9.63065234375,-0.0020024674013257027,0.0010760831646621227,-0.0004256265237927437
1773790094625616400,9.650616455078126,0.00003210407157894224,-0.0004909655544906855,0.00014129281044006348
1773790094645580300,9.670580322265625,0.0013545916881412268,-0.00046035065315663815,-0.00016490835696458817
1773790094665544200,9.690544189453124,0.0006230053259059787,0.00024555367417633533,0.0010668197646737099
1773790094685508400,9.71050830078125,0.0011782848741859198,0.00022809533402323723,0.0013111368753015995
1773790094705471200,9.73047119140625,-0.0009216060861945152,0.00008225115016102791,-0.00048224255442619324
1773790094725435100,9.75043505859375,0.0008525915909558535,-0.0002571174409240484,0.000013242941349744797
1773790094745399300,9.7703994140625,-0.0025019326712936163,0.00013456493616104126,0.00044129882007837296
1773790094765363200,9.79036328125,-0.0003525162464939058,0.0007689238991588354,0.0011757812462747097
1773790094785327000,9.8103271484375,-0.00017912616021931171,-0.000036975834518671036,0.0008076471276581287
1773790094805291300,9.830291259765625,-0.000011723983334377408,0.0003983567003160715,0.0008886558935046196
1773790094825255200,9.850255126953124,0.0003207710979040712,0.0001336440909653902,0.00039122626185417175
1773790094845219300,9.87021923828125,0.00019604043336585164,-0.00044801575131714344,-0.00018091034144163132
1773790094865183200,9.890183349609375,-0.00021670613205060363,-0.00015947222709655762,0.0005530547350645065
1773790094885147400,9.9101474609375,0.00047680491115897894,0.00006641191430389881,-0.0017038220539689064
1773790094905111300,9.930111328125,0.0007220401894301176,-0.0009055051486939192,0.00034067220985889435
1773790094925075200,9.9500751953125,0.0003863070160150528,-0.00027597276493906975,0.0014591370709240437
1773790094945039400,9.970039306640626,-0.0006794022629037499,-0.0012670813594013453,-0.00048372289165854454
1773790094965003300,9.990003173828125,0.0007496696198359132,0.000695396913215518,0.0005708271637558937
1773790094984967200,10.00996728515625,-0.00013019738253206015,-0.0000563811045140028,-0.0005803252570331097
1773790095004931300,10.029931396484375,0.00028376723639667034,-0.0003149786498397589,-0.00008770590648055077
1773790095024895200,10.049895263671875,-0.00037101106136105955,-0.00004196958616375923,-0.00045561743900179863
1773790095044859100,10.069859130859374,-0.0002754979068413377,0.0005575744435191154,-0.0012702853418886662
1773790095064823000,10.089822998046875,0.00042516528628766537,-0.00034137116745114326,-0.00021876581013202667
1773790095084787500,10.109787353515625,0.000337997917085886,-0.00012664194218814373,-0.00033848918974399567
1773790095104751400,10.12975146484375,0.0019132219022139907,0.0001661295536905527,-0.0001456993632018566
1773790095124715300,10.14971533203125,0.0005691967671737075,0.001112561789341271,-0.0009514489211142063
1773790095144679400,10.169679443359374,0.00005680753383785486,-0.00015099067240953445,0.00010739406570792198
1773790095164643300,10.189643310546876,0.0009433150989934802,-0.00029426231049001217,0.0012240991927683353
1773790095184607200,10.209607177734375,0.00010204178397543728,-0.00041367392987012863,0.0005161343142390251
1773790095204571100,10.229571044921874,-0.00025840249145403504,0.0006526161450892687,-0.0005557071417570114
1773790095224535300,10.249535400390625,0.0002858945226762444,0.00015460001304745674,0.0008772863075137138
1773790095244499200,10.269499267578125,0.0013437778688967228,0.0004369453527033329,-0.00002198386937379837
1773790095264464000,10.2894638671875,0.0003574297297745943,-0.0006638376507908106,0.0021158987656235695
1773790095284427800,10.309427734375,-0.00024643191136419773,0.0007111332379281521,0.0012795496731996536
1773790095304392000,10.329391845703125,0.001187704736366868,-0.0008076063822954893,0.0005119186826050282
1773790095324355800,10.34935595703125,-0.0001365372445434332,0.00020395801402628422,0.0011730249971151352
1773790095344319700,10.36931982421875,0.0005690586986020207,0.00047461199574172497,-0.0012680147774517536
1773790095364284000,10.389283935546874,0.00033076960244216025,-0.0007270427886396646,0.0002308199182152748
1773790095384247800,10.409247802734376,0.0011101773707196116,-0.0007484345696866512,0.0011278451420366764
1773790095404211700,10.429211669921875,-0.0004537956556305289,-0.00007837382145226002,-0.0003952919505536556
1773790095424175600,10.449175537109374,0.000624755397439003,0.00015901890583336353,-0.0013085897080600262
1773790095444139800,10.469139892578125,0.0006656608893536031,0.0006664437241852283,-0.0003320476971566677
1773790095464103700,10.489103759765625,-0.0005574492970481515,0.0007922912482172251,0.0017527579329907894
1773790095484067800,10.50906787109375,0.00022999518841970712,0.00013321172446012497,-0.0006193239241838455
1773790095504032000,10.529031982421875,5.740148480981588e-7,0.001397040206938982,-0.00034213950857520103
1773790095523996000,10.548995849609375,0.00012631739082280546,-0.00022176746279001236,-0.0008013430051505566
1773790095543959800,10.568959716796876,-0.0006182612851262093,0.0006405033636838198,0.0014810324646532536
1773790095563923700,10.588923828125,-0.00011576880933716893,-0.00007098051719367504,0.0007869703695178032
1773790095583888000,10.608887939453124,-0.000735209439881146,0.00028787367045879364,0.00028721336275339127
1773790095603851800,10.628851806640625,-0.00011901813559234142,-0.0005794696044176817,-0.00023778295144438744
1773790095623815700,10.648815673828125,0.0003035016998182982,0.0009544098284095526,0.0007986398413777351
1773790095643779800,10.66877978515625,-0.00003088475205004215,-0.0003546669613569975,0.0008239112794399261
1773790095663742700,10.68874267578125,-0.0005670167738571763,-0.0003918397706001997,0.00006483076140284538
1773790095683707600,10.708707763671875,-0.00025173131143674254,-0.0007403409108519554,-0.0015244386158883572
1773790095703670800,10.7286708984375,0.0004712730005849153,-0.0005554219242185354,0.0001042783260345459
1773790095723634700,10.748634765625,0.001614772598259151,0.0002993992529809475,0.00017682136967778206
1773790095743598600,10.7685986328125,-0.0008447885629720986,0.000057748518884181976,-0.0009859465062618256
1773790095763563000,10.78856298828125,0.00015049861394800246,-0.00044759386219084263,0.0007942807860672474
1773790095783527000,10.80852685546875,-0.00018911005463451147,0.001060048583894968,-0.00002460787072777748
1773790095803490800,10.82849072265625,-0.00047229358460754156,0.0011715337168425322,-0.00007526250556111336
1773790095823455000,10.848455078125,-0.00011180678848177195,-0.0004400326870381832,-0.0007173060439527035
1773790095843419000,10.8684189453125,-0.0000010368821676820517,0.0010790484957396984,0.0001171724870800972
1773790095863382800,10.8883828125,-0.00035528047010302544,-0.00015517370775341988,0.00043795816600322723
1773790095883346700,10.9083466796875,-0.00015874281234573573,0.0004111630842089653,0.00011627050116658211
1773790095903310800,10.928310791015624,-0.0009707056451588869,0.00012047146447002888,0.00013642990961670876
1773790095923274800,10.948274658203125,0.00005551536742132157,-0.0003156396560370922,-0.0010136039927601814
1773790095943238700,10.96823876953125,-0.0006619659252464771,0.0008753424044698477,0.00005082087591290474
1773790095963202800,10.988202880859374,-0.0005149551434442401,0.0008662710897624493,0.000574049074202776
1773790095983166700,11.008166748046875,0.0006924447370693088,-0.0006672418676316738,-0.00036152778193354607
1773790096003131000,11.028130859375,0.0003294406342320144,0.0016251367051154375,-0.0001991880126297474
1773790096023094800,11.0480947265625,0.0005281897028908134,-0.0011107053142040968,0.0005033505149185658
1773790096043059000,11.068058837890625,-0.000631872855592519,-0.00007203756831586361,-0.00024795765057206154
1773790096063022800,11.08802294921875,-0.00007370374805759639,0.0008329597767442465,0.0011833896860480309
1773790096082986800,11.10798681640625,0.00001369020901620388,0.00003937492147088051,-0.0012300037778913975
1773790096102951000,11.127950927734375,-0.0019181572133675218,-0.0010413445997983217,0.0003618537448346615
1773790096122914800,11.147914794921874,-0.0014349013799801469,-0.00011333194561302662,-0.0012461915612220764
1773790096142878700,11.167878662109375,-0.0005107757751829922,0.00003228709101676941,0.0006347177550196648
1773790096162842600,11.187842529296875,-0.000666809210088104,0.0012608441757038236,-0.00006636418402194977
1773790096182806800,11.207806884765626,0.00043976574670523405,0.00009599165059626102,-0.00008954526856541634
