time,seconds_elapsed,z,y,x
1773790797275477800,0.064477783203125,0.04940846629142761,0.00977479973102454,0.0019060893496498465
1773790797295440400,0.0844404296875,0.04027940341830254,-0.0008874914582120254,-0.005650810569617897
1773790797315403500,0.104403564453125,0.0342898076146841,0.0036429733119672163,0.011128419996798037
1773790797335366400,0.124366455078125,0.053740358015894885,0.006652484725718386,-0.01030455465959385
1773790797355329500,0.14432958984375,0.03563362343907356,0.008215642389212734,0.009161211577057838
1773790797375292400,0.16429248046875,0.03458323760330677,0.010179037716938183,0.003888367474358529
1773790797395255600,0.184255615234375,0.041319852381944654,0.014756140940706245,-0.004451152456272393
1773790797415218700,0.20421875,0.048799979004263874,0.005535362929827533,0.00015668839905411003
1773790797435181600,0.224181640625,0.038325931262969966,0.0020763724492164327,0.0019463848274201153
1773790797455144700,0.244144775390625,0.045510874330997465,0.008231063720630481,0.004854326429683715
1773790797475107300,0.264107421875,0.03504267180860042,0.010026769764674827,0.010661989795137196
1773790797495070500,0.284070556640625,0.039083471632003784,0.0030223845950560642,-0.004746847467217594
1773790797515033600,0.30403369140625,0.04417115015983581,0.00021735537799540906,-0.008045943811535835
1773790797534996500,0.32399658203125,0.03953179992139339,0.005419504298083484,-0.006665211776550859
1773790797554959600,0.343959716796875,0.03265022371411323,0.016221843278827145,0.0013174210078082979
1773790797574922500,0.363922607421875,0.04312485597729682,0.003247388989967294,-0.0006445815138518809
1773790797594885600,0.3838857421875,0.04416998111605644,-0.004765497368760406,0.0018331885102204977
1773790797614849500,0.403849609375,0.04641220708489418,0.0071694441047962755,0.0018326953198760747
1773790797634812700,0.423812744140625,0.03893149594068527,0.008496432091970927,0.002680690451338887
1773790797654775600,0.443775634765625,0.037736148676276206,-0.0026560355006949973,0.00800088082710281
1773790797674738700,0.46373876953125,0.04252279843091965,0.01819432152872905,0.0052798583653755485
1773790797694701300,0.483701416015625,0.03997954368889332,0.006831206860067322,0.0033094168089330194
1773790797714664400,0.50366455078125,0.02950549594759941,0.014691364042228088,0.007927578128874301
1773790797734627600,0.523627685546875,0.03907996450066566,0.004149548294348642,0.004742189558409154
1773790797754590500,0.543590576171875,0.04506663769483566,0.0005341160098556428,-0.0029450587422586976
1773790797774553600,0.5635537109375,0.03294599179029464,0.004090694246580824,0.0028535080012865362
1773790797794516500,0.5835166015625,0.04387070590853691,0.00024335290235467255,-0.007640870141983031
1773790797814479600,0.603479736328125,0.04566577263176441,0.00593256382017862,0.013916242350731044
1773790797834442500,0.6234423828125,0.03922843306064606,-0.005788839933974668,-0.0019815292060375213
1773790797854405600,0.643405517578125,0.0483545733243227,0.0026847638382576406,0.004209123861324042
1773790797874368800,0.66336865234375,0.03129530197381973,0.013143006655643693,-0.004145611904747784
1773790797894331400,0.683331298828125,0.04132043690383434,0.0048185472968267275,-0.0012867153422906994
1773790797914294500,0.70329443359375,0.02844926489293575,0.00862657041081693,-0.0034573556459508836
1773790797934257400,0.72325732421875,0.043861938080191606,0.008256691352231428,-0.007459522225707769
1773790797954221300,0.74322119140625,0.04625321713089943,-0.003382153251580894,0.0040320502613671125
1773790797974184200,0.76318408203125,0.049992403659224506,-0.0010890373457223177,-0.009810578863881527
1773790797994147000,0.78314697265625,0.04325578888058662,0.013497167555289341,0.0006438508614897728
1773790798014110200,0.803110107421875,0.03353051367998123,0.006248091476177797,-0.014672558877058326
1773790798034073000,0.823072998046875,0.04101239386796951,0.006630213528405875,0.014683683059271424
1773790798054036200,0.8430361328125,0.04101005578041077,0.005819002176797948,0.0013540266911499202
1773790798073999000,0.8629990234375,0.04205810352861881,0.006784477074933238,-0.0026734387266449627
1773790798093962200,0.882962158203125,0.04190846592485904,0.01936237436083611,-0.006868862856179475
1773790798113925000,0.902925048828125,0.03996083898842334,0.0130746997929411,0.007901566904783249
1773790798133888300,0.92288818359375,0.03831657891273498,0.009605594343692063,-0.005479527389630675
1773790798153851400,0.942851318359375,0.043701779082417486,0.007623252286901697,0.006586283055134117
1773790798173814000,0.96281396484375,0.027090251499414443,0.008555596666992642,-0.0008105674642138183
1773790798193777200,0.982777099609375,0.041456045982241625,-0.007341887195408344,0.0005008256616070866
1773790798213740000,1.002739990234375,0.04639233334064483,0.01349206212190911,0.0017767090826295315
1773790798233703200,1.022703125,0.035468203744292257,-0.0022555649410234764,0.0022602730821818114
1773790798253666000,1.042666015625,0.038759061983227726,0.012690563880139961,-0.0033467714109458027
1773790798273629200,1.062629150390625,0.0499795441776514,-0.0028810535953380165,0.010091606028657406
1773790798293592300,1.08259228515625,0.032471944537758826,0.00037532241868320853,0.00410913408556953
1773790798313555200,1.10255517578125,0.040701428222656245,0.009899015199160203,0.003950655588228255
1773790798333518300,1.122518310546875,0.03516483688354492,0.007926998173561878,0.00980080638853833
1773790798353482200,1.142482177734375,0.03890577697753906,0.0030533916546730323,0.0012884871742688119
1773790798373445400,1.1624453125,0.050128012737631795,0.0027265114875975995,-0.002253441482596099
1773790798393408000,1.182407958984375,0.042943069669604296,0.001190241831028834,0.006199238232616335
1773790798413371100,1.20237109375,0.039653380474448205,-0.003993028858653269,-0.0012165727155283093
1773790798433334000,1.222333984375,0.04159983836710453,-0.003859566071559675,-0.0026042642142623663
1773790798453297200,1.242297119140625,0.036512159839272494,0.008219478314113803,0.00565002511832863
1773790798473260300,1.26226025390625,0.04219663521647453,0.013897802511742339,0.000642097295820713
1773790798493223200,1.28222314453125,0.04309212275147438,-0.002238061250373721,0.004483794350549578
1773790798513186300,1.302186279296875,0.02797697120606899,0.008281474167038685,-0.0054763855844736095
1773790798533149200,1.322149169921875,0.03665712126791477,0.00537480207325425,-0.0026552820154465734
1773790798553112300,1.3421123046875,0.039650457864999766,0.009146621362701989,-0.0031638160594739018
1773790798573075000,1.362074951171875,0.04039981492757797,0.009169915473321452,-0.01175066181467846
1773790798593038000,1.3820380859375,0.039352936223149296,0.009426835676725021,0.00424867042042315
1773790798613001200,1.402001220703125,0.04189385287761688,0.013080188818811438,0.0018153057936578989
1773790798632964000,1.421964111328125,0.048180385801196095,-0.0009650365067180246,-0.000814933112077415
1773790798652927200,1.44192724609375,0.050875616234540934,0.008501916551264003,0.0002970101851969957
1773790798672890000,1.46189013671875,0.032469021928310395,-0.0036117698895279317,-0.00012152575412765145
1773790798692853200,1.481853271484375,0.04024900828003883,-0.005584691097424366,0.0027872012994252142
1773790798712816000,1.501816162109375,0.040698505613207814,0.0045548776922281825,0.000985467373393476
1773790798732779300,1.521779296875,0.046236265996098515,-0.0004424876370700076,0.015183832867443561
1773790798752743200,1.5417431640625,0.039654549518227576,0.011549960743961855,-0.005381382511090487
1773790798772705000,1.561705078125,0.03531505900919437,0.008270436749793589,-0.003156801796797663
1773790798792669200,1.581669189453125,0.03232172241210937,-0.0028196879300754515,-0.011191913687065243
1773790798812632000,1.601632080078125,0.03995148663818836,0.010318647117028013,-0.01109879204351455
1773790798832595200,1.62159521484375,0.04219721973836422,0.000916133030806668,-0.0036348493710160255
1773790798852558000,1.64155810546875,0.037408231896162034,-0.00015203505682293326,0.0040471564989537
1773790798872521200,1.661521240234375,0.036360184147953986,0.0009712150857551022,0.0034844993812032043
1773790798892484000,1.681484130859375,0.03920388314127922,0.004393873877660371,0.015593637511041014
1773790798912447200,1.701447265625,0.03695931908488274,0.005855539361480623,0.0017686536403372882
1773790798932410400,1.721410400390625,0.048183308410644526,0.006896216653985902,0.009358231986500322
1773790798952373500,1.74137353515625,0.034116204613447186,-0.0057129571195924655,-0.009620463119260967
1773790798972336600,1.761336669921875,0.041000703430175776,0.0067089458870003,0.010718889347836375
1773790798992299500,1.781299560546875,0.03456745551228523,0.007150342112104408,-0.006983027287758886
1773790799012262700,1.8012626953125,0.04279460110962391,0.0003988859573611989,0.0010401201700791715
1773790799032225300,1.821225341796875,0.0321679931551218,0.008147892648936249,0.0016984196820296346
1773790799052188400,1.8411884765625,0.05132043739259243,0.01106374356301967,0.0026146029451861977
1773790799072151300,1.8611513671875,0.043837388160824775,0.003667221837234683,-0.0005821107368916273
1773790799092114400,1.881114501953125,0.03710661860108375,0.010763418042729608,0.007542067676316946
1773790799112077600,1.90107763671875,0.043542789128422736,-0.0035025008287746457,-0.0004472323108464479
1773790799132040400,1.92104052734375,0.03606149346232414,-0.0014930926685454322,-0.008398830636125057
1773790799152003600,1.941003662109375,0.040104631373286244,0.002274370106193237,0.00796381848603487
1773790799171966500,1.960966552734375,0.035465865656733514,0.007945068119792268,0.003348689373396337
1773790799191929600,1.9809296875,0.0535696776241064,-0.004161910019000061,0.0022536241456866265
1773790799211892500,2.000892578125,0.03950140478312969,-0.0007284832379082217,0.012708437463548035
1773790799231855400,2.02085546875,0.04204290595948696,0.01081369605839718,-0.002612831113208085
1773790799251818500,2.040818603515625,0.03785422209799289,0.0025157730800565332,0.006186196087952703
1773790799271782400,2.060782470703125,0.04398702576458454,0.00480732264991384,0.00746540397722274
1773790799291745500,2.08074560546875,0.04787877250611782,0.008791250320081599,-0.0028777108607813714
1773790799311708400,2.10070849609375,0.02932370963990688,-0.001970190394693054,-0.0021260339769534767
1773790799331671600,2.120671630859375,0.036055063721537585,-0.001331974689546041,-0.007140355007629841
1773790799351634400,2.140634521484375,0.04084463608562946,-0.002596939424332231,0.007191336276195943
1773790799371597600,2.16059765625,0.04338672178387642,-0.003968771200231276,0.0025930852331221103
1773790799391560400,2.180560546875,0.04757715921103954,-0.014328882838808931,-0.003391633465979248
1773790799411523600,2.200523681640625,0.0317149886906147,0.011642744460795074,-0.004378196817915886
1773790799431486500,2.220486572265625,0.042786417803168296,0.006959893007343634,-0.003448569551296532
1773790799451449300,2.240449462890625,0.043082770401239395,0.006566528041893616,0.0027148849818855523
1773790799471412500,2.26041259765625,0.03963642933964729,-0.0030247911812737584,0.0066920449845492835
1773790799491375400,2.280375244140625,0.0430780942261219,0.0033247970411553977,0.007158730914536863
1773790799511338500,2.30033837890625,0.03829027542769909,0.0013072192742023616,-0.005711272052582353
1773790799531301400,2.32030126953125,0.03529693883061409,0.009447540538036264,0.002281279337592423
1773790799551264500,2.340264404296875,0.034849195063114166,0.010909206021856516,0.001947334675490856
1773790799571227600,2.3602275390625,0.048016135150194164,0.012014687612303532,0.008699987273477018
1773790799591190500,2.3801904296875,0.03140811469852924,-0.0018776761059183626,0.0037337249019183216
1773790799611153400,2.4001533203125,0.04876958386600017,-0.005998696992103941,-0.011222710684128105
1773790799631116300,2.4201162109375,0.04039104709923267,-0.0013367284964770079,0.0004449855548329651
1773790799651079400,2.440079345703125,0.029916999357938765,0.004659899836126715,0.0014560622935183346
1773790799671042600,2.46004248046875,0.047126492834091184,0.009244172586197964,0.010549250135663896
1773790799691005400,2.48000537109375,0.042186113822460174,0.001713676616665907,0.004560220587626099
1773790799710968600,2.499968505859375,0.040837037301063535,-0.009028525108098984,-0.0070129657682962716
1773790799730931500,2.519931396484375,0.04098609038293361,0.01435333686005324,0.005410389409866183
1773790799750894600,2.53989453125,0.03260989170372486,-0.0027849454102572054,-0.0026495646607130764
1773790799770857500,2.559857421875,0.04772445872724056,0.004386001098458655,0.004558777549210935
1773790799790820400,2.5798203125,0.038892332974076266,0.005999336312920786,-0.0029427023883908986
1773790799810783500,2.599783447265625,0.03515080835819244,-0.0024371092201210557,0.0047373124538920815
1773790799830746400,2.619746337890625,0.030510873597860335,0.0023007146904245016,0.0030247911812737584
1773790799850709500,2.63970947265625,0.03380348540246486,-0.0025229608726687726,-0.008715294440463185
1773790799870672400,2.65967236328125,0.05236030183434486,0.006123684211797081,0.00233540241131559
1773790799890636500,2.679636474609375,0.05161269833743572,-0.007976659701298922,-0.00484369543781504
1773790799910599400,2.699599365234375,0.019891279906034467,0.005990719181625172,0.010162260112073272
1773790799930562600,2.7195625,0.03605155659019947,0.0022767447263700885,0.00570098812058568
1773790799950525700,2.739525634765625,0.042186698344349856,0.012412527823471464,-0.0058651109074242406
1773790799970488800,2.75948876953125,0.051014147922396655,0.006447335808747448,0.007046393113862723
1773790799990451700,2.77945166015625,0.04891746790409088,0.004286093521094881,0.00040624271333217617
1773790800010414800,2.799414794921875,0.03380290088057518,0.00391870324711781,0.009640081135183573
1773790800030378000,2.8193779296875,0.03484861054122448,-0.005275099991867318,0.011373809592612086
1773790800050340900,2.8393408203125,0.05011223064661026,0.0025918705235701053,0.012817962252628058
1773790800070304000,2.859303955078125,0.04547404945194721,0.009042220273311249,0.002604136350098997
1773790800090266600,2.8792666015625,0.04188274696171283,0.013308485715929418,-0.01054057363886386
1773790800110229800,2.899229736328125,0.027370822006464002,0.0035457737149205055,0.01149440376497805
1773790800130192600,2.919192626953125,0.048768999344110484,0.005319130929838866,0.0036067375213839114
1773790800150155800,2.93915576171875,0.040239655929803844,0.012633810457913204,-0.010501702933199703
1773790800170119000,2.959118896484375,0.027069208711385725,0.004182792976824567,0.001260101330000907
1773790800190081800,2.979081787109375,0.035597383081912994,-0.002317213734076358,0.0022331476132385433
1773790800210045000,2.999044921875,0.04412731101810932,0.016890563720092178,0.010263820790406317
1773790800230007800,3.0190078125,0.04741816925704479,0.006827845859201625,0.007943579415604472
1773790800249971000,3.038970947265625,0.039487960779666896,0.009330686392448842,0.0060546055975370106
1773790800269933800,3.058933837890625,0.029312603724002836,0.003481079014833085,0.007082249878533184
1773790800289896700,3.078896728515625,0.05430383711755275,0.012683138625510036,0.0030039675889536738
1773790800309859800,3.09885986328125,0.03455225794315338,0.0028195007004076615,0.0037616723547689614
1773790800329822700,3.11882275390625,0.042784079715609546,0.01314396563686896,0.006742679193243384
1773790800349785900,3.138785888671875,0.0373965414583683,-0.0023391378715168685,0.015853494023624806
1773790800369748700,3.158748779296875,0.04697393262088299,0.0050649095735978335,-0.0028579467143863436
1773790800389712000,3.1787119140625,0.048023149412870406,-0.008882394635677337,0.011748725585918872
1773790800409675000,3.198675048828125,0.03919862244427204,0.014947179133933968,0.005598422795254737
1773790800429638000,3.218637939453125,0.059250645869970316,0.005779546949244104,0.0009042736296541988
1773790800449600800,3.238600830078125,0.041891514790058135,0.006610010990593582,0.008745945307053625
1773790800469563600,3.258563720703125,0.03052197951376438,0.010376259055780246,0.00023099574428051708
1773790800489526800,3.27852685546875,0.046535541203618046,0.0002614319817395881,-0.0037347843478433788
1773790800509489700,3.29848974609375,0.035161914274096484,0.0024994795323815197,0.005296224978286772
1773790800529452800,3.318452880859375,0.05192483302652835,0.003774413105333224,0.005300773289240897
1773790800549416000,3.338416015625,0.04324760557413101,0.005966854248847812,-0.0026950843028724194
1773790800569378800,3.35837890625,0.038160511568188664,0.003849273006408475,-0.0024290537778288127
1773790800589342000,3.378342041015625,0.03157411891520023,0.015463060800777747,-0.003391213340871036
1773790800609305900,3.398305908203125,0.0384551106005907,0.010461147160525434,0.006931224035285413
1773790800629269000,3.41826904296875,0.038003859701752664,-0.0017209648739779366,0.006107267366535961
1773790800649232000,3.43823193359375,0.037705169016122815,0.0009115801532752812,0.008508994746021925
1773790800669194800,3.45819482421875,0.042048751178383824,0.008805730936583132,-0.0014055376826785503
1773790800689157600,3.47815771484375,0.04055295966267586,0.0027849956426071,-0.002911028608493507
1773790800709120800,3.498120849609375,0.03307224851846695,0.005938820031029172,0.0025444237858057023
1773790800729084000,3.518083984375,0.04115560173094272,-0.0012387388815637678,0.0021578904199413954
1773790800749046800,3.538046875,0.03846446295082569,-0.00187183545359876,0.009690824941731988
1773790800769010000,3.558010009765625,0.035923546296358105,0.0006649941142182797,0.011265892238728701
1773790800788972800,3.577972900390625,0.03711713999509811,0.009321343175368382,-0.002640595902968198
1773790800808936000,3.59793603515625,0.040109892070293425,-0.007108069306379184,0.0016925744631327688
1773790800828898800,3.61789892578125,0.04100713317096233,-0.0012827789526898413,-0.0018066840957850216
1773790800848861700,3.63786181640625,0.05372866757810116,0.001487959835701622,-0.00009549626372754574
1773790800868824800,3.657824951171875,0.048341129320859905,0.004034465980739333,-0.002014810421131551
1773790800888787700,3.67778759765625,0.050588615986704825,0.007060910262982361,0.010437697786279022
1773790800908750800,3.697750732421875,0.03607552198767662,0.0033865691317943856,0.009050426412653178
1773790800928713700,3.717713623046875,0.04520283129513263,-0.003084385014558211,0.0000982179437763989
1773790800948676900,3.7376767578125,0.03352876011431217,0.00003351867711171508,0.005011690682172775
1773790800968639700,3.7576396484375,0.04938917706906795,-0.003429828318208456,-0.0003531242866069078
1773790800988603000,3.777602783203125,0.030087095227837563,-0.003788478163303807,-0.003674432462733239
1773790801008566000,3.79756591796875,0.043105566754937166,-0.006132552504842169,0.0017302030597813427
1773790801028528600,3.817528564453125,0.030087679749727248,0.006135881539667025,0.0030616525929421184
1773790801048491800,3.83749169921875,0.03382920436561108,0.00042945005898363883,-0.010423650994617492
1773790801068454700,3.85745458984375,0.040863925307989116,0.0016605262238997965,-0.001344345547351986
1773790801088417800,3.877417724609375,0.043105566754937166,0.013597600289038381,-0.003937631709873676
1773790801108380700,3.897380615234375,0.03143032653033733,0.006487480589468032,0.0011331139494664966
1773790801128343800,3.91734375,0.04115384816527366,0.0025976152777671814,0.0005219415148720145
1773790801148307000,3.937306884765625,0.022000234884023664,0.001251096039637923,-0.002295179998781532
1773790801168269800,3.957269775390625,0.049533553975820536,0.0019330230223480612,0.004886950057651847
1773790801188233000,3.97723291015625,0.03247662071287632,0.00011410506607498972,0.006516816281806677
1773790801208195600,3.997195556640625,0.04669102402627468,0.002894808126054704,0.012728366006724535
1773790801228158700,4.01715869140625,0.041453123372793194,-0.0022631819918984544,0.004699062802735716
1773790801248121900,4.037121826171875,0.03696399526000023,0.001225395342800766,-0.0038503187526017424
1773790801268084700,4.057084716796875,0.059410220345854754,-0.0034928105518221854,0.00044319545654579993
1773790801288047900,4.0770478515625,0.041000703430175776,0.0013515105070779098,-0.0033087226891890167
1773790801308010800,4.0970107421875,0.03935410526692867,0.0023942381927743554,-0.0008974237637594341
1773790801327974000,4.116973876953125,0.04099719629883766,0.0011001112955855204,0.016885138626303524
1773790801347936800,4.136936767578125,0.03845335703492164,0.00025928112384863197,0.0033862631711177524
1773790801367900000,4.15689990234375,0.04279577015340328,0.00482972171138972,0.008169844185840339
1773790801387862800,4.17686279296875,0.042346272820234294,0.01212861914844252,0.010543149188440293
1773790801407825700,4.19682568359375,0.04384031077027321,0.0032534168719546867,0.005675981543492525
1773790801427788800,4.216788818359375,0.034411388167738914,0.008500816006143577,0.0015087788614444435
1773790801447751700,4.236751708984375,0.026627894684672353,-0.0033886377912946044,0.0027522395838983356
1773790801467714800,4.25671484375,0.04862696052491665,0.00659998735350091,-0.009015866555925458
1773790801487677700,4.276677734375,0.04219195904135704,0.007904699576785787,0.003386683296225965
1773790801507640800,4.296640869140625,0.04428630097210407,0.006000112631055526,0.007433492735307664
1773790801527604000,4.31660400390625,0.03770107736289501,-0.0032475670864805578,-0.002691248377971351
1773790801547567900,4.33656787109375,0.042187282866239545,-0.002971047133463435,0.011812548069749027
1773790801567530800,4.35653076171875,0.04951835640668869,-0.006932027752883732,0.004117481788806617
1773790801587494000,4.376493896484375,0.04248597355186939,0.0017021916748490183,0.0048467641777358945
1773790801607456800,4.396456787109375,0.04143734128177166,0.007725009328057058,-0.0018710363025777042
1773790801627419600,4.416419677734375,0.04353285225629806,0.004053951565921306,-0.009510627802927047
1773790801647382800,4.4363828125,0.05056874224245548,0.005502958497568033,0.007504128552414477
1773790801667345700,4.456345703125,0.038594811332225795,0.005067329859547317,0.0035607612214982507
1773790801687308800,4.476308837890625,0.04487959069013595,-0.003056670457147993,0.00711226142430678
1773790801707272000,4.49627197265625,0.03276011382937431,0.01034850339917466,0.006776636261772364
1773790801727234800,4.51623486328125,0.0397930812060833,-0.004227458669035696,0.010193294571153819
1773790801747198000,4.536197998046875,0.03919336174726486,0.005742288245353847,-0.0024972784421406686
1773790801767160800,4.556160888671875,0.039790158596634866,0.007333114800485782,0.0008277377947233617
1773790801787123700,4.576123779296875,0.034252398213744165,0.00923118524046149,-0.0023015914732590318
1773790801807086600,4.596086669921875,0.04203413813114166,-0.014074465119745581,0.004410199391376227
1773790801827049700,4.6160498046875,0.05310848985314369,0.0024117738494649527,-0.00240108805866912
1773790801847012900,4.636012939453125,0.045775662747025485,0.009954037888604215,-0.0025407522576861084
1773790801866975700,4.655975830078125,0.03739537241458893,0.010733790089446119,-0.0035621494609862562
1773790801886939000,4.67593896484375,0.047420507344603534,-0.00380809161264915,-0.0049326888955198225
1773790801906901800,4.69590185546875,0.03993628906905651,0.0014029119007522239,0.006052395374141633
1773790801926865000,4.715864990234375,0.02841360905766487,-0.0012046630820259452,0.008653810044191777
1773790801946827500,4.73582763671875,0.04053133235275745,0.0004309159302851185,-0.000032367899641394614
1773790801966790400,4.755790283203125,0.034843934366106985,0.009603731180168688,-0.013755042173340917
1773790801986753500,4.77575341796875,0.036788638693094254,0.0029546074553159995,-0.00028884514505043627
1773790802006716400,4.79571630859375,0.046964580270648,0.010344402612792328,0.008544486184511334
1773790802026679600,4.815679443359375,0.035143209573626516,0.010559292039065622,0.006263152047991752
1773790802046642400,4.835642333984375,0.03304536051154137,0.009524802458751947,0.007456709214113652
1773790802066605300,4.855605224609375,0.03304536051154137,0.0043666296777082605,-0.004491484466660768
1773790802086568400,4.875568359375,0.046664136019349094,0.009280855901353061,0.011897650803625584
1773790802106531300,4.89553125,0.051452539339661596,-0.007294659653352573,-0.004878967680595815
1773790802126494500,4.915494384765625,0.026612112593650816,0.006447596103651448,0.000981741046346724
1773790802146457300,4.935457275390625,0.05249883352220058,0.0034754301587585357,0.011488759475480764
1773790802166420500,4.95542041015625,0.0430693263977766,0.014488539513084105,0.009477054326888173
1773790802186383400,4.97538330078125,0.042619244542717934,-0.006673472714819945,0.0029143348104320463
1773790802206346500,4.995346435546875,0.034088732084631916,0.015066238936339503,0.00521053772252053
1773790802226309600,5.0153095703125,0.044262920096516604,-0.011022146610729396,-0.005864197591971606
1773790802246272300,5.035272216796875,0.05144669412076473,0.006649393152911216,-0.001266257076151669
1773790802266235400,5.0552353515625,0.04381400728523731,0.01246465073635336,0.0015654044195078313
1773790802286198300,5.0751982421875,0.028100889846682547,0.006276367722591385,0.019143347615562377
1773790802306161400,5.095161376953125,0.03722819915413856,0.0030111553815659136,0.012151917825639248
1773790802326124500,5.11512451171875,0.02540507489144802,0.00706256336395163,0.004576203608047217
1773790802346087400,5.13508740234375,0.038871290186047555,-0.0033073207499692216,0.005115388518664985
1773790802366050600,5.155050537109375,0.044559272694587704,0.0067936741615412756,0.007007540674507618
1773790802386013400,5.175013427734375,0.04830255087614059,0.008947390729864127,0.00897449336592108
1773790802405976600,5.1949765625,0.02705342662036419,0.007240559412515722,0.0033629553607665
1773790802425939200,5.214939208984375,0.03976970033049583,0.0022531355219194663,0.00480771080898121
1773790802445902300,5.23490234375,0.04425765939950943,-0.000266450650151819,-0.0013591777903027831
1773790802465865500,5.254865478515625,0.04889642511606216,0.008293840458267369,0.00805096704652533
1773790802485828400,5.274828369140625,0.03812193312346935,0.006634702473855577,-0.0006106792442500591
1773790802505791500,5.29479150390625,0.021661796709895133,0.00023380875587463378,-0.004348696728795767
1773790802525754400,5.31475439453125,0.04500467837452888,0.005081499948794953,0.011505327017791568
1773790802545717500,5.334717529296875,0.04979483526051044,0.004371232787589542,0.007220105712953955
1773790802565680400,5.354680419921875,0.044407297003269196,0.0060718215938191855,0.004553370721731335
1773790802585643500,5.3746435546875,0.03183832280933857,0.00406869247732684,-0.006988561979401856
1773790802605606400,5.3946064453125,0.037376667714118954,-0.001656242774426937,0.004014587669912725
1773790802625569300,5.4145693359375,0.026003040784597396,0.009791417505685239,-0.003734126760717481
1773790802645532400,5.434532470703125,0.049046647241711615,0.011929639677354133,-0.008670852510537952
1773790802665495300,5.454495361328125,0.0544324319332838,0.008040952542587182,-0.00021872078459709882
1773790802685458400,5.47445849609375,0.04485270268321037,0.007658350999746471,0.015451890952792018
1773790802705421600,5.494421630859375,0.058466802015900605,0.009460221923096104,0.018868457930628208
1773790802725384400,5.514384521484375,0.0351221667855978,0.002406636450043879,-0.009046005965862422
1773790802745347600,5.53434765625,0.03826572550833225,0.0006674737656721845,-0.001023461296223104
1773790802765310500,5.554310546875,0.03751987557709217,0.012360267913271673,0.004524400355573744
1773790802785273300,5.5742734375,0.03677285660207271,0.011096367190987803,0.008690159999206661
1773790802805236200,5.594236328125,0.03976560867726803,0.006339249491505324,0.0037331038474105295
1773790802825199400,5.614199462890625,0.04335632664561272,0.0007499096184270456,-0.004891242640279233
1773790802845162500,5.63416259765625,0.04260813862681389,0.003021754407393746,-0.003937412514165043
1773790802865125400,5.65412548828125,0.028545126482844352,0.009131889584450981,0.002412504501827061
1773790802885088500,5.674088623046875,0.043510055902600285,0.014935132503113709,0.008045925545226783
1773790802905051400,5.694051513671875,0.040216275054216384,0.007686161455279216,-0.009806231482326984
1773790802925014500,5.7140146484375,0.04305997404754162,0.006315567221818492,0.01412846032930538
1773790802944978000,5.73397802734375,0.030789690539240834,0.005275953941815533,0.003044116936251521
1773790802964941000,5.753941162109375,0.03079202862679958,-0.0017357057853834702,-0.004392755066230893
1773790802984904000,5.773904052734375,0.04949731361865997,0.016674806644138878,-0.0009889197058044372
1773790803004867000,5.7938671875,0.04800386019051075,0.002914663603994995,0.0019161175533197819
1773790803024830000,5.813829833984375,0.04531213688850402,0.009531748222769237,0.008911876458488404
1773790803044792800,5.833792724609375,0.03797814073860645,0.0002850731522310525,0.01976706900447607
1773790803064756000,5.853755859375,0.03917465704679489,0.003993645346583799,-0.005652765064686536
1773790803084718800,5.87371875,0.03498655770719051,0.00512980063650757,0.0011724961117841302
1773790803104682000,5.893681884765625,0.03947685486376285,0.0008615624325117096,-0.002293262036330998
1773790803124645000,5.91364501953125,0.04381751441657543,0.009589917283947579,-0.004320548346545547
1773790803144608000,5.93360791015625,0.04112462207078933,-0.00009267868555616587,0.0026862068766728042
1773790803164571100,5.953571044921875,0.03648527183234691,0.004140068079950288,-0.002087656461633742
1773790803184534000,5.973533935546875,0.03469137415289879,0.008016877547255717,0.00985069167856127
1773790803204497000,5.993496826171875,0.04681260457932949,0.021040481907199135,0.00868745658546686
1773790803224459800,6.013459716796875,0.03918108678758144,0.005852438655518926,0.013054072563443332
1773790803244423000,6.0334228515625,0.04247369859218597,0.01740845011435449,0.0037831352679058906
1773790803264386000,6.053385986328125,0.03663607847988605,-0.008075804660259745,0.008059442613925785
1773790803284349000,6.073348876953125,0.038430560681223865,0.002480783965066075,-0.010063366314861924
1773790803304312000,6.09331201171875,0.023913959550857542,-0.0015560886018909513,-0.00098448099270463
1773790803324275000,6.11327490234375,0.040973230901360506,0.0033120882566319777,0.003950235463120043
1773790803344238000,6.133238037109375,0.043515316599607466,0.004476661356864497,-0.002106653423048556
1773790803364201000,6.153200927734375,0.03558452360033989,0.0028026865629246457,0.001047792019881308
1773790803384163800,6.173163818359375,0.0381283628642559,0.012860732815274969,0.002552186967153102
1773790803404127000,6.193126953125,0.04337093969285488,0.003582534661889076,-0.002440324090514332
1773790803424089900,6.21308984375,0.033494857844710346,0.014667932934290728,0.01028139297971502
1773790803444053000,6.233052978515625,0.03394084804654121,0.00975737367218826,0.000517813329026103
1773790803464016000,6.253015869140625,0.04082359329760074,-0.0006125743738142773,0.00146987162316218
1773790803483979000,6.27297900390625,0.03872749780118465,-0.00019430329597089439,0.00447442373400554
1773790803503942000,6.29294189453125,0.041273675152659416,0.010409841664973645,-0.0009656301617622375
1773790803523905000,6.312905029296875,0.042622167152166365,0.002226777237956412,0.002289645307138562
1773790803543868200,6.3328681640625,0.042022447693347925,-0.003564884840766899,0.0035086291754618283
1773790803563830800,6.352830810546875,0.03259703222215175,0.0023776021518046035,-0.001239569998625666
1773790803583794000,6.3727939453125,0.034544074636697765,-0.00039690406282898036,0.0030497977583669126
1773790803603756800,6.3927568359375,0.035443069303035736,-0.0030189824949949976,0.007348901458084583
1773790803623720000,6.412719970703125,0.043674306553602216,0.001986620939685963,0.005973923310451209
1773790803643683000,6.43268310546875,0.03768646431565285,-0.007778155154245905,-0.00033038273183628916
1773790803663646000,6.45264599609375,0.03798515500128269,-0.00036509785219095646,0.00436033236766234
1773790803683609000,6.472609130859375,0.04217793051600456,-0.0017110234352760015,0.007862129943538456
1773790803703572000,6.492572021484375,0.04397475080490112,-0.0026735026587266474,0.004235062020178884
1773790803723535000,6.51253515625,0.03499532553553581,0.008204646071163006,-0.006374503467977047
1773790803743497700,6.532497802734375,0.031253216397762296,-0.003161514504533261,0.003651307315472513
1773790803763460900,6.5524609375,0.05354980387985706,-0.0004400308185024187,-0.003269230929017067
1773790803783424000,6.572424072265625,0.03529460074305534,0.01559145925368648,0.007028967055026441
1773790803803387000,6.592386962890625,0.04487082286179066,0.01001559078353457,-0.007301025462057441
1773790803823350000,6.61235009765625,0.034542905592918394,-0.0022927779791411013,0.004075469277985393
1773790803843313000,6.63231298828125,0.04382043702602386,0.009982126905350015,0.016192827246896923
1773790803863276000,6.652276123046875,0.058035424861311906,0.005175005184835754,0.011292707180418074
1773790803883239000,6.672239013671875,0.04381926798224449,0.003487650319514796,0.0005796082525514066
1773790803903202000,6.6922021484375,0.050552375629544254,-0.00464403554671444,0.009301935221999883
1773790803923165200,6.712165283203125,0.05040449159145355,0.012822021939815022,-0.004085150421783328
1773790803943127800,6.7321279296875,0.044268765315413475,-0.007367829920840449,0.003118734808731824
1773790803963090700,6.752090576171875,0.04905483054816723,0.009408601333713159,-0.001559139075502753
1773790803983053600,6.772053466796875,0.04396598297655582,0.010792356442846358,0.00431726041091606
1773790804003016400,6.792016357421875,0.0463590155929327,0.00954515112703666,0.006178743433859199
1773790804022979600,6.8119794921875,0.037981063348054886,0.006143927848804741,0.011316782175749539
1773790804042942500,6.8319423828125,0.04112345302700996,0.0031626926814671604,-0.010694649955723433
1773790804062905600,6.851905517578125,0.04501519976854324,0.0020113489555660634,0.004109901270549744
1773790804082868500,6.871868408203125,0.03992927480638027,0.003030408071307465,-0.002848356902133673
1773790804102831600,6.89183154296875,0.03140285400152206,0.0059427792535163455,-0.00045364378532394763
1773790804122794800,6.911794677734375,0.037388942673802376,0.006832659031637013,-0.005589289640728384
1773790804142757600,6.931757568359375,0.034547581768035886,0.00350207613708917,0.003635433892905712
1773790804162720500,6.951720458984375,0.04203063099980354,0.004062938589975237,0.015966270215716213
1773790804182683400,6.971683349609375,0.0335012875854969,0.015587559396703726,-0.001114957238268107
1773790804202646500,6.991646484375,0.048615270087122915,0.007833744099270552,0.01382507520224899
1773790804222609400,7.011609375,0.048916298860311506,0.007996327949571422,0.0034076895516365765
1773790804242572500,7.031572509765625,0.03814239138960838,0.00879670281333383,0.006978533775731921
1773790804262535700,7.05153564453125,0.0314098682641983,0.007206547545059584,0.010646408633515238
1773790804282498600,7.07149853515625,0.05594985075891017,-0.007602045102091505,0.00483748489273712
1773790804302461700,7.091461669921875,0.04263327306807041,0.002703724267054349,0.00035350787909701467
1773790804322424600,7.111424560546875,0.032605215528607366,-0.0040759305022889745,0.0058027497283183035
1773790804342387500,7.131387451171875,0.04442658622562885,0.00009149137546774,0.009854801598098128
1773790804362350300,7.151350341796875,0.03155599873661995,0.004356112850271165,-0.011632186534162611
1773790804382313500,7.1713134765625,0.045322658282518385,0.0015880089769605547,-0.0053727790795266624
1773790804402276600,7.191276611328125,0.035892566636204715,0.0035551123654237013,0.0017395919426344334
1773790804422239500,7.211239501953125,0.03873451206386089,0.016301973010064103,0.0014846855998039245
1773790804442202600,7.23120263671875,0.04277472736537456,0.007289572486281395,0.001057363565824926
1773790804462165500,7.25116552734375,0.04831248774826526,0.00408384438068606,0.006089676910918206
1773790804482128600,7.271128662109375,0.035145547661185265,0.0009160873650340363,-0.0006678893242031336
1773790804502091500,7.291091552734375,0.03963526029586792,0.011560454738512634,0.006469433476123958
1773790804522054400,7.311054443359375,0.03604512684941292,-0.005237535327300429,0.0148087524773553
1773790804542017500,7.331017578125,0.03709434364140034,-0.0015803371271584181,0.013058803537487984
1773790804561980400,7.35098046875,0.042784079715609546,-0.0030075569186825304,-0.004156663021724671
1773790804581943600,7.370943603515625,0.04383271198570728,-0.0017724028002703562,0.004914860977884382
1773790804601906400,7.390906494140625,0.038593642288446424,-0.00026918602993246165,0.0022928967101499436
1773790804621869600,7.41086962890625,0.03739712598025799,-0.0032663813848048447,-0.002702189897093922
1773790804641832700,7.430832763671875,0.040540684702992436,0.005184069840703159,0.00588967909310013
1773790804661795600,7.450795654296875,0.04458090000450611,0.007221672048955224,0.0016719883328303693
1773790804681758700,7.4707587890625,0.045927638438344,-0.006837741632130928,0.010195102935750038
1773790804701721600,7.4907216796875,0.041434418672323226,0.0022344034219859165,0.0007819806905463337
1773790804721684500,7.5106845703125,0.029461072283983227,0.0029592288315063342,0.0004284728114493191
1773790804741647400,7.5306474609375,0.03484861054122448,0.010252874704706483,0.005522672411613166
1773790804761610500,7.550610595703125,0.0487684148222208,0.007969878334063105,0.001335340256989002
1773790804781573600,7.57057373046875,0.037246903854608535,0.0032403107952093703,0.004707721033226698
1773790804801536500,7.59053662109375,0.03799626091718673,0.005199208044330589,-0.002525061498209834
1773790804821498600,7.61049853515625,0.04203822978436947,0.012124632526491768,-0.0029261896450072525
1773790804841461800,7.630461669921875,0.04428337836265564,0.011988872751034796,-0.004748345304559916
1773790804861424400,7.65042431640625,0.039942134287953374,-0.002072906417073682,-0.00047488750275224447
1773790804881387500,7.670387451171875,0.046077860563993454,-0.002230220437212847,-0.007533738239388912
1773790804901350400,7.690350341796875,0.03844868085980415,-0.005877317368448712,0.0043324762463569635
1773790804921313500,7.7103134765625,0.04278992493450642,-0.0035745020524831487,0.004445014976430684
1773790804941276700,7.730276611328125,0.043240006789565084,-0.004798285393510014,0.0020799115465953946
1773790804961239000,7.750239013671875,0.04249240329265594,-0.0034484462537104263,-0.007820281829498708
1773790804981202200,7.7702021484375,0.040996611776947973,0.011838805889012292,0.009357172540575266
1773790805001165000,7.7901650390625,0.03620996202230453,-0.005679342544358223,-0.005043620190396904
1773790805021128200,7.810128173828125,0.03501461475789547,0.002083984933514148,0.0011621025819331407
1773790805041091300,7.83009130859375,0.041299394115805625,0.00834608666873537,-0.00016722805937752127
1773790805061054200,7.85005419921875,0.040104631373286244,-0.005790534134139306,0.0070681848205626
1773790805081017300,7.870017333984375,0.04220364947915077,-0.0022056979173095894,0.003484060989785939
1773790805100980200,7.889980224609375,0.04474807326495647,0.00515717270062305,0.006455313619226217
1773790805120943000,7.909943115234375,0.04130816194415092,0.004638345591444522,-0.0028802133451215923
1773790805140906000,7.929906005859375,0.04833996027708053,0.015430875564226879,0.008841021445672958
1773790805160869000,7.949869140625,0.03891629837155342,-0.00640070192173589,0.005272223048191517
1773790805180832300,7.969832275390625,0.04176350449621677,-0.0019082447741180658,0.0012697459411807359
1773790805200795100,7.989795166015625,0.02814823611974716,0.0070399770728079595,-0.004485365253128111
1773790805220758300,8.00975830078125,0.04206862492263317,0.008647348337364382,-0.005071896436810493
1773790805240721200,8.02972119140625,0.040275896286964416,0.005727118075685576,-0.0024857524011284112
1773790805260684300,8.049684326171874,0.04985504101514816,-0.002818386455555446,0.0026537111128680404
1773790805280647200,8.069647216796875,0.03698737613558769,-0.004140437972708605,0.008713193814922124
1773790805300610000,8.089610107421874,0.048213119027018546,0.009160248029255308,0.007526358650531619
1773790805320573200,8.1095732421875,0.03833820622265339,0.00691258783347439,0.004488963716011494
1773790805340536000,8.1295361328125,0.03504851702749729,0.013868338955240323,-0.015647249128110705
1773790805360499200,8.149499267578125,0.0381938293159008,-0.0064919604017632075,-0.00008291077679023147
1773790805380462000,8.169462158203125,0.03520575341582298,0.0005899424168979749,0.0013673610967583954
1773790805400425200,8.18942529296875,0.04134147969186306,-0.005873810237110592,0.005393730536010116
1773790805420388000,8.20938818359375,0.028920389536023137,0.0058317703268257895,0.008300630958657712
1773790805440351200,8.229351318359376,0.03460720300078392,0.01284806969652418,0.0007781264993362129
1773790805460314400,8.249314453125,0.03715162678658962,-0.0017531135779106988,-0.0014638802737928925
1773790805480277000,8.269277099609376,0.040592122629284855,-0.008565259544481523,-0.012795056301075964
1773790805500240100,8.289240234375,0.031463644278049464,-0.003326897666696459,-0.001107321921084076
1773790805520203000,8.309203125,0.034308512315154076,0.005003046151413582,0.010667981144506483
1773790805540166100,8.329166259765625,0.0500233833193779,-0.01006101909414865,0.003905848332121968
1773790805560129300,8.34912939453125,0.044189270338416096,0.012455905740894377,0.001473360488191247
1773790805580092200,8.369092041015625,0.04239420361518859,0.0015672264838358387,-0.004674494617059826
1773790805600055300,8.38905517578125,0.04119651826322079,-0.003351388220558874,0.00028879034612327813
1773790805620017400,8.409017333984375,0.039698973181843754,0.005707732955203391,-0.006812894885241985
1773790805639980000,8.42897998046875,0.049876083803176874,-0.00045229207845404743,0.000009407149162143469
1773790805659943200,8.448943115234375,0.03790507550239563,-0.001006354897795245,-0.00703104941425845
1773790805679906000,8.468906005859376,0.037005496314167975,0.00564344011391513,-0.004449672885239124
1773790805699869200,8.488869140625,0.042242812445759774,0.008559788784920237,-0.007103785856906324
1773790805719832000,8.50883203125,0.03685761227607727,0.0028420458923559635,0.0033023842799477275
1773790805739795200,8.528795166015625,0.05062427182197571,-0.002896621057228185,0.0072078672858886415
1773790805759758300,8.54875830078125,0.03626081542670727,-0.0009189780084416269,0.00535858615739271
1773790805779721200,8.56872119140625,0.050181204229593275,-0.006811113920109346,-0.0007331913790665567
1773790805799684400,8.588684326171874,0.039408465802669525,-0.0007802225583000108,0.004430018336698413
1773790805819647000,8.60864697265625,0.03985737861394882,0.0011486174792749806,0.0003921228564344346
1773790805839610000,8.628610107421874,0.03521744385361671,-0.002470134706888348,0.003148600224032998
1773790805859573200,8.6485732421875,0.035816578790545464,0.004397015682817437,0.007616064494289457
1773790805879536000,8.6685361328125,0.029682606080174444,0.000643234373559244,-0.010252733140811323
1773790805899499300,8.688499267578125,0.04644377126693725,-0.0028455667234258725,-0.0019290501001290976
1773790805919462100,8.708462158203124,0.026244448325037955,0.002912193085695617,0.007430990250967442
1773790805939425300,8.72842529296875,0.02968669773340225,0.004736234741657972,-0.003915292013902217
1773790805959388400,8.748388427734374,0.045399230650067325,-0.00029806506454478946,-0.0013833623834885655
1773790805979351600,8.7683515625,0.04674538456201553,-0.0039652914683567355,-0.0011626871038228272
1773790805999314400,8.788314453125,0.03537292667627334,-0.0031255116093903777,-0.006375307185575366
1773790806019277600,8.808277587890625,0.03387655063867569,0.0068395271638408296,0.011090937530621885
1773790806039240700,8.82824072265625,0.04450140502750873,0.007054599253204651,0.0011532799546606837
1773790806059203600,8.84820361328125,0.04060965828597545,0.0072769595998805016,0.003143193396553397
1773790806079166700,8.868166748046875,0.0293839153945446,0.014526378172286785,-0.005722085707541555
1773790806099129300,8.88812939453125,0.04674129290878772,0.005892231809790246,-0.0027215887173078954
1773790806119092500,8.908092529296875,0.026238603106141088,-0.005328191019129008,0.004582797745615244
1773790806139055600,8.9280556640625,0.03895838394761085,-0.003003173004509881,-0.009190693399868905
1773790806159018500,8.9480185546875,0.0365641822874546,0.00771329605737701,0.004311013333220035
1773790806178981600,8.967981689453126,0.05556874248683452,0.004173376694507897,-0.005633969032671302
1773790806198944500,8.987944580078125,0.03985504052639007,-0.0026701873236335814,-0.002868066249601543
1773790806218906600,9.00790673828125,0.034165888974070545,0.0045576815706677735,0.004736983660329133
1773790806238869800,9.027869873046875,0.029078794968128204,0.0026269783695694058,0.00861218112586066
1773790806258832400,9.047832275390626,0.04778232639431953,0.004934620557702146,-0.001101239240169525
1773790806278795500,9.06779541015625,0.04403963273465633,-0.0013610546535579486,0.0061942332639358935
1773790806298758400,9.08775830078125,0.036407530421018595,0.0031322062116581947,0.003072155720647424
1773790806318721500,9.107721435546875,0.03401332876086235,-0.0035851284777745603,-0.004409961929358542
1773790806338684700,9.1276845703125,0.03640519233345985,-0.00037149562693666665,0.009583345979265868
1773790806358647600,9.1476474609375,0.04074351379871368,0.008581365862488746,0.0033701522865332663
1773790806378610700,9.167610595703126,0.03191255708932876,0.00963964731034357,-0.0077539568613283335
1773790806398573600,9.187573486328125,0.043135961893200875,0.0049534622554900124,-0.0014712598626501858
1773790806418536700,9.20753662109375,0.046427989175915715,-0.0003467767442110926,0.005580613143928348
1773790806438499300,9.227499267578125,0.037895723152160644,-0.002503297190973535,-0.0020883688476867972
1773790806458462500,9.24746240234375,0.04522855025827884,0.008213687894144095,0.010185366993024945
1773790806478425600,9.267425537109375,0.03056172700226307,-0.015450434214645065,0.0006620989042334258
1773790806498388500,9.287388427734374,0.05270400070548057,-0.002347599739185534,-0.0024520875935442744
1773790806518351600,9.3073515625,0.05001110835969448,0.0013139960748609154,-0.002449201516713947
1773790806538314500,9.327314453125,0.03385316976308823,0.005273442324320785,0.009655424834787846
1773790806558277600,9.347277587890625,0.030861586731672285,0.003450880239391699,0.00048117111306637524
1773790806578240500,9.367240478515624,0.035351883888244624,0.005982193381874822,-0.004210000644158571
1773790806598203600,9.38720361328125,0.0366992068439722,0.009214512666873634,0.0020451872930862007
1773790806618166500,9.40716650390625,0.04208791414499283,0.004114276051567867,0.0009335910556837916
1773790806638129400,9.42712939453125,0.03775134624540805,0.004754701980110258,0.011898253591824321
1773790806658091500,9.447091552734374,0.043435237100720406,0.008630698596662842,-0.0015982289768755435
1773790806678054700,9.4670546875,0.02891980501413345,0.005814645662088878,-0.0033665172910317775
1773790806698017500,9.487017578125,0.035357144585251805,0.007932126439828425,0.0010264204382896423
1773790806717980700,9.506980712890625,0.03775134624540805,0.004756852838001213,-0.005261719920486211
1773790806737943600,9.526943603515624,0.03311258052885532,0.007421309107169509,0.0004347381554543972
1773790806757906400,9.546906494140625,0.03819909001290798,-0.007056234087864868,-0.004916578010935336
1773790806777869600,9.56686962890625,0.0561579405516386,0.008335688572307117,0.002224343252275139
1773790806797832400,9.58683251953125,0.04523381095528602,0.001143502912740223,-0.0010939875154756008
1773790806817795600,9.606795654296874,0.029227263528108595,0.00673465115041472,-0.006211293996591121
1773790806837758500,9.626758544921875,0.05002805949449539,0.0019452294833725318,0.009532784835807979
1773790806857721600,9.6467216796875,0.04568915350735187,-0.00038244627921376375,0.00006605097353458404
1773790806877684500,9.6666845703125,0.040001170998811716,0.0025394736160524187,-0.004632847432419657
1773790806897647600,9.686647705078125,0.03431552657783031,-0.001163248792826198,-0.005359956130571663
1773790806917610800,9.70661083984375,0.040004093608260155,0.00044154692215379323,0.004570979443658143
1773790806937573400,9.726573486328125,0.048832127708196636,-0.0044670350119937205,0.010255126027297229
1773790806957536800,9.746536865234376,0.05197685547471046,-0.008784309122641571,0.00690278339209035
1773790806977499600,9.766499755859375,0.042101358148455614,0.002185883538564667,0.0041743996078148484
1773790806997462800,9.786462890625,0.03865910874009132,-0.0029176410123705862,0.0006112637661397456
1773790807017425700,9.80642578125,0.029680267992615698,-0.002484925850643776,0.004037036963738501
1773790807037388800,9.826388916015626,0.032523966985940934,0.0009177998315077274,-0.002162676192913204
1773790807057352000,9.84635205078125,0.04838438394069671,0.002927513952413574,-0.002726575419679284
1773790807077314600,9.866314453125,0.032823242193460465,0.004649305376876145,-0.004560713777970522
1773790807097276700,9.886276611328125,0.031626141363382335,0.0012630011065630242,-0.00726341513171792
1773790807117239800,9.90623974609375,0.02833294503688812,0.007195459895464591,-0.007110781853273511
1773790807137202700,9.92620263671875,0.04135317012965679,0.0006855391453253105,-0.004922642425540834
1773790807157165800,9.946165771484376,0.03791325880885124,-0.006697438112297095,-0.002597633544076234
1773790807177128700,9.966128662109375,0.04195347411036491,0.009921354895131662,0.008641516818199307
1773790807197091800,9.986091796875,0.04719312832951546,-0.006686770587810315,0.004641432597674429
1773790807217054700,10.0060546875,0.03627016777694225,0.0020076545945601535,0.0029532603150233625
1773790807237017600,10.026017578125,0.03971066361963749,0.006557253323472105,-0.004046060520410537
1773790807256980700,10.045980712890625,0.04854045128524303,0.007873884313413872,-0.003441482223384082
1773790807276943600,10.065943603515626,0.04090951801538467,-0.003229816800658591,0.00043970659151673316
1773790807296906800,10.08590673828125,0.03941255745589733,-0.01009452863810584,-0.004296564682759344
1773790807316869600,10.10586962890625,0.03671966511011123,0.011882014843076466,-0.0017598858119919896
1773790807336832800,10.125832763671875,0.0392611662864685,0.005656664921669289,-0.0015156469936482607
1773790807356796000,10.1457958984375,0.030730069306492802,0.005552227299660444,0.012761702020745724
1773790807376758800,10.1657587890625,0.032522797942161556,0.004039297419483773,0.011956979775428771
1773790807396721700,10.1857216796875,0.04449380624294281,0.0052727710374630985,-0.0012145086226053536
1773790807416684500,10.2056845703125,0.041050972312688824,-0.0031505273196380584,0.0034300475139170884
1773790807436647700,10.225647705078124,0.03760930742621422,0.005493021625443361,-0.0010369600986130535
1773790807456610600,10.245610595703125,0.0522755461603403,0.005178293120465241,0.006375325451884418
1773790807476572700,10.26557275390625,0.04703998359441757,0.0016569049281300976,0.0003359539560973644
1773790807496535800,10.285535888671875,0.04255027095973491,0.005427829168434255,-0.007096314936503767
1773790807516498700,10.305498779296874,0.03731470839381218,-0.0006870461158221587,0.007834164224378765
1773790807536461800,10.3254619140625,0.04090717992782592,-0.0002418093992397189,0.0022579532609321175
1773790807556424700,10.3454248046875,0.046293549141287804,0.023762248721020295,0.010532518196571618
1773790807576387600,10.3653876953125,0.028487843337655066,-0.0009052326108794659,0.0008907748272642493
1773790807596350700,10.385350830078124,0.04195464315414429,0.002654190603480674,0.0010710632976144551
1773790807616313600,10.405313720703125,0.03866261587142944,-0.005773998557869344,-0.007591605906467885
1773790807636276700,10.42527685546875,0.04330196610987186,0.0008590736479032785,0.010545724738016723
1773790807656239900,10.445239990234375,0.04225216479599476,0.0003363284154329449,0.00219073324361816
1773790807676202800,10.46520263671875,0.050632455128431314,0.0052833654967136675,-0.004818688860721886
1773790807696166000,10.485165771484375,0.03806348093450069,0.00751537603221368,-0.003658339844457805
1773790807716128800,10.505128662109374,0.04554536112248897,0.011170281810569576,0.004446129221282899
1773790807736091600,10.525091552734375,0.04390051652491092,0.00207451385227032,0.0017078633638098835
1773790807756054500,10.545054443359374,0.02938566896021366,-0.013648083800682798,0.00004730974044650793
1773790807776017700,10.565017578125,0.05108078341782093,-0.0037482192181516436,-0.005737703401781619
1773790807795980800,10.584980712890625,0.04449789789617061,0.005311011555464938,0.0064963214830495416
1773790807815942700,10.604942626953125,0.03941255745589733,-0.000013900661189109086,-0.0005018851075321435
1773790807835905800,10.62490576171875,0.0455441920787096,-0.00369039265026804,-0.0034921346983872352
1773790807855869000,10.644868896484375,0.02743979558944702,-0.003508126851962879,0.0024251630540005863
1773790807875831600,10.66483154296875,0.04494856427311897,0.0061063860171241685,0.0025261574767529963
1773790807895794700,10.684794677734375,0.03761573716700077,-0.0066825967361917715,-0.00198496327213943
1773790807915757600,10.704757568359375,0.030730069306492802,0.010019161846954375,0.003653371408395469
1773790807935720700,10.724720703125,0.03057867813706398,-0.00041643988036084916,0.0005719364027492701
1773790807955685000,10.74468505859375,0.035815994268655775,-0.0033910261112032455,0.004896430272050202
1773790807975648300,10.764648193359376,0.041054479444026945,0.0014726344024064018,-0.0042960166934877635
1773790807995611000,10.78461083984375,0.03671498893499374,0.00009155074097216129,0.002144446416478604
1773790808015574000,10.804573974609376,0.033572014734148975,-0.0031191914664581415,0.00005929243918508291
1773790808035537000,10.824536865234375,0.04673895482122898,-0.0018419335056794805,-0.009954608710762113
1773790808055500000,10.8445,0.044193361991643906,0.009678244021371938,0.005857548655476421
1773790808075463200,10.864463134765625,0.04374503370225429,0.0014309095859527587,-0.0037550234182737764
1773790808095426000,10.884426025390624,0.04090016566514969,-0.00028110479658935216,-0.0035479930714704096
1773790808115389200,10.90438916015625,0.04673603221178055,0.004436594207957387,0.0003118241618387401
1773790808135352000,10.92435205078125,0.04179799128770828,0.006810031641297973,0.007813523295149206
1773790808155314000,10.94431396484375,0.036110593301057814,-0.002962726829689927,0.0075295369883067904
1773790808175277000,10.964277099609374,0.04628244322538375,-0.004898457832355052,-0.0026384587448090315
1773790808195240000,10.984239990234375,0.05017243640124797,0.004888123668008484,0.00978473203657195
1773790808215203000,11.004203125,0.04643266535103321,-0.004426821732614189,0.003552285654097795
1773790808235166000,11.024166015625,0.04433540081083774,0.0013714527499862014,-0.007783621347229927
1773790808255129000,11.044129150390624,0.029520108994841573,0.00477189971008338,-0.009968929497059435
1773790808275092200,11.06409228515625,0.05316285038888454,-0.0027044594859937203,0.003852711639087647
1773790808295055000,11.08405517578125,0.031467151409387585,0.00418821807061322,0.0034595841356553137
1773790808315018000,11.10401806640625,0.03386135306954384,-0.0005442492448026314,0.0039586744979023935
1773790808334980900,11.12398095703125,0.05376373889148235,0.008872964653628877,0.014393193946406244
1773790808354944000,11.143944091796875,0.026532033094763756,0.0029655124418204648,-0.0017658406287431715
1773790808374907100,11.1639072265625,0.03551087384223938,-0.0017607351953629403,-0.0010618753441609442
1773790808394870000,11.1838701171875,0.041644262030720705,0.001642730272305198,-0.007744988103583455
1773790808414833200,11.203833251953125,0.04269230977892875,0.005686799765028991,-0.0005091916311532259
1773790808434795300,11.223795166015625,0.04673077151477337,0.005808343785465695,-0.0050270526480861
1773790808454758100,11.243758056640624,0.04403787916898727,0.006432631429960019,-0.00013338058870285749
1773790808474721000,11.263720947265625,0.03955108914375305,-0.007436735005164519,-0.004859112202655524
1773790808494684000,11.283683837890624,0.03655892159044742,0.02002902157602366,0.016096508999262005
1773790808514647000,11.30364697265625,0.038054128584265705,0.0009333216276252641,0.002195829543843865
1773790808534610000,11.32360986328125,0.0398497798293829,-0.008607020893553271,0.000710011432878673
1773790808554573000,11.343572998046875,0.03565992692410946,-0.00738981342378538,0.008931713670119643
1773790808574536200,11.3635361328125,0.03371405355334282,-0.013304184000147505,0.0027840960268862543
1773790808594499000,11.3834990234375,0.04074760545194149,0.0019711767753819004,0.013083572652563451
1773790808614462200,11.403462158203125,0.03880465469062328,0.0014013592644827439,-0.0005934541148133576
1773790808634425000,11.423425048828125,0.032819735062122345,0.004932446866924874,0.0025340302559547123
1773790808654388000,11.443387939453125,0.03192483204901218,0.011602101923152804,0.005116210502572357
1773790808674351000,11.46335107421875,0.03671498893499374,0.00209449719437398,-0.005134896936733275
1773790808694314000,11.48331396484375,0.03971183266341686,-0.002043114067008719,0.002289480910357088
1773790808714277000,11.503277099609376,0.04509937092065811,-0.005064466615603305,0.0074962009742856025
1773790808734239000,11.523239013671875,0.04136018439233303,0.004936004230612889,-0.005424655397236347
1773790808754202000,11.5432021484375,0.027145196557044983,0.0032169710188172758,-0.0009428520743735134
1773790808774165200,11.563165283203125,0.03881868321597576,-0.0015090345897711814,0.010530673299357295
1773790808794128000,11.5831279296875,0.0485462965041399,0.008153066580975428,0.005695325564779341
1773790808814091000,11.603091064453125,0.052585927283763885,0.004691660380992107,-0.004907664052117616
1773790808834054000,11.623053955078126,0.0374748673915863,-0.0019508829060243442,-0.007223850306309759
1773790808854017000,11.64301708984375,0.03268997120261192,-0.00215223243071232,-0.0026861155451275405
1773790808873980200,11.662980224609376,0.0545370613515377,-0.010545140216127038,-0.0007498502529226243
1773790808893943000,11.682943115234375,0.027005495825409887,-0.0001907322325510904,-0.007864340166933834
1773790808913906200,11.70290625,0.041971594288945195,0.005965032184519804,0.00007719342205673456
1773790808933869000,11.722869140625,0.04406827430725097,-0.002093054155958816,-0.004930533471051603
1773790808953830100,11.742830078125,0.04376783005595207,0.006308265264774672,-0.0059463229174725706
1773790808973793300,11.762793212890625,0.04586392555236816,-0.0005617438022978604,-0.011093348683416843
1773790808993755400,11.78275537109375,0.05005260941386223,-0.0008351356498897076,0.01737997293854132
1773790809013718300,11.80271826171875,0.03927928646504879,0.010384378430154174,-0.003586388853099197
1773790809033681400,11.822681396484375,0.038084523722529406,-0.008935887521738186,0.006841262463200837
1773790809053644300,11.842644287109374,0.04781330605447292,-0.000603094159415923,-0.000001004646997898817
1773790809073607200,11.862607177734375,0.04018120374083519,-0.0035755340989446264,0.011836988391261547
1773790809093570300,11.8825703125,0.039134325036406514,-0.000015677059744484722,-0.00905988836074248
1773790809113533200,11.902533203125,0.03180091340839863,-0.0015322830346180126,0.004006806222256273
1773790809133496300,11.922496337890625,0.0376361954331398,0.008604449910554103,-0.0037320626677945254
1773790809153459200,11.942459228515625,0.03913140242695808,0.005887820496154017,-0.0005172836060635745
1773790809173422300,11.96242236328125,0.037485973307490345,-0.002805339744314551,-0.008631835674401372
1773790809193385500,11.982385498046876,0.02895779893696308,0.0014226714805699885,0.0031400333250872787
1773790809213348400,12.002348388671875,0.05529810885190963,0.0018294439168646932,-0.0046765587099827826
1773790809233311500,12.0223115234375,0.04362871384620666,0.0014239912213990463,0.005552702223695814
1773790809253273300,12.0422734375,0.03704524380266666,-0.0008875234242528676,-0.017547200997918844
1773790809273236200,12.062236328125,0.040786183896660805,-0.0016466986279468983,-0.005704586583469062
1773790809293199400,12.082199462890625,0.028664368948340416,0.0014691775034181773,-0.00205888702487573
1773790809313162200,12.102162353515626,0.04288052582740783,0.0007755920489551499,-0.009576770108006893
1773790809333125400,12.12212548828125,0.04796761983335018,0.008346310431021265,-0.0017023286721669136
1773790809353088300,12.142088134765626,0.033303134664893146,-0.001444321623374708,-0.008865297370404004
1773790809373051400,12.162051513671875,0.04198211568295956,-0.0005722651963122188,-0.006310571386292576
1773790809393014300,12.18201416015625,0.04332943863868713,-0.003904834551969543,-0.005581654323544353
1773790809412977200,12.20197705078125,0.04512333631813526,-0.003429052000073716,-0.01015299909338355
1773790809432940300,12.221940185546876,0.04632102167010307,0.006147206651279703,0.010857804628182201
1773790809452903200,12.241903076171875,0.03958674497902393,-0.002257966960663907,-0.012788663092907517
1773790809472866300,12.2618662109375,0.03958674497902393,0.00014825393084902315,0.0028078056960366663
1773790809492828400,12.281828369140625,0.0425812506198883,0.0018129677060991524,-0.008741762322280555
1773790809512791300,12.301791259765626,0.031655367457866665,0.0006809040694031864,-0.00909519713614136
1773790809532754200,12.321754150390625,0.04257891253232956,0.008568113655271008,-0.01117386657372117
1773790809552717300,12.34171728515625,0.06307809520363808,0.0005892528637312353,0.0044560478270985185
1773790809572680200,12.36168017578125,0.026118191596865653,-0.00692782650180161,-0.004248341626860201
1773790809592643300,12.381643310546876,0.03898527195453644,0.002585340318083763,-0.004342139123845845
1773790809612606200,12.401606201171875,0.041681086909770966,-0.006898467976576648,-0.003065232789516449
1773790809632569300,12.4215693359375,0.05634674112200737,-0.00312505495166406,-0.00015957447588443754
1773790809652532200,12.4415322265625,0.03509937043190002,-0.004400180320860818,0.0029506117002107203
1773790809672495400,12.461495361328126,0.0419844537705183,0.002634188995067961,-0.0017543145877309142
1773790809692458500,12.48145849609375,0.0351005394756794,-0.002268862814013846,-0.0021984781586565074
1773790809712421400,12.50142138671875,0.039738720670342446,0.0016760617197491227,-0.007873546386696397
1773790809732383200,12.52138330078125,0.04721884729266167,0.001605307171633467,0.012378438324201851
1773790809752346400,12.541346435546876,0.05170797540545463,-0.008222903247061186,-0.009773096397705376
1773790809772309200,12.561309326171875,0.04197977759540081,-0.004767661926383152,0.004603420408535748
1773790809792272400,12.5812724609375,0.0350958633005619,0.004770726099726744,-0.0005839008351787925
1773790809812235300,12.6012353515625,0.03450140453875065,0.004616394054540432,-0.0029726774015463885
1773790809832198400,12.621198486328124,0.04826923312842846,0.008125712783169,-0.007181454202998429
1773790809852161300,12.641161376953125,0.040188802525401114,-0.007896511703752912,-0.003296465995814651
1773790809872124200,12.661124267578124,0.03974164327979088,0.0019180126828840002,-0.01443590057697147
1773790809892087300,12.68108740234375,0.026574118670821188,0.0055046618308871986,0.004699044536426663
1773790809912050200,12.70105029296875,0.03944178355038166,0.004740901783620939,0.001158905977848917
1773790809932013300,12.721013427734375,0.04258534227311611,0.0000888336275005713,0.003965359967015684
1773790809951976700,12.740976806640624,0.04049041582047939,-0.0084286503856536,-0.0038217685115523635
1773790809971938600,12.7609384765625,0.03749766374528408,-0.0011672536810860036,-0.001915989689156413
1773790809991901700,12.780901611328124,0.031662381720542906,0.005556784743769094,-0.0021957564786076545
1773790810011864600,12.800864501953125,0.04453296920955181,-0.0010944944055518134,-0.00029746684292331337
1773790810031827700,12.82082763671875,0.04228782063126564,0.0023031623758375643,-0.004744911238458007
1773790810051790600,12.84079052734375,0.03645429217219352,0.008890596208442002,-0.005458466335292905
1773790810071753700,12.860753662109374,0.03121522247493267,0.001206316182995215,-0.0013684753416106103
1773790810091716900,12.880716796875,0.038997546914219854,0.008184242603951133,-0.003600581775233149
1773790810111679700,12.9006796875,0.03510813826024532,0.005025961236120201,-0.005138276203908026
