time,seconds_elapsed,z,y,x
1773790797261751600,0.05075146484375,-0.00046845004544593394,-0.0028993834275752306,-0.004893824923783541
1773790797281714400,0.07071435546875,0.00040240364614874125,-0.0022280006669461727,-0.004530303180217743
1773790797301677600,0.090677490234375,-0.0008940231637097895,-0.0032775523141026497,-0.0054389736615121365
1773790797321640400,0.110640380859375,-0.0006894923863001168,-0.002865294925868511,-0.0057132793590426445
1773790797341603600,0.130603515625,-0.0008194546680897474,-0.0024029703345149755,-0.005284510552883148
1773790797361566500,0.15056640625,-0.0007163903210312128,-0.0034325483720749617,-0.005856557283550501
1773790797381529600,0.170529541015625,-0.00210629403591156,-0.0033129723742604256,-0.005558283533900976
1773790797401492500,0.190492431640625,-0.0010996191995218396,-0.0025691515766084194,-0.006716758478432894
1773790797421455600,0.21045556640625,0.00004820321555598639,-0.003346261801198125,-0.00549223693087697
1773790797441419500,0.23041943359375,0.00014514227223116904,-0.002159024588763714,-0.00512738386169076
1773790797461382700,0.250382568359375,0.0006207828409969807,-0.0021672805305570364,-0.008614527061581612
1773790797481345500,0.270345458984375,0.0005544701125472784,-0.0023180153220891953,-0.005932457745075226
1773790797501308400,0.290308349609375,0.00014700648898724467,-0.003979295492172241,-0.004893824923783541
1773790797521271600,0.310271484375,-0.0001459412305848673,-0.003329217666760087,-0.006019542925059795
1773790797541234400,0.330234375,-0.00138031633105129,-0.002531068166717887,-0.006090383045375347
1773790797561197600,0.350197509765625,-0.0009504822082817554,-0.00395692465826869,-0.005307147279381752
1773790797581160400,0.370160400390625,-0.001109739183448255,-0.002296443795785308,-0.006159092765301466
1773790797601123600,0.39012353515625,-0.0007147924043238163,-0.0026636936236172915,-0.005659217480570078
1773790797621086700,0.410086669921875,0.0004021373169962317,-0.0030919299460947514,-0.00609304616227746
1773790797641049600,0.430049560546875,-0.000996554852463305,-0.0037955371662974358,-0.005109807010740042
1773790797661012700,0.4500126953125,-0.000529436394572258,-0.0032826124224811792,-0.005679457448422909
1773790797680975400,0.469975341796875,-0.0005062668933533132,-0.0030466562602669,-0.006364156026393175
1773790797700938500,0.4899384765625,-0.0008873652550391853,-0.0018628811230883002,-0.006713829003274441
1773790797720901400,0.5099013671875,0.00006364954606397077,-0.003596332622691989,-0.006585997529327869
1773790797740864500,0.529864501953125,-0.00015632755821570754,-0.0026873957831412554,-0.005395830608904362
1773790797760827600,0.54982763671875,-0.001418665866367519,-0.0029885992407798767,-0.005152417812496424
1773790797780791600,0.56979150390625,-0.001189900329336524,-0.002523078816011548,-0.007110107224434614
1773790797800754400,0.58975439453125,-0.000505734293255955,-0.0030085730832070112,-0.006822752300649881
1773790797820717600,0.609717529296875,-0.0011970909545198083,-0.0031369375064969063,-0.004130030050873756
1773790797840680700,0.6296806640625,-0.0010567422723397613,-0.0024176177103072405,-0.0057167415507137775
1773790797860643600,0.6496435546875,-0.0009600695921108127,-0.0025513083674013615,-0.007449127733707428
1773790797880606700,0.669606689453125,0.000565122754778713,-0.0020391824655234814,-0.004718055948615074
1773790797900569300,0.6895693359375,0.00005885586142539978,-0.002174471039324999,-0.006066148169338703
1773790797920532500,0.709532470703125,-0.00042264367220923305,-0.0032202943693846464,-0.005923402961343527
1773790797940495400,0.729495361328125,-0.0004394215648062527,-0.005139368120580912,-0.004948153160512447
1773790797960458200,0.749458251953125,-0.00009161273919744417,-0.001913481275551021,-0.004997421521693468
1773790797980421000,0.769421142578125,0.00020346550445538014,-0.0035830168053507805,-0.005815278738737106
1773790798000384000,0.789384033203125,-0.00022849922243040055,-0.0034498588647693396,-0.004240285139530897
1773790798020347100,0.80934716796875,-0.0005627259379252791,-0.0021172130946069956,-0.005421929527074099
1773790798040310300,0.829310302734375,-0.00005219795639277436,-0.0026940538082271814,-0.006161755882203579
1773790798060273200,0.849273193359375,0.000185888638952747,-0.0032487902790308,-0.005802495405077934
1773790798080236300,0.869236328125,0.0005169195355847478,-0.0030000510159879923,-0.006389988586306572
1773790798100199200,0.88919921875,-0.0005073322099633515,-0.004002997186034918,-0.0046480149030685425
1773790798120162300,0.909162353515625,0.0001805623178370297,-0.0024839304387569427,-0.004798749927431345
1773790798140125200,0.929125244140625,0.00012090751260984689,-0.00336144189350307,-0.004992894362658262
1773790798160089300,0.94908935546875,0.0002796319022309035,-0.00227833422832191,-0.005245095584541559
1773790798180052200,0.96905224609375,0.0013017531018704176,-0.002398442942649126,-0.007340470794588327
1773790798200015000,0.98901513671875,-0.0008969526388682425,-0.003739877138286829,-0.004875715356320143
1773790798219978000,1.00897802734375,0.0001627191377338022,-0.0037502634804695845,-0.006167082116007805
1773790798239941000,1.028941162109375,-0.001306014135479927,-0.0029862024821341038,-0.005133242812007666
1773790798259904300,1.048904296875,-0.0005747101386077702,-0.0032519858796149492,-0.00700890738517046
1773790798279867100,1.0688671875,0.001047421246767044,-0.0028242822736501694,-0.004777977243065834
1773790798299830300,1.088830322265625,0.0004625910660251975,-0.0035814191214740276,-0.004504736978560686
1773790798319793200,1.108793212890625,0.00020133497309871018,-0.0025654230266809464,-0.005496498197317123
1773790798339756300,1.12875634765625,-0.0010934938909485936,-0.0021017666440457106,-0.005614742636680603
1773790798359719200,1.14871923828125,0.00009267800487577915,-0.003569700988009572,-0.006459231022745371
1773790798379682000,1.16868212890625,0.00006471481174230576,-0.0026940538082271814,-0.0043737092055380344
1773790798399645200,1.188645263671875,-0.0010000169277191162,-0.0023584954906255007,-0.005760950036346912
1773790798419608000,1.208608154296875,0.0007374293054454029,-0.0029316076543182135,-0.006445115897804499
1773790798439571200,1.2285712890625,-0.0008929579053074121,-0.002740659052506089,-0.005102883093059063
1773790798459534000,1.2485341796875,0.000031957933970261365,-0.002636529505252838,-0.006648581475019455
1773790798479497200,1.268497314453125,0.00010972223390126601,-0.0035723643377423286,-0.005018726922571659
1773790798499460000,1.288460205078125,-0.0019068233668804169,-0.0023166837636381388,-0.004989165812730789
1773790798519423200,1.30842333984375,-0.0009648632840253413,-0.0016298545524477959,-0.005974003113806248
1773790798539387100,1.32838720703125,0.00038242992013692856,-0.0035055188927799463,-0.0065439194440841675
1773790798559350300,1.348350341796875,-0.001291100517846644,-0.0035979305393993855,-0.005453887395560741
1773790798579313200,1.368313232421875,-0.00044581317342817783,-0.002947852946817875,-0.006327138282358646
1773790798599276000,1.388276123046875,-0.0000476705827168189,-0.0025901903863996267,-0.005338838789612055
1773790798619239200,1.4082392578125,0.0008471515611745417,-0.0030184267088770866,-0.004991828929632902
1773790798639202000,1.4282021484375,-0.0006434197421185672,-0.0024136228021234274,-0.00603339122608304
1773790798659165200,1.448165283203125,-0.000055393749789800495,-0.002261023735627532,-0.005191832315176725
1773790798679128000,1.468128173828125,-0.0010578075889497995,-0.0037140443455427885,-0.004367584362626076
1773790798699091200,1.48809130859375,-0.00011211907985853031,-0.003221359569579363,-0.005477056838572025
1773790798719054300,1.508054443359375,-0.0005659217131324112,-0.0023558323737233877,-0.005298092495650053
1773790798739017200,1.528017333984375,-0.0003020024741999805,-0.0010801780736073852,-0.006362558342516422
1773790798758980400,1.54798046875,-0.00035127095179632306,-0.003177417442202568,-0.005050152540206909
1773790798778943000,1.56794287109375,0.0000476705827168189,-0.003997937310487032,-0.006383863277733326
1773790798798906000,1.587906005859375,-0.0019768644124269485,-0.002112685702741146,-0.005407548509538174
1773790798818869000,1.607868896484375,0.0004069310089107603,-0.002103897277265787,-0.00552392890676856
1773790798838832000,1.62783203125,-0.0018053569365292788,-0.00290391081944108,-0.0057098171673715115
1773790798858795300,1.647795166015625,0.0008436894277110696,-0.0033981935121119022,-0.004680505488067865
1773790798878758100,1.667758056640625,0.00012516857532318681,-0.0031704932916909456,-0.006852313410490751
1773790798898721300,1.68772119140625,0.00043116576853208244,-0.0023731428664177656,-0.005530320107936859
1773790798918684200,1.70768408203125,-0.0013214604696258903,-0.002444781828671694,-0.0054546864703297615
1773790798938647600,1.7276474609375,0.000007190534688561456,-0.0021260015200823545,-0.005169461946934462
1773790798958610400,1.7476103515625,-0.0008463526028208435,-0.0029606360476464033,-0.006095975637435913
1773790798978573600,1.767573486328125,0.00007536746124969795,-0.003120425855740905,-0.004992628004401922
1773790798998536400,1.787536376953125,-0.0008982842555269599,-0.0036336169578135014,-0.005282912403345108
1773790799018500600,1.80750048828125,0.000040746363083599135,-0.003516171593219042,-0.0048797097988426685
1773790799038463200,1.827463134765625,-0.0014391721924766898,-0.002895388752222061,-0.005369465332478285
1773790799058426400,1.84742626953125,0.00023702133330516517,-0.002822684356942773,-0.005960953421890736
1773790799078389500,1.867389404296875,-0.0011803129455074668,-0.002177933230996132,-0.006813164800405502
1773790799098352400,1.887352294921875,-0.001228516222909093,-0.0026841999497264624,-0.006317284423857927
1773790799118315500,1.9073154296875,0.0007608651067130268,-0.002945456188172102,-0.005343366414308548
1773790799138278400,1.9272783203125,0.00041278995922766626,-0.002540389308705926,-0.006311425473541021
1773790799158241500,1.947241455078125,-0.000952080066781491,-0.0033340114168822765,-0.006334861274808645
1773790799178204400,1.967204345703125,-0.0010966897243633866,-0.004190484061837196,-0.005025651305913925
1773790799198167600,1.98716748046875,0.0007550061563961208,-0.002941993996500969,-0.006147374864667654
1773790799218130400,2.00713037109375,0.0009331716573797166,-0.0034874093253165483,-0.005263205152004957
1773790799238093300,2.02709326171875,-0.00031664984999224544,-0.0029585056472569704,-0.005152684170752764
1773790799258056400,2.047056396484375,0.001023186487145722,-0.003347327234223485,-0.004595017991960049
1773790799278019300,2.067019287109375,0.0006846986943855882,-0.002532399957999587,-0.00640836451202631
1773790799297982500,2.086982421875,0.00015419702685903758,-0.002692455891519785,-0.004896488040685654
1773790799317945600,2.106945556640625,-0.00027803401462733746,-0.002855974016711116,-0.0043561323545873165
1773790799337908500,2.126908447265625,0.000011717908819264267,-0.0030511836521327496,-0.004268780816346407
1773790799357871600,2.14687158203125,-0.0006317017832770944,-0.002121207769960165,-0.004351871553808451
1773790799377834500,2.16683447265625,-0.0010660634143278003,-0.0024439829867333174,-0.005369998048990965
1773790799397797600,2.186797607421875,0.0002721750643104315,-0.0024437166284769773,-0.0057249972596764565
1773790799417760300,2.20676025390625,0.00038216362008824944,-0.003441869281232357,-0.004848018288612366
1773790799437723400,2.226723388671875,-0.0016365124611184,-0.00418409239500761,-0.005997971165925264
1773790799457686500,2.2466865234375,-0.0008602010202594101,-0.004279433749616146,-0.007370031904429197
1773790799477649400,2.2666494140625,-0.00041438787593506277,-0.002270344877615571,-0.005862150341272354
1773790799497612500,2.286612548828125,-0.0018226674292236567,-0.0035326832439750433,-0.006184925325214863
1773790799517575400,2.306575439453125,-0.0005145227187313139,-0.003040797309949994,-0.005799299571663141
1773790799537538600,2.32653857421875,0.00036938043194822967,-0.001680454588495195,-0.005641906522214413
1773790799557501400,2.34650146484375,-0.002375007141381502,-0.004053597338497639,-0.004282895475625992
1773790799577465600,2.366465576171875,-0.00018801917030941695,-0.0028067054226994514,-0.0054759918712079525
1773790799597428500,2.386428466796875,-0.001582982949912548,-0.0020303940400481224,-0.00589623861014843
1773790799617391400,2.406391357421875,0.001166198286227882,-0.0023971113841980696,-0.005304484162479639
1773790799637354500,2.4263544921875,-0.0008114652009680867,-0.002817091764882207,-0.004947886802256107
1773790799657317400,2.4463173828125,0.00010412959818495438,-0.0028032432310283184,-0.006006759591400623
1773790799677280500,2.466280517578125,-0.0026668894570320845,-0.0021233384031802416,-0.005288505461066961
1773790799697243400,2.486243408203125,-0.00042504051816649735,-0.003096457337960601,-0.005395297892391682
1773790799717206500,2.50620654296875,-0.00018322547839488834,-0.002877545543015003,-0.005573463626205921
1773790799737169400,2.52616943359375,-0.0004721784498542547,-0.0034349451307207346,-0.00729386555030942
1773790799757132500,2.546132568359375,-0.000006391586794052273,-0.0025627599097788334,-0.006073338910937309
1773790799777095700,2.566095703125,0.0006948187365196645,-0.003596598980948329,-0.0048826392740011215
1773790799797058600,2.58605859375,0.0007605988066643476,-0.004028031136840582,-0.005138569511473179
1773790799817021400,2.606021484375,0.00013635384675581008,-0.0033720945939421654,-0.005120193585753441
1773790799836984300,2.625984375,-0.000434361572843045,-0.0026471822056919336,-0.005664810072630644
1773790799856947500,2.645947509765625,-0.0013134710025042295,-0.0031941954512149096,-0.006194779183715582
1773790799876910300,2.665910400390625,-0.0006705839768983424,-0.002916427794843912,-0.0059961071237921715
1773790799896873500,2.68587353515625,-0.0009361011325381696,-0.002171008847653866,-0.004833637271076441
1773790799916836600,2.705836669921875,0.00002210423735959921,-0.0034237599465996027,-0.0060203419998288155
1773790799936799500,2.725799560546875,-0.0018748653819784522,-0.0037228327710181475,-0.006686398293823004
1773790799956763000,2.745762939453125,-0.0004170510219410062,-0.0029824741650372744,-0.005606486462056637
1773790799976725800,2.765725830078125,0.0010988202411681414,-0.0024170849937945604,-0.005225121974945068
1773790799996689000,2.78568896484375,-0.0007843009079806507,-0.0038863508962094784,-0.005091963801532984
1773790800016651800,2.80565185546875,-0.0000756337758502923,-0.003323358716443181,-0.007110639940947294
1773790800036615000,2.825614990234375,-0.0009523464250378311,-0.0030280142091214657,-0.006141249556094408
1773790800056577800,2.845577880859375,-0.0007118629291653633,-0.003945206757634878,-0.004273840691894293
1773790800076540700,2.865540771484375,-0.0014985607704147696,-0.003890878288075328,-0.006088785361498594
1773790800096503800,2.88550390625,-0.0004034689045511186,-0.0023752732668071985,-0.00555269094184041
1773790800116466700,2.905466796875,-0.000922252656891942,-0.0027896612882614136,-0.005586779210716486
1773790800136429800,2.925429931640625,0.000179230744834058,-0.0028903286438435316,-0.004226969089359045
1773790800156392700,2.945392822265625,-0.001722798915579915,-0.002951315138489008,-0.005851763766258955
1773790800176355800,2.96535595703125,-0.0009129316313192248,-0.0030208237003535032,-0.007169229444116354
1773790800196319000,2.985319091796875,-0.0005209143273532391,-0.0028642297256737947,-0.00589650496840477
1773790800216281900,3.00528173828125,0.0003323625132907182,-0.004078098572790623,-0.005037369206547737
1773790800236245800,3.025245849609375,-0.0018647453980520368,-0.00379021093249321,-0.0070797475054860115
1773790800256209000,3.045208984375,0.00042823629337362945,-0.003153715282678604,-0.0051955608651041985
1773790800276171800,3.065171875,0.000934236915782094,-0.003486610483378172,-0.004761199466884136
1773790800296134700,3.085134765625,0.0012578109744936228,-0.0037228327710181475,-0.006136988289654255
1773790800316097800,3.105097900390625,-0.000517718493938446,-0.0044171190820634365,-0.005388373974710703
1773790800336060700,3.125060791015625,-0.0007211840129457414,-0.0024256070610135794,-0.0049406965263187885
1773790800356023800,3.14502392578125,0.000609863898716867,-0.0023433153983205557,-0.00561048137024045
1773790800375986700,3.164986572265625,0.001141963410191238,-0.002666356973350048,-0.006066947244107723
1773790800395949800,3.18494970703125,0.0004918858758173883,-0.0020764668006449938,-0.007108509540557861
1773790800415913000,3.204912841796875,-0.0009427590412087739,-0.003653058083727956,-0.004890895448625088
1773790800435875800,3.224875732421875,-0.0007382282637991011,-0.002986735198646784,-0.0070280819199979305
1773790800455838700,3.244838623046875,-0.0006375607335940003,-0.00202293717302382,-0.0040972731076180935
1773790800475801600,3.264801513671875,-0.00046072687837295234,-0.002788329729810357,-0.006155896931886673
1773790800495764700,3.2847646484375,0.0007858988246880472,-0.0041638524271547794,-0.006342850625514984
1773790800515728000,3.304727783203125,-0.002243446884676814,-0.0018911106744781137,-0.00507039250805974
1773790800535690800,3.324690673828125,-0.0004450142150744796,-0.0024349282030016184,-0.005905027035623789
1773790800555654000,3.34465380859375,-0.0015931029338389635,-0.003305781865492463,-0.00589677132666111
1773790800575616800,3.36461669921875,-0.0023286680225282907,-0.0034328147303313017,-0.003962783608585596
1773790800595580000,3.384579833984375,-0.0005819007055833936,-0.0039278962649405,-0.005400358233600855
1773790800615542800,3.404542724609375,-0.00003355582884978503,-0.00267807487398386,-0.004830707795917988
1773790800635506000,3.424505859375,-0.000245543458731845,-0.0023872575256973505,-0.006351905409246683
1773790800655468800,3.44446875,-0.0003398193512111902,-0.002198173198848963,-0.006332198157906532
1773790800675431700,3.464431640625,-0.0005344964447431266,-0.003195260651409626,-0.004840295296162367
1773790800695394800,3.484394775390625,-0.00021385183208622038,-0.0017475662752985954,-0.005170793738216162
1773790800715357700,3.504357666015625,-0.0002681803307496011,-0.00245143985375762,-0.005893841851502657
1773790800735320800,3.52432080078125,0.00034727618913166225,-0.0035127094015479088,-0.005853361915796995
1773790800755283700,3.54428369140625,0.00010945591930067167,-0.00270683690905571,-0.00748960766941309
1773790800775246800,3.564246826171875,-0.00043995422311127186,-0.003355849301442504,-0.006502107717096806
1773790800795210000,3.5842099609375,0.00041492050513625145,-0.0033784860279411077,-0.005360676907002926
1773790800815172900,3.6041728515625,0.0011938951211050153,-0.0028336034156382084,-0.00669278996065259
1773790800835135700,3.6241357421875,-0.0013560815714299679,-0.0020591560751199722,-0.006589459255337715
1773790800855098600,3.6440986328125,-0.0008048072922974825,-0.0031561122741550207,-0.005882390309125185
1773790800875061800,3.664061767578125,-0.00005699164830730297,-0.001960352761670947,-0.005600627511739731
1773790800895025000,3.68402490234375,-0.000544350128620863,-0.002683401107788086,-0.007004113402217627
1773790800914987800,3.70398779296875,-0.0020564929582178593,-0.0022152173332870007,-0.006396113894879818
1773790800934951000,3.723950927734375,-0.0016695356462150812,-0.0033009881153702736,-0.0067844027653336525
1773790800954913800,3.743913818359375,-0.00044900894863530993,-0.003177151083946228,-0.005143629387021065
1773790800974877000,3.763876953125,0.0009755159262567759,-0.0037470676470547915,-0.00637906976044178
1773790800994839800,3.78383984375,0.0008189220097847283,-0.0032056469935923815,-0.0062363240867853165
1773790801014802700,3.803802734375,-0.0007374293054454029,-0.0019038938917219639,-0.006401173770427704
1773790801034766800,3.823766845703125,-0.0002873550693038851,-0.002482066163793206,-0.005426723510026932
1773790801054729700,3.843729736328125,-0.0005302353529259562,-0.00177899154368788,-0.006376406643539667
1773790801074692600,3.863692626953125,-0.0006319681415334344,-0.0023012375459074974,-0.005107676610350609
1773790801094655700,3.88365576171875,-0.00040480049210600555,-0.002814961364492774,-0.005367334932088852
1773790801114619000,3.903618896484375,0.00003728425508597866,-0.003513508476316929,-0.005842442624270916
1773790801134581800,3.923581787109375,-0.0006644586683250964,-0.0028943235520273447,-0.005350290797650814
1773790801154545000,3.943544921875,-0.0011523497523739934,-0.0030024477746337652,-0.007183078210800886
1773790801174507800,3.9635078125,-0.000297475082334131,-0.0036703685764223337,-0.007200655061751604
1773790801194471000,3.983470947265625,-0.0008247809601016343,-0.0035270904190838337,-0.005090632475912571
1773790801214433800,4.003433837890625,0.00039787625428289175,-0.002695651724934578,-0.0065164887346327305
1773790801234396700,4.023396728515625,-0.0008077367674559355,-0.003483681008219719,-0.0063037024810910225
1773790801254359800,4.04335986328125,0.00017656758427619934,-0.004113784991204739,-0.00549170421436429
1773790801274322700,4.06332275390625,-0.0011531487107276917,-0.003983289934694767,-0.005650961305946112
1773790801294285800,4.083285888671875,-0.0009651295840740204,-0.002986735198646784,-0.0065348646603524685
1773790801314248700,4.103248779296875,-0.00025752768851816654,-0.0038780951872467995,-0.0065202172845602036
1773790801334211800,4.1232119140625,0.0001840244367485866,-0.002383795566856861,-0.005484247580170631
1773790801354175000,4.143175048828125,-0.00007962851668708026,-0.0024892566725611687,-0.0052118063904345036
1773790801374137900,4.163137939453125,0.0005073322099633515,-0.0026075011119246483,-0.00649704784154892
1773790801394101000,4.18310107421875,-0.0023403859231621027,-0.003179814200848341,-0.005800897255539894
1773790801414063600,4.203063720703125,-0.0004082625964656472,-0.0030091057997196913,-0.005939381662756205
1773790801434026800,4.22302685546875,-0.0012580773327499628,-0.003751595038920641,-0.00392709719017148
1773790801453989600,4.24298974609375,-0.0008436894277110696,-0.001999501371756196,-0.006622482556849718
1773790801473952800,4.262952880859375,-0.000627707049716264,-0.0031467911321669817,-0.006071208510547876
1773790801493916000,4.282916015625,-0.0007089334540069103,-0.0015694007743149996,-0.00669358903542161
1773790801513878800,4.302878662109375,-0.0014450311427935958,-0.0027475832030177116,-0.00549170421436429
1773790801533842000,4.322842041015625,-0.0004215783847030252,-0.0032527849543839693,-0.006405701395124197
1773790801553804800,4.3428046875,-0.0006580671179108322,-0.0026841999497264624,-0.005959089379757643
1773790801573768000,4.362767822265625,0.000627973407972604,-0.0025358619168400764,-0.005390504375100136
1773790801593730800,4.382730712890625,-0.00041332258842885494,-0.0029313412960618734,-0.005679191090166569
1773790801613693700,4.402693603515625,0.000060453756304923445,-0.002680205274373293,-0.006440322380512953
1773790801633656800,4.42265673828125,-0.0003664509567897767,-0.0023398532066494226,-0.006844324059784412
1773790801653619700,4.44261962890625,-0.00018881811411119998,-0.002621615771204233,-0.006183859892189503
1773790801673582800,4.462582763671875,-0.0011057445080950856,-0.0027110979426652193,-0.003954261541366577
1773790801693545700,4.482545654296875,-0.0006948187365196645,-0.003005377249792218,-0.006397712044417858
1773790801713508900,4.5025087890625,0.000264718197286129,-0.003356115659698844,-0.004995823837816715
1773790801733471700,4.5224716796875,-0.0006303702248260379,-0.0022833943367004395,-0.0057590859942138195
1773790801753435000,4.542434814453125,0.0004572647449094802,-0.0025068335235118866,-0.005045891273766756
1773790801773397800,4.562397705078125,-0.0024892566725611687,-0.0031374699901789427,-0.005944175645709038
1773790801793360600,4.582360595703125,-0.000251402409048751,-0.0027081684675067663,-0.005855492316186428
1773790801813323800,4.60232373046875,0.00036218989407643676,-0.003500725142657757,-0.005829659756273031
1773790801833286700,4.62228662109375,-0.001237571006640792,-0.004107659682631493,-0.006342584267258644
1773790801853249800,4.642249755859375,-0.0023843280505388975,-0.0036389431916177273,-0.00586614478379488
1773790801873213000,4.662212890625,-0.0011608719360083342,-0.004233360756188631,-0.006113818846642971
1773790801893175800,4.68217578125,-0.0000066579027588886674,-0.0031212246976792812,-0.005131112411618233
1773790801913139000,4.702138916015625,-0.0013334447285160422,-0.0027923244051635265,-0.00538544449955225
1773790801933101800,4.722101806640625,-0.00024740767548792064,-0.00407463638111949,-0.005612611770629883
1773790801953064400,4.742064453125,-0.0005584649043157697,-0.002177400514483452,-0.005812881514430046
1773790801973027600,4.762027587890625,-0.0015787219163030386,-0.003177417442202568,-0.004879443906247616
1773790801992990500,4.781990478515625,-0.001130778226070106,-0.002975283656269312,-0.005088767968118191
1773790802012953600,4.80195361328125,0.00014514227223116904,-0.003290868131443858,-0.005469067487865686
1773790802032916200,4.821916259765625,0.0015893745003268123,-0.004193679895251989,-0.005051483865827322
1773790802052879400,4.84187939453125,-0.0004966795677319169,-0.0015398397808894515,-0.006566023454070091
1773790802072842200,4.86184228515625,0.00031185615807771683,-0.0021558289881795645,-0.006963100749999285
1773790802092805400,4.881805419921875,-0.0011941614793613553,-0.00378967821598053,-0.005531651899218559
1773790802112768500,4.9017685546875,0.0005273058777675033,-0.002246909076347947,-0.007445399183779955
1773790802132731400,4.9217314453125,-0.0010660634143278003,-0.0037358824629336596,-0.006671218667179346
1773790802152694500,4.941694580078125,-0.00024767397553659976,-0.0027571707032620907,-0.006941529456526041
1773790802172657400,4.961657470703125,-0.0005201153689995408,-0.0025590313598513603,-0.004462658893316984
1773790802192620500,4.98162060546875,-0.001487641828134656,-0.0021339908707886934,-0.005073055624961853
1773790802212583400,5.00158349609375,-0.0002282329078298062,-0.003605387406423688,-0.005465871654450893
1773790802232546300,5.02154638671875,-0.0004191815387457609,-0.002960369922220707,-0.005281847435981035
1773790802252509400,5.041509521484375,-0.0019262643763795495,-0.0026290726382285357,-0.004465854726731777
1773790802272473300,5.061473388671875,0.0002873550693038851,-0.0027715517207980156,-0.00609437795355916
1773790802292436500,5.0814365234375,-0.0012484899489209056,-0.002822684356942773,-0.0067660268396139145
1773790802312399400,5.1013994140625,0.00013528858835343271,-0.0031467911321669817,-0.005013400688767433
1773790802332362500,5.121362548828125,-0.0002263686910737306,-0.003525492735207081,-0.005678924731910229
1773790802352325400,5.141325439453125,-0.0007408913807012141,-0.0039020637050271034,-0.00627094553783536
1773790802372288500,5.16128857421875,0.0007472829893231392,-0.0031931300181895494,-0.0052320463582873344
1773790802392251400,5.18125146484375,-0.0012679309584200382,-0.0026940538082271814,-0.004975850228220224
1773790802412214500,5.201214599609375,-0.0002402171230642125,-0.0030458574183285236,-0.005471197888255119
1773790802432177400,5.221177490234375,-0.000014913702216290403,-0.0033097765408456326,-0.005809952039271593
1773790802452140300,5.241140380859375,0.00014913702034391463,-0.0027289411518722773,-0.006038185209035873
1773790802472103400,5.261103515625,0.001038632821291685,-0.002630137838423252,-0.006933273747563362
1773790802492066300,5.28106640625,0.0007741809240542352,-0.0023907197173684835,-0.005005144979804754
1773790802512029400,5.301029541015625,-0.0006351639167405665,-0.0027627632953226566,-0.006593986880034208
1773790802531992300,5.320992431640625,-0.0009504822082817554,-0.0014415690675377846,-0.005082376766949892
1773790802551955500,5.34095556640625,-0.00039867521263659,-0.002871153876185417,-0.004444282967597246
1773790802571918600,5.360918701171875,-0.0015595471486449242,-0.0034405377227813005,-0.004412857815623283
1773790802591881500,5.380881591796875,0.00007217166421469301,-0.002229065867140889,-0.004609665367752314
1773790802611844600,5.4008447265625,0.0004767058417201042,-0.003406715579330921,-0.006072007119655609
1773790802631807200,5.42080712890625,-0.0007211840129457414,-0.002520149340853095,-0.0060144830495119095
1773790802651770400,5.440770263671875,-0.00036938043194822967,-0.004453337751328945,-0.004720719531178474
1773790802671733500,5.4607333984375,0.0013174657942727208,-0.003067961661145091,-0.0062392535619437695
1773790802691696400,5.4806962890625,-0.001543834456242621,-0.002650910522788763,-0.004773450084030628
1773790802711659500,5.500659423828125,-0.00011771172285079956,-0.0035483958199620247,-0.005644570104777813
1773790802731622400,5.520622314453125,-0.0001294296234846115,-0.004070641472935677,-0.004953479394316673
1773790802751585500,5.54058544921875,0.0007062703371047974,-0.0023318638559430838,-0.0059867859818041325
1773790802771548400,5.56054833984375,-0.0015939018921926618,-0.0031079088803380728,-0.006511961575597525
1773790802791511600,5.580511474609375,0.0004564658156596124,-0.0034884747583419085,-0.004800081718713045
1773790802811474400,5.600474365234375,-0.0000900148443179205,-0.0033688987605273724,-0.006190784275531769
1773790802831437300,5.620437255859375,0.0009347695158794522,-0.0021827267482876778,-0.00589517317712307
1773790802851400400,5.640400390625,0.00042024682625196874,-0.0033041839487850666,-0.0062520368956029415
1773790802871363300,5.66036328125,0.000050333743274677545,-0.0023489079903811216,-0.005559881217777729
1773790802891326500,5.680326416015625,-0.0007408913807012141,-0.004381699021905661,-0.005042961798608303
1773790802911289300,5.700289306640625,-0.000841825210954994,-0.0034618431236594915,-0.006296511739492416
1773790802931252500,5.72025244140625,-0.001874066423624754,-0.003087668912485242,-0.005432049743831158
1773790802951215900,5.7402158203125,0.00022317290131468326,-0.0021731394808739424,-0.0051683965139091015
1773790802971179000,5.760178955078125,-0.0012024171883240342,-0.0027720844373106956,-0.0059899818152189255
1773790802991142100,5.78014208984375,0.00033156355493701994,-0.0033569145016372204,-0.0057739997282624245
1773790803011105000,5.80010498046875,0.000025832661776803434,-0.003079679561778903,-0.005825664848089218
1773790803031068000,5.82006787109375,-0.0004548678989522159,-0.00421471893787384,-0.004159591160714626
1773790803051030800,5.84003076171875,-0.0006775081856176257,-0.002680737990885973,-0.005864014383405447
1773790803070994000,5.859993896484375,-0.000054328484111465514,-0.003388339886441827,-0.004526575095951557
1773790803090956800,5.879956787109375,-0.0006356965750455856,-0.0028248149901628494,-0.005201153457164764
1773790803110920000,5.899919921875,-0.0005273058777675033,-0.0026458504144102335,-0.004677043296396732
1773790803130883000,5.919883056640625,0.00005406216951087117,-0.004036553204059601,-0.00570049649104476
1773790803150846000,5.939845947265625,-0.0017603494925424457,-0.00341603672131896,-0.005655755288898945
1773790803170809000,5.95980908203125,0.0004727110790554434,-0.0026314693968743086,-0.007639011368155479
1773790803190772000,5.97977197265625,-0.0008306399104185402,-0.0024285365361720324,-0.006941263098269701
1773790803210735000,5.999735107421875,-0.00001944107498275116,-0.0033899378031492233,-0.006190784275531769
1773790803230698000,6.019697998046875,-0.0003992078418377787,-0.003980893176048994,-0.006044842768460512
1773790803250660900,6.039660888671875,0.00021385183208622038,-0.003584881080314517,-0.004959338344633579
1773790803270624000,6.0596240234375,0.00039601203752681613,-0.001484179636463523,-0.007024353835731745
1773790803290587000,6.0795869140625,0.0005608617211692035,-0.0028549085836857557,-0.005066663958132267
1773790803310550000,6.099550048828125,-0.0007893609581515193,-0.003070624778047204,-0.00478410255163908
1773790803330513000,6.119512939453125,0.00005193164179218002,-0.0039084553718566895,-0.004043743945658207
1773790803350476000,6.13947607421875,-0.0005198490689508617,-0.002663161139935255,-0.007018228527158499
1773790803370439200,6.159439208984375,-0.000248472933890298,-0.002439455594867468,-0.006552441511303186
1773790803390402000,6.179402099609375,-0.0011587414192035794,-0.0024594292044639587,-0.006104231346398592
1773790803410365000,6.199364990234375,-0.0010404969798400998,-0.003921770956367254,-0.0054333810694515705
1773790803430327800,6.219327880859375,-0.0012998889433220029,-0.002800047630444169,-0.004865861497819424
1773790803450291000,6.239291015625,-0.0000953411654336378,-0.003385144053027034,-0.006314088590443134
1773790803470253800,6.25925390625,-0.00021758026559837162,-0.0036005936563014984,-0.00570023013278842
1773790803490217000,6.279217041015625,0.000018908443962573074,-0.0016852483386173844,-0.0059686764143407345
1773790803510180000,6.29918017578125,-0.001398425898514688,-0.00333214714191854,-0.006680805701762438
1773790803530143000,6.31914306640625,-0.0009265137487091124,-0.0030075078830122948,-0.004792358260601759
1773790803550106000,6.339106201171875,0.0001411475386703387,-0.002814428647980094,-0.005139634478837252
1773790803570069000,6.359069091796875,-0.0014498248929157853,-0.0037822213489562273,-0.005292499903589487
1773790803590032000,6.379031982421875,0.0005403553950600326,-0.00310577847994864,-0.006025668233633041
1773790803609995000,6.3989951171875,-0.00031851406674832106,-0.0026402578223496675,-0.007458981592208147
1773790803629958000,6.4189580078125,-0.0008295746520161629,-0.002615490462630987,-0.006018477492034435
1773790803649921000,6.438921142578125,0.000007456851108145202,-0.0048861014656722546,-0.006552175153046846
1773790803669884000,6.4588837890625,0.00019920444174204022,-0.0025502429343760014,-0.006610498297959566
1773790803689847000,6.478846923828125,-0.00029108350281603634,-0.0028703550342470407,-0.006661631166934967
1773790803709810000,6.498809814453125,-0.0002324939559912309,-0.0027049726340919733,-0.006253635045140982
1773790803729773000,6.51877294921875,-0.0006956176948733628,-0.003686613868921995,-0.004982774145901203
1773790803749736200,6.538736083984375,-0.0008247809601016343,-0.0033212280832231045,-0.005357214715331793
1773790803769698800,6.55869873046875,-0.0010551444720476866,-0.0026498453225940466,-0.005306348204612732
1773790803789662000,6.578661865234375,0.0005004079430364072,-0.0035625104792416096,-0.006474943365901709
1773790803809624800,6.598624755859375,-0.000523843802511692,-0.0035505264531821012,-0.0065226140432059765
1773790803829588000,6.618587890625,-0.0004519384237937629,-0.0031611721497029066,-0.0046607982367277145
1773790803849550800,6.63855078125,-0.000303334032651037,-0.002567553659901023,-0.0052259210497140884
1773790803869514000,6.658513916015625,-0.00030652983696199954,-0.003254649229347706,-0.0059756007976830006
1773790803889477000,6.67847705078125,0.00033103092573583126,-0.003540672594681382,-0.005064799915999174
1773790803909440000,6.69843994140625,-0.0004391552647575736,-0.003602457931265235,-0.004567853640764952
1773790803929403100,6.718403076171875,-0.001520398654974997,-0.0028639633674174547,-0.005649097263813019
1773790803949365500,6.738365478515625,-0.0012860405258834362,-0.003370230318978429,-0.005879194475710392
1773790803969328600,6.75832861328125,-0.0019861855544149876,-0.004462392535060644,-0.006431267596781254
1773790803989291800,6.778291748046875,-0.00009081379539566115,-0.0035121769178658724,-0.005624596029520035
1773790804009254400,6.79825439453125,-0.0005360943032428622,-0.0027417242527008057,-0.006998787168413401
1773790804029217500,6.818217529296875,-0.0005001416429877281,-0.002945456188172102,-0.004959871061146259
1773790804049180400,6.838180419921875,0.00002210423735959921,-0.003519633784890175,-0.005432582460343838
1773790804069143600,6.8581435546875,-0.0006495449924841523,-0.0016447682864964008,-0.0057436395436525345
1773790804089106400,6.8781064453125,-0.001273257308639586,-0.002061286708340049,-0.0052173989824950695
1773790804109068500,6.898068603515625,-0.0007030745036900043,-0.002811499172821641,-0.007084541022777557
1773790804129032700,6.91803271484375,-0.00030599720776081085,-0.002980343531817198,-0.005389971658587456
1773790804148994600,6.93799462890625,0.0020724718924611807,-0.003245860803872347,-0.006299441214650869
1773790804168957400,6.95795751953125,-0.0007952199084684253,-0.0018972359830513597,-0.006219812668859959
1773790804188920600,6.977920654296875,-0.00017097493400797248,-0.0032927324064075947,-0.006044044159352779
1773790804208883500,6.997883544921875,-0.0002258360618725419,-0.0036304211243987083,-0.006082393694669008
1773790804228846600,7.0178466796875,-0.0010064085945487022,-0.003038400551304221,-0.00501180300489068
1773790804248809500,7.0378095703125,-0.0009446232579648495,-0.00361817074008286,-0.005595567636191845
1773790804268772600,7.057772705078125,-0.0005054679932072759,-0.004309793468564749,-0.005845105741173029
1773790804288735700,7.07773583984375,0.00033396040089428425,-0.003090598387643695,-0.006450176239013672
1773790804308698600,7.09769873046875,0.00016884441720321774,-0.0037377465050667524,-0.005770537536591291
1773790804328661500,7.11766162109375,-0.0008372978190891445,-0.0043867588974535465,-0.004881840664893389
1773790804348624400,7.137624267578125,0.00038988678716123104,-0.003144660498946905,-0.006588127929717302
1773790804368587500,7.15758740234375,0.00018349179299548268,-0.0026375947054475546,-0.004802478477358818
1773790804388550400,7.17755029296875,0.0003605920064728707,-0.002817091764882207,-0.00529676117002964
1773790804408513500,7.197513427734375,0.00015419702685903758,-0.0028336034156382084,-0.006059756502509117
1773790804428476700,7.2174765625,0.0006530070677399635,-0.0026642263401299715,-0.006533000618219376
1773790804448439600,7.237439453125,0.0002993392990902066,-0.002971555106341839,-0.006028597708791494
1773790804468402700,7.257402587890625,-0.0007984156836755574,-0.003582217963412404,-0.006352171767503023
1773790804488365600,7.277365478515625,0.0006609965930692852,-0.0016287893522530794,-0.005591040477156639
1773790804508328400,7.297328369140625,-0.00032730249222368,-0.004052266012877226,-0.006539658177644014
1773790804528291600,7.31729150390625,-0.0003376888344064355,-0.004037618637084961,-0.005589175969362259
1773790804548254500,7.33725439453125,-0.00040772996726445854,-0.0037707698065787554,-0.006178000941872597
1773790804568217600,7.357217529296875,0.00033422670094296336,-0.002519882982596755,-0.005000350996851921
1773790804588180500,7.377180419921875,-0.0006258428329601884,-0.0039084553718566895,-0.00583818182349205
1773790804608143600,7.3971435546875,0.0002894856152124703,-0.003320429241284728,-0.004567321389913559
1773790804628106500,7.4171064453125,-0.00033103092573583126,-0.002975283656269312,-0.005447496194392443
1773790804648069600,7.437069580078125,0.00001704423084447626,-0.00481313094496727,-0.005043760873377323
1773790804668032800,7.45703271484375,0.0002300971100339666,-0.0026141589041799307,-0.007210774812847376
1773790804687995400,7.476995361328125,0.00006231796578504145,-0.004606735892593861,-0.005148955620825291
1773790804707958500,7.49695849609375,-0.0007395598222501576,-0.005184642039239407,-0.005991845857352018
1773790804727921400,7.51692138671875,-0.002016811864450574,-0.003069559345021844,-0.004453071393072605
1773790804747884500,7.536884521484375,-0.001537975505925715,-0.003352653468027711,-0.005441637244075537
1773790804767847400,7.556847412109375,-0.0009337042574770749,-0.0035089810844510794,-0.0046211169101297855
1773790804787810600,7.576810546875,-0.0002258360618725419,-0.0032562471460551023,-0.005629390012472868
1773790804807773700,7.596773681640625,0.000368847802747041,-0.00310604483820498,-0.005101551301777363
1773790804827736600,7.616736572265625,-0.0014202637830749154,-0.00503870053216815,-0.005754824727773666
1773790804847699700,7.63669970703125,0.0001704423048067838,-0.002211222657933831,-0.004786765668541193
1773790804867662600,7.65666259765625,-0.000645550258923322,-0.0020413128659129143,-0.005834453273564577
1773790804887625500,7.67662548828125,0.00048363005043938756,-0.0026085663121193647,-0.006178267300128937
1773790804907588600,7.696588623046875,0.00020746025256812572,-0.00336170825175941,-0.005617938470095396
1773790804927551500,7.716551513671875,-0.0007691209320910275,-0.0016945693641901016,-0.004671717062592506
1773790804947514000,7.73651416015625,-0.000023169501218944788,-0.004839496221393347,-0.006130862981081009
1773790804967477000,7.75647705078125,-0.001714010490104556,-0.0033787523861974478,-0.005352953914552927
1773790804987440000,7.776440185546875,-0.00040746363811194897,-0.004089550115168095,-0.006229666527360678
1773790805007403000,7.796403076171875,0.00043276368523947895,-0.0033153691329061985,-0.006814230233430862
1773790805027366100,7.8163662109375,0.0011102718999609351,-0.003169161733239889,-0.00475374236702919
1773790805047329300,7.836329345703125,-0.0005475459038279951,-0.002397377509623766,-0.0049734534695744514
1773790805067292200,7.856292236328125,0.0001382180635118857,-0.0026133600622415543,-0.004491953644901514
1773790805087255300,7.87625537109375,0.00011345066013745964,-0.002912432886660099,-0.005277586169540882
1773790805107218200,7.89621826171875,-0.0008141283178701997,-0.002444781828671694,-0.005629922728985548
1773790805127181300,7.916181396484375,0.0006940197781659663,-0.0035233621019870043,-0.0060176788829267025
1773790805147144200,7.936144287109375,0.00012836436508223414,-0.0034461303148418665,-0.006080795545130968
1773790805167107000,7.956107177734375,-0.0005406216951087117,-0.0011731224367395043,-0.005416603293269873
1773790805187070200,7.9760703125,0.000026365294615970924,-0.0018753979820758104,-0.005854959599673748
1773790805207033000,7.996033203125,0.001017061178572476,-0.0028786107432097197,-0.005923669319599867
1773790805226995200,8.0159951171875,0.000014913702216290403,-0.0026021746452897787,-0.006050968077033758
1773790805246958300,8.035958251953126,-0.0001816275907913223,-0.0018370485631749034,-0.0054674698039889336
1773790805266921200,8.055921142578125,-0.0013627394801005721,-0.002945456188172102,-0.0056829191744327545
1773790805286884000,8.075884033203126,0.000028495824153651483,-0.0021851237397640944,-0.004997155629098415
1773790805306847000,8.095846923828125,-0.0008703210623934865,-0.0016831178218126297,-0.00574896577745676
1773790805326810000,8.11581005859375,0.0005528722540475428,-0.003457315731793642,-0.005575061310082674
1773790805346773200,8.135773193359375,0.0003094593121204525,-0.003117496380582452,-0.005833920557051897
1773790805366736100,8.155736083984374,0.00011771172285079956,-0.002183525823056698,-0.007182012777775526
1773790805386699300,8.17569921875,-0.0020754013676196337,-0.002919090911746025,-0.005132177844643593
1773790805406662100,8.195662109375,0.0015345134306699038,-0.0028636970091611147,-0.005870938766747713
1773790805426625300,8.215625244140625,-0.0001203748834086582,-0.003291134489700198,-0.005112470127642155
1773790805446588200,8.235588134765624,-0.0013709953054785728,-0.004187820944935083,-0.005783853121101856
1773790805466551000,8.255551025390625,0.0017747305100783706,-0.00358834327198565,-0.004312722943723202
1773790805486514200,8.27551416015625,-0.0019976370967924595,-0.0034993935842067003,-0.003964115399867296
1773790805506477000,8.29547705078125,-0.0010330402292311192,-0.0031166973058134317,-0.006333263125270605
1773790805526440200,8.315440185546874,0.0001877528557088226,-0.002686863299459219,-0.0052112736739218235
1773790805546403000,8.335403076171875,0.0017417073249816895,-0.0033329459838569164,-0.005735916085541248
1773790805566366200,8.3553662109375,-0.001683384063653648,-0.0024642229545861483,-0.006136721931397915
1773790805586329300,8.375329345703125,-0.0009622001089155674,-0.001463939668610692,-0.005817941855639219
1773790805606292200,8.395292236328125,-0.00011717908637365326,-0.0028730181511491537,-0.006658701691776514
1773790805626255400,8.41525537109375,0.0003483414766378701,-0.002841326640918851,-0.006188653875142336
1773790805646218000,8.435218017578125,-0.00040240364614874125,-0.0019209380261600018,-0.004989964887499809
1773790805666181000,8.45518115234375,-0.0001257012045243755,-0.0034410704392939806,-0.004352404270321131
1773790805686144000,8.47514404296875,-0.001454884884878993,-0.0028426581993699074,-0.00595562718808651
1773790805706107100,8.495107177734376,0.00016484966909047216,-0.002491120947524905,-0.005851763766258955
1773790805726070300,8.5150703125,-0.002287122653797269,-0.0029518476221710443,-0.005871205125004053
1773790805746033200,8.535033203125,-0.0005707154050469398,-0.002700445242226124,-0.005346029531210661
1773790805765996300,8.554996337890625,0.00061279337387532,-0.003093527862802148,-0.006779609248042107
1773790805785959200,8.574959228515626,-0.0009209210984408855,-0.004087952431291342,-0.00461685610935092
1773790805805922300,8.59492236328125,-0.0011318434262648225,-0.003933488857001066,-0.006464823614805937
1773790805825885200,8.61488525390625,0.00015632755821570754,-0.0034077810123562813,-0.00520647969096899
1773790805845848000,8.63484814453125,-0.0003222425002604723,-0.003230147995054722,-0.0049074068665504456
1773790805865811200,8.654811279296876,-0.0017576862592250109,-0.0016285229939967394,-0.005142031237483025
1773790805885774000,8.674774169921875,-0.00042743736412376165,-0.0022738068364560604,-0.005834719631820917
1773790805905736200,8.694736083984376,0.000014381069377122913,-0.00242134602740407,-0.006172941066324711
1773790805925699300,8.71469921875,-0.00002902845517382957,-0.003913248889148235,-0.0060171461664140224
1773790805945662500,8.734662353515626,0.0011323761427775025,-0.00112465291749686,-0.005279717035591602
1773790805965625600,8.75462548828125,0.00040799626731313765,-0.00384374032728374,-0.006523945834487677
1773790805985588500,8.77458837890625,-0.0004820321628358215,-0.003403786104172468,-0.0075940038077533245
1773790806005551600,8.794551513671875,-0.0010567422723397613,-0.0018807243322953582,-0.0054421694949269295
1773790806025514500,8.814514404296874,0.00039787625428289175,-0.002142513170838356,-0.006085323169827461
1773790806045477600,8.8344775390625,-0.00013262542779557407,-0.003634415799751878,-0.005363073665648699
1773790806065440800,8.854440673828124,-0.0009672601008787751,-0.0022980417124927044,-0.005949235521256924
1773790806085403400,8.8744033203125,-0.0011973571963608265,-0.00216568261384964,-0.005122057627886534
1773790806105366500,8.894366455078124,-0.0009174589649774134,-0.004325772635638714,-0.0059931776486337185
1773790806125329400,8.914329345703125,-0.0006655239267274737,-0.002954244613647461,-0.004963066894561052
1773790806145292500,8.93429248046875,-0.002141980454325676,-0.00216514989733696,-0.006788397673517466
1773790806165255400,8.95425537109375,-0.000003994741746282671,-0.002323341788724065,-0.0049100699834525585
1773790806185218600,8.974218505859374,-0.0025502429343760014,-0.003852262394502759,-0.004603273700922728
1773790806205181700,8.994181640625,0.0006159891490824521,-0.0027542412281036377,-0.004874383565038443
1773790806225144600,9.01414453125,-0.0018213358707726002,-0.0044112601317465305,-0.005787581671029329
1773790806245107700,9.034107666015625,0.0003073287953156978,-0.0034618431236594915,-0.007022489327937365
1773790806265070300,9.0540703125,0.0009795106016099453,-0.005044559482485056,-0.006906375754624605
1773790806285033500,9.074033447265625,-0.0008191883680410683,-0.0034887411165982485,-0.006673881784081459
1773790806304996600,9.09399658203125,-0.0011619371362030506,-0.003228017594665289,-0.006985205225646496
1773790806324959500,9.11395947265625,-0.00039254993316717446,-0.004035754129290581,-0.005851497408002615
1773790806344922600,9.133922607421875,-0.00033662354690022767,-0.0027020431589335203,-0.005617938470095396
1773790806364885500,9.153885498046876,0.00030546457855962217,-0.0025712819769978523,-0.003896470880135894
1773790806384848600,9.1738486328125,-0.0010780475568026304,-0.0020873856265097857,-0.006317550782114267
1773790806404811500,9.1938115234375,0.00015632755821570754,-0.0027417242527008057,-0.006695985794067383
1773790806424774700,9.213774658203125,-0.0004106594424229115,-0.0037590519059449434,-0.0046847667545080185
1773790806444736500,9.233736572265625,0.0009432916413061321,-0.0021020330023020506,-0.00628932099789381
1773790806464699400,9.253699462890625,-0.002020540414378047,-0.0036099147982895374,-0.003829892026260495
1773790806484662500,9.27366259765625,-0.0004159857635386288,-0.005652559455484152,-0.0035595810040831566
1773790806504625700,9.293625732421875,0.00009986854274757206,-0.002172074280679226,-0.005496231839060783
1773790806524588500,9.313588623046876,-0.00040666470886208117,-0.0025861957110464573,-0.005928462836891413
1773790806544551700,9.3335517578125,-0.0006673881434835494,-0.0027228158432990313,-0.005657885689288378
1773790806564514600,9.3535146484375,-0.0005656554130837321,-0.0036908749025315046,-0.006144977640360594
1773790806584477700,9.373477783203125,-0.0007592672482132912,-0.003579554846510291,-0.00418409239500761
1773790806604440600,9.393440673828126,0.0005315669695846736,-0.004309260752052069,-0.005541239399462938
1773790806624403500,9.413403564453125,0.000215716048842296,-0.001996039180085063,-0.005939648021012545
1773790806644366600,9.43336669921875,-0.0007808388327248394,-0.00392709719017148,-0.00788748450577259
1773790806664329500,9.45332958984375,-0.0018516959389671683,-0.0027031085919588804,-0.0055028898641467094
1773790806684292600,9.473292724609376,-0.0000029294772048160667,-0.0018809906905516982,-0.007032076828181744
1773790806704255500,9.49325537109375,-0.0011262508342042565,-0.0034264230635017157,-0.005838980432599783
1773790806724218600,9.513218505859374,0.000007723167072981596,-0.002740392694249749,-0.0057561565190553665
1773790806744181800,9.533181640625,-0.0002793656021822244,-0.0036421390250325203,-0.005253884010016918
1773790806764144600,9.55314453125,0.00036218989407643676,-0.003043460426852107,-0.005806223955005407
1773790806784107500,9.573107421875,-0.0010317085543647408,-0.0036615801509469748,-0.005676794331520796
1773790806804070400,9.5930703125,0.0005334311863407493,-0.002280997345224023,-0.00532578956335783
1773790806824033500,9.613033447265625,-0.0002937466779258102,-0.002374474424868822,-0.0046237800270318985
1773790806843996400,9.632996337890624,-0.0003968109958805144,-0.00293293921276927,-0.0038368161767721176
1773790806863959600,9.65295947265625,-0.00022184131375979632,-0.002813895931467414,-0.006108492612838745
1773790806883922700,9.672922607421874,-0.0005424859118647873,-0.0034677020739763975,-0.007004379760473967
1773790806903884500,9.692884521484375,-0.0001691107318038121,-0.0022184131667017937,-0.006298642139881849
1773790806923847400,9.712847412109374,-0.00018482338055036962,-0.0027838023379445076,-0.005407282151281834
1773790806943810600,9.732810546875,0.0002644518972374499,-0.003057841444388032,-0.008158061653375626
1773790806963773700,9.752773681640624,-0.000437291048001498,-0.0030088394414633512,-0.006433397997170687
1773790806983736800,9.77273681640625,-0.00011611382069531828,-0.0027771443128585815,-0.004956408869475126
1773790807003699700,9.79269970703125,-0.00026258768048137426,-0.003593935864046216,-0.004787298385053873
1773790807023662800,9.812662841796875,0.0008468852029182017,-0.001984853995963931,-0.005511678289622068
1773790807043625700,9.832625732421874,0.00007616640505148098,-0.003697799053043127,-0.004706604406237602
1773790807063588600,9.852588623046875,0.0014021543320268393,-0.0031696942169219255,-0.00609384523704648
1773790807083551700,9.8725517578125,-0.0004897553008049726,-0.003689543344080448,-0.005239502992480993
1773790807103514600,9.8925146484375,-0.00008202536264434457,-0.0035750274546444416,-0.005453887395560741
1773790807123477800,9.912477783203125,-0.00040799626731313765,-0.002633600030094385,-0.005935387220233679
1773790807143440600,9.932440673828125,-0.0009885653853416443,-0.00267807487398386,-0.005516471806913614
1773790807163403800,9.95240380859375,-0.0017888452857732773,-0.0021547635551542044,-0.007425958290696144
1773790807183366700,9.97236669921875,-0.00006258428766159341,-0.0023214775137603283,-0.006431267596781254
1773790807203329800,9.992329833984375,-0.00033182985498569906,-0.002656769473105669,-0.00555215822532773
1773790807223293000,10.01229296875,-0.0011619371362030506,-0.002425074577331543,-0.006146842148154974
1773790807243255600,10.032255615234375,-0.0019350528018549085,-0.0038839541375637054,-0.006934605073183775
1773790807263218700,10.05221875,-0.0003741741238627583,-0.0027739484794437885,-0.005760950036346912
1773790807283180800,10.072180908203125,-0.0007211840129457414,-0.0027377295773476362,-0.006021673325449228
1773790807303143700,10.092143798828126,-0.0007571366732008755,-0.0037883466575294733,-0.006238454952836037
1773790807323106800,10.11210693359375,0.0012594088912010193,-0.0037175065372139215,-0.004563326481729746
1773790807343069700,10.132069580078126,0.00008096009696600959,-0.0030450583435595036,-0.006724747829139233
1773790807363032800,10.15203271484375,-0.00013555490295402706,-0.0030304109677672386,-0.00430260319262743
1773790807382995700,10.17199560546875,-0.00004474110755836591,-0.003765976056456566,-0.005657086614519358
1773790807402958600,10.19195849609375,0.0005438174703158438,-0.002801911672577262,-0.004840561654418707
1773790807422921700,10.211921630859376,0.00011238539445912465,-0.0033563817851245403,-0.005331648513674736
1773790807442884600,10.231884521484375,0.0008399609941989183,-0.002725212834775448,-0.00589597225189209
1773790807462847700,10.25184765625,-0.001107076066546142,-0.002945189829915762,-0.005607285536825657
1773790807482810600,10.271810546875,0.0006072007236070931,-0.003233610186725855,-0.004478904418647289
1773790807502773800,10.291773681640626,-0.0010996191995218396,-0.002546514617279172,-0.006797985173761845
1773790807522737000,10.31173681640625,0.0001573928166180849,-0.0030573089607059956,-0.006053098943084478
1773790807542699800,10.33169970703125,-0.0011667308863252401,-0.0031585090328007936,-0.005561213009059429
1773790807562662700,10.35166259765625,-0.0007174555794335902,-0.0018599516479298472,-0.005730057135224342
1773790807582625500,10.37162548828125,0.0003350256592966616,-0.0034224283881485462,-0.006646717432886362
1773790807602588700,10.391588623046875,-0.001728657865896821,-0.0034053840208798647,-0.006107959896326065
1773790807622551600,10.411551513671874,-0.0005896238726563752,-0.0023518374655395746,-0.005864547099918127
1773790807642513700,10.431513671875,-0.0010543455136939883,-0.003581685246899724,-0.005804625805467367
1773790807662476800,10.451476806640626,-0.0002793656021822244,-0.0024085629265755415,-0.006502374075353146
1773790807682439700,10.471439697265625,-0.0001131843455368653,-0.002778209513053298,-0.0062523032538592815
1773790807702402800,10.49140283203125,-0.0001840244367485866,-0.0012141350889578462,-0.005178783088922501
1773790807722365700,10.51136572265625,0.0005829659639857709,-0.0032463932875543833,-0.00580728892236948
1773790807742328600,10.53132861328125,-0.0011800467036664486,-0.001701759872958064,-0.006499710958451033
1773790807762291700,10.551291748046875,-0.0014535533264279366,-0.003694869577884674,-0.005054679699242115
1773790807782254600,10.571254638671874,0.00016351809608750045,-0.003635747591033578,-0.006362558342516422
1773790807802217700,10.5912177734375,-0.00032676986302249134,-0.0029667613562196493,-0.006871488410979509
1773790807822180900,10.611180908203124,-0.0016594156622886658,-0.004261324182152748,-0.0059846555814146996
1773790807842143700,10.631143798828125,0.00019520970818120986,-0.0030304109677672386,-0.005556419026106596
1773790807862107000,10.65110693359375,-0.002445048186928034,-0.0041031320579349995,-0.007643804885447025
1773790807882069800,10.67106982421875,0.0001448759576305747,-0.0032139027025550604,-0.005636580288410187
1773790807902032600,10.69103271484375,-0.00011158645065734163,-0.003690076060593128,-0.004818989895284176
1773790807921995500,10.71099560546875,-0.0012013519881293178,-0.0036487970501184464,-0.005403287708759308
1773790807941958700,10.730958740234374,-0.0005637911963276565,-0.0022389194928109646,-0.005717806983739138
1773790807961923000,10.750923095703126,0.000508663768414408,-0.004340153653174639,-0.006572148762643337
1773790807981885000,10.770885009765625,-0.00013901700731366873,-0.0027265443932265043,-0.005649629980325699
1773790808001848000,10.79084814453125,-0.0014114753575995564,-0.0029465213883668184,-0.006318083498626947
1773790808021811000,10.81081103515625,0.00022796659322921187,-0.0028780782595276833,-0.004765726625919342
1773790808041774000,10.830774169921876,0.000014647385796706658,-0.0038629150949418545,-0.006296245381236076
1773790808061737000,10.850737060546875,-0.00042876892257481813,-0.002481799805536866,-0.004447745159268379
1773790808081700000,10.8707001953125,-0.00029348034877330065,-0.004062918480485678,-0.004561728797852993
1773790808101663200,10.890663330078125,-0.0003454120014794171,-0.0025867284275591373,-0.00615270109847188
1773790808121626000,10.910626220703126,-0.00021145498612895608,-0.0029949909076094627,-0.0071098413318395615
1773790808141589200,10.93058935546875,-0.00024980452144518495,-0.0031164311803877354,-0.005519401282072067
1773790808161552000,10.9505517578125,0.001745968358591199,-0.004280498716980219,-0.004819256253540516
1773790808181515000,10.970514892578125,-0.000404534162953496,-0.003203516360372305,-0.005517270881682634
1773790808201478000,10.990477783203126,-0.001969407545402646,-0.003224821761250496,-0.003942277282476425
1773790808221441000,11.01044091796875,-0.0010498181218281388,-0.0024346618447452784,-0.005392901133745909
1773790808241404200,11.030404052734376,-0.0007829693495295942,-0.00321869645267725,-0.006760700605809689
1773790808261367000,11.050366943359375,-0.0003640541108325124,-0.0024117587599903345,-0.00484189298003912
1773790808281329200,11.0703291015625,-0.0005640574963763356,-0.002348109148442745,-0.0048890309408307076
1773790808301292000,11.0902919921875,-0.0009392969077453017,-0.0036844832357019186,-0.0062278020195662975
1773790808321255000,11.1102548828125,-0.0006817692192271352,-0.0024580976460129023,-0.005363073665648699
1773790808341218000,11.130218017578125,0.0001597896625753492,-0.002375007141381502,-0.005290369503200054
1773790808361181000,11.150180908203126,-0.0002487392339389771,-0.0027771443128585815,-0.006543120369315147
1773790808381144000,11.17014404296875,-0.00022290658671408892,-0.005333246197551489,-0.004503138829022646
1773790808401107200,11.190107177734374,-0.0010894992155954242,-0.0033073797821998596,-0.004059456288814545
1773790808421070000,11.210070068359375,-0.0016197345685213804,-0.003725229762494564,-0.005389438942074776
1773790808441033200,11.230033203125,-0.0016200009267777205,-0.003459712490439415,-0.006105563137680292
1773790808460996000,11.24999609375,-0.0006194512825459242,-0.0033926009200513363,-0.00580782163888216
1773790808480959000,11.269958984375,-0.0004090615548193455,-0.004620051942765713,-0.0054914383217692375
1773790808500921900,11.289921875,0.001549959764815867,-0.0031201594974845648,-0.0036301547661423683
1773790808520885000,11.309885009765624,0.0011550129856914282,-0.00381417921744287,-0.0049135321751236916
1773790808540848000,11.32984814453125,-0.00018961707246489823,-0.004974252078682184,-0.0060328589752316475
1773790808560811000,11.34981103515625,-0.000859934720210731,-0.0035489285364747047,-0.005839779507368803
1773790808580773000,11.369773193359375,0.0011747203534469008,-0.003397927153855562,-0.005615008994936943
1773790808600736300,11.389736328125,0.00041278995922766626,-0.0031073763966560364,-0.006464557256549597
1773790808620699100,11.40969921875,0.0007890945998951793,-0.0024027039762586355,-0.005336708389222622
1773790808640662000,11.429662109375,-0.0004005394293926656,-0.00180908537004143,-0.005435511935502291
1773790808660625000,11.449625,-0.0007523429812863469,-0.0020298613235354424,-0.005910086911171675
1773790808680588000,11.469588134765624,-0.000245543458731845,-0.0037886130157858133,-0.005973736755549908
1773790808700551000,11.489551025390625,-0.0006325007416307926,-0.0023521038237959146,-0.005575860384851694
1773790808720514000,11.50951416015625,-0.0013944311067461967,-0.002514823107048869,-0.004948419518768787
1773790808740477200,11.529477294921875,0.00037816885742358863,-0.0035518580116331577,-0.0067828050814569
1773790808760440000,11.549440185546874,0.0002735066518653184,-0.002433330286294222,-0.005813414230942726
1773790808780403200,11.5694033203125,-0.00021651499264407903,-0.002852778183296323,-0.005917810369282961
1773790808800366000,11.589365966796874,-0.001282045734114945,-0.0027318706270307302,-0.006631270982325077
1773790808820329000,11.609328857421875,0.001677791471593082,-0.0026458504144102335,-0.005006476305425167
1773790808840292000,11.6292919921875,-0.0008575378451496363,-0.0018985675415024161,-0.006603574380278587
1773790808860254000,11.64925390625,0.000005326322025211994,-0.003254649229347706,-0.006470149848610163
1773790808880217000,11.669217041015624,-0.00040772996726445854,-0.003923102747648954,-0.0036794233601540327
1773790808900180200,11.68918017578125,-0.001023452845402062,-0.0027542412281036377,-0.006439789664000273
1773790808920143000,11.70914306640625,-0.0008578042034059763,-0.0024735440965741873,-0.005689577199518681
1773790808940106200,11.729106201171875,-0.0006956176948733628,-0.0030562435276806355,-0.006115682888776064
1773790808960067300,11.7490673828125,-0.0006676545017398894,-0.0031736891251057386,-0.005181712564080954
1773790808980030200,11.7690302734375,-0.001199221471324563,-0.002951581496745348,-0.005043760873377323
1773790808999993300,11.788993408203124,-0.0003552656853571534,-0.003796336008235812,-0.005374525208026171
1773790809019956200,11.808956298828125,-0.0009925601771101356,-0.003311907174065709,-0.006103698629885912
1773790809039919400,11.82891943359375,0.0000804274677648209,-0.0034946000669151545,-0.006465356331318617
1773790809059882500,11.848882568359375,-0.0003001382574439049,-0.002326803747564554,-0.005945773329585791
1773790809079845000,11.86884521484375,-0.00056219327962026,-0.004435494542121887,-0.005579855293035507
1773790809099808300,11.888808349609375,-0.00016005597717594355,-0.0041185785084962845,-0.005116997752338648
1773790809119770400,11.908770263671874,-0.0006332996999844909,-0.004233360756188631,-0.006418484263122082
1773790809139733200,11.928733154296875,-0.0007563377148471773,-0.0035843485966324806,-0.006163886282593012
1773790809159696400,11.9486962890625,-0.0014391721924766898,-0.0014793860027566552,-0.006201170384883881
1773790809179659300,11.9686591796875,-0.00036724991514347494,-0.0032591766212135553,-0.005420065484941006
1773790809199622400,11.988622314453124,-0.00016058860637713224,-0.0022309301421046257,-0.004993693437427282
1773790809219585300,12.008585205078125,-0.00017736652807798237,-0.0030770162120461464,-0.006837666034698486
1773790809239548200,12.028548095703124,-7.989483492565341e-7,-0.002469016704708338,-0.004564125556498766
1773790809259511300,12.04851123046875,-0.0017102820565924048,-0.0031518512405455112,-0.00592659879475832
1773790809279474200,12.06847412109375,-0.0008655273704789579,-0.0033838124945759773,-0.006369748618453741
1773790809299437300,12.088437255859375,-0.0002359560749027878,-0.003382747294381261,-0.005647765472531319
1773790809319400200,12.108400146484374,-0.0004117247008252889,-0.0031851406674832106,-0.0054512242786586285
1773790809339363300,12.12836328125,0.001243962557055056,-0.002697782125324011,-0.005377454683184624
1773790809359326500,12.148326416015625,-0.000021837920940015465,-0.002889263443648815,-0.0052472264505922794
1773790809379288300,12.168288330078125,-0.0020804614759981632,-0.002609098795801401,-0.006127667147666216
1773790809399251200,12.188251220703124,-0.00036618465674109757,-0.0028605014085769653,-0.0059713395312428474
1773790809419214300,12.20821435546875,-0.0006846986943855882,-0.0024559672456234694,-0.0044983453117311
1773790809439177200,12.22817724609375,-0.00019094864546786994,-0.0019110844004899263,-0.0054275221191346645
1773790809459140400,12.248140380859375,0.000046339002437889576,-0.004179032519459724,-0.005206213798373938
1773790809479103200,12.268103271484375,-0.0001150485550169833,-0.0035574506036937237,-0.006841128226369619
1773790809499066400,12.28806640625,0.00010865696822293103,-0.004477838985621929,-0.005502357147634029
1773790809519029500,12.308029541015625,-0.0010032127611339092,-0.0027952538803219795,-0.0073199644684791565
1773790809538992400,12.327992431640626,-0.0006503439508378506,-0.004310326185077429,-0.005518868565559387
1773790809558955300,12.347955322265625,-0.0002508697798475623,-0.0037081853952258825,-0.006590524688363075
1773790809578918100,12.367918212890626,-0.0011227887589484453,-0.002846919232979417,-0.0049074068665504456
1773790809598881300,12.38788134765625,-0.0009763148264028132,-0.0015837819082662463,-0.0062605589628219604
1773790809618843400,12.407843505859375,0.000035686356568476185,-0.0024144218768924475,-0.005329518113285303
1773790809638806300,12.42780615234375,0.0008354336023330688,-0.003145193215459585,-0.006711964961141348
1773790809658769400,12.447769287109375,-0.0004628573951777071,-0.003308178624138236,-0.00529596209526062
1773790809678732300,12.467732177734375,-0.0008551410282962024,-0.002557966159656644,-0.00546240946277976
1773790809698695200,12.487695068359375,-0.00044128578156232834,-0.0028969866689294577,-0.004191549029201269
1773790809718658300,12.507658203125,-0.0008463526028208435,-0.002770752878859639,-0.00526586826890707
1773790809738621200,12.52762109375,-0.00041518680518493056,-0.0033888723701238632,-0.004703408572822809
1773790809758584300,12.547584228515625,0.001088433898985386,-0.0035483958199620247,-0.0046970173716545105
1773790809778547200,12.567547119140626,-0.00012250541476532817,-0.0031225562561303377,-0.006728210020810366
1773790809798510300,12.58751025390625,0.000529436394572258,-0.0034048515371978283,-0.006661364808678627
1773790809818473200,12.60747314453125,-0.0014383733505383134,-0.003203782718628645,-0.0059963734820485115
1773790809838435300,12.627435302734375,-0.00044474788592197,-0.0028722193092107773,-0.005422728601843119
1773790809858398200,12.647398193359376,-0.0001840244367485866,-0.002942793071269989,-0.00612154183909297
1773790809878361300,12.667361328125,0.000070307454734575,-0.0028075044974684715,-0.006223541218787432
1773790809898324200,12.68732421875,0.00044288369826972485,-0.003690076060593128,-0.005417402368038893
1773790809918287400,12.707287353515625,-0.0005616606795229018,-0.0029848709236830473,-0.007019559852778912
1773790809938250200,12.727250244140626,-0.0012487561907619238,-0.0037444045301526785,-0.005829393398016691
1773790809958214000,12.7472138671875,-0.00216514989733696,-0.0022386531345546246,-0.0051865060813724995
1773790809978176800,12.7671767578125,-0.000815193576272577,-0.002700445242226124,-0.005622731987386942
1773790809998139600,12.7871396484375,-0.0006048039067536592,-0.0027798074297606945,-0.005822469014674425
1773790810018102500,12.8071025390625,-0.001466336427256465,-0.0033329459838569164,-0.006878678686916828
1773790810038065700,12.827065673828125,0.00003355582884978503,-0.0035958001390099525,-0.005142031237483025
1773790810058027800,12.84702783203125,-0.0006948187365196645,-0.0026530411560088396,-0.004076766781508923
1773790810077990700,12.86699072265625,-0.00018029600323643535,-0.0021758025977760553,-0.006819822825491428
1773790810097953800,12.886953857421876,0.0002620550512801856,-0.0035201662685722113,-0.004369448404759169
1773790810117917000,12.9069169921875,-0.0006412891671061516,-0.00299286050722003,-0.004066647030413151
