time,seconds_elapsed,z,y,x
1773790797275477800,0.064477783203125,-0.0005657708970829844,-0.00031009060330688953,0.00019819336012005806
1773790797295440400,0.0844404296875,-0.00017833508900366724,-0.0010321324225515127,0.0007169423624873161
1773790797315403500,0.104403564453125,0.0018245268147438765,-0.0005856121424585581,0.0015881271101534367
1773790797335366400,0.124366455078125,-0.000013239186955615878,-0.0005684152711182833,0.00015683239325881004
1773790797355329500,0.14432958984375,-0.00017971036140806973,-0.0010984642431139946,0.0008769980631768703
1773790797375292400,0.16429248046875,0.00045312015572562814,0.0015065455809235573,0.00011420110240578651
1773790797395255600,0.184255615234375,-0.0000011542870197445154,-0.0015479105059057474,-0.0006826259195804596
1773790797415218700,0.20421875,0.0010160502279177308,-0.0016220980323851109,-0.0015077493153512478
1773790797435181600,0.224181640625,-0.0012560096802189946,0.0011430347803980112,-0.00043982546776533127
1773790797455144700,0.244144775390625,0.0005035258363932371,0.0006232443265616894,-0.0008386312983930111
1773790797475107300,0.264107421875,-0.00079294916940853,0.000800238223746419,-0.0009621814824640751
1773790797495070500,0.284070556640625,-0.001028954517096281,0.0008214551489800215,0.0001649763435125351
1773790797515033600,0.30403369140625,0.00005217196303419769,-0.0004607834853231907,0.0006352746859192848
1773790797534996500,0.32399658203125,0.00010881181515287608,-0.0005160870496183634,0.0007941653020679951
1773790797554959600,0.343959716796875,-0.0002053565694950521,0.0013384695630520582,-0.00004245154559612274
1773790797574922500,0.363922607421875,-0.0012393267825245857,-0.0005824770778417587,-0.000468370970338583
1773790797594885600,0.3838857421875,-0.00012675643665716052,-0.00031352322548627853,-0.0006331158801913261
1773790797614849500,0.403849609375,0.00018902745796367526,-0.00011116010136902332,-0.0001301150768995285
1773790797634812700,0.423812744140625,-0.0006212517619132996,0.00114400964230299,-0.0022028512321412563
1773790797654775600,0.443775634765625,0.00030399701790884137,0.0009081815369427204,-0.0002963244915008545
1773790797674738700,0.46373876953125,0.0002251721452921629,-0.0007286430336534977,-0.00044132722541689873
1773790797694701300,0.483701416015625,-0.00013009339454583824,0.0007963967509567738,0.00044987117871642113
1773790797714664400,0.50366455078125,0.000024838955141603947,-0.0010506855323910713,-0.0007818439044058323
1773790797734627600,0.523627685546875,-0.0007021425990387797,0.00002126488834619522,0.0008608819916844368
1773790797754590500,0.543590576171875,0.0009792044293135405,0.0006399087142199278,0.0002568955533206463
1773790797774553600,0.5635537109375,-0.0013435825239866972,-0.0005662604235112667,-0.0003772825002670288
1773790797794516500,0.5835166015625,-0.0007584267877973616,0.00009079370647668839,-0.00021270336583256721
1773790797814479600,0.603479736328125,-0.0012910375371575356,-0.000010271091014146805,0.0022808965295553207
1773790797834442500,0.6234423828125,0.0003754488134291023,-0.00020543835125863552,0.000022023450583219528
1773790797854405600,0.643405517578125,0.0011865408159792423,-0.0007543992251157761,0.0009454400278627872
1773790797874368800,0.66336865234375,0.000973524758592248,0.00013337330892682076,-0.00022583967074751854
1773790797894331400,0.683331298828125,-0.0006837024702690542,-0.0006936234422028065,0.0010704812593758106
1773790797914294500,0.70329443359375,-0.00040119036566466093,-0.0005107475444674492,-0.00013997359201312065
1773790797934257400,0.72325732421875,0.00047443259973078966,-0.0011441977694630623,0.000029793940484523773
1773790797954221300,0.74322119140625,0.0005319385090842843,-0.000763460760936141,-0.000631298404186964
1773790797974184200,0.76318408203125,0.0009288634173572063,-0.001027455786243081,0.0011536171659827232
1773790797994147000,0.78314697265625,-0.0004749150248244405,0.0002943631261587143,0.00213571242056787
1773790798014110200,0.803110107421875,-0.0004568608128465712,-0.00026391027495265007,-0.0010158233344554901
1773790798034073000,0.823072998046875,0.0005530309863388538,-0.0007910481654107571,-0.0006152074784040451
1773790798054036200,0.8430361328125,-0.00021579713211394846,0.00012338906526565552,-0.0014996626414358616
1773790798073999000,0.8629990234375,0.0001983474794542417,0.00012001185677945614,0.00040365755558013916
1773790798093962200,0.882962158203125,-0.0002208749356213957,-0.00032032025046646595,0.0000032265670597553253
1773790798113925000,0.902925048828125,-0.0004150801105424762,-0.00009461562149226665,-0.0002106926403939724
1773790798133888300,0.92288818359375,0.0006457628915086389,-0.00010437262244522572,0.0002448810264468193
1773790798153851400,0.942851318359375,0.0013561967061832547,0.0011112539796158671,-0.0007467838004231453
1773790798173814000,0.96281396484375,0.0012319684028625488,0.0010278172558173537,0.0006620222702622414
1773790798193777200,0.982777099609375,-0.0015867141773924232,0.00021110917441546917,-0.00005920557305216789
1773790798213740000,1.002739990234375,-0.00043924368219450116,0.0005831955932080746,0.00009451480582356453
1773790798233703200,1.022703125,0.00041769337258301675,-0.00007408997043967247,0.001715247519314289
1773790798253666000,1.042666015625,0.00018720468506217003,-0.0014164773747324944,-0.0007096128538250923
1773790798273629200,1.062629150390625,-0.00029411865398287773,-0.00018429546616971493,-0.00037006475031375885
1773790798293592300,1.08259228515625,-0.00045041771954856813,0.0007789970841258764,-0.0000960957258939743
1773790798313555200,1.10255517578125,0.0013570229057222605,-0.0010365035850554705,0.00015588197857141495
1773790798333518300,1.122518310546875,0.0007022889330983162,-0.0006377205718308687,0.00028739823028445244
1773790798353482200,1.142482177734375,0.000290076743112877,0.00021251128055155277,0.0004240679554641247
1773790798373445400,1.1624453125,-0.00039027578895911574,-0.0023801226634532213,0.000237317755818367
1773790798393408000,1.182407958984375,0.0007432762067764997,0.0008100061677396297,-0.00008028466254472733
1773790798413371100,1.20237109375,0.00016704377776477486,-0.0003405255265533924,-0.0002968553453683853
1773790798433334000,1.222333984375,0.0006905601476319134,0.00008529098704457283,0.00017156125977635384
1773790798453297200,1.242297119140625,-0.000013689568731933832,-0.0012020955327898264,-0.0007988344877958298
1773790798473260300,1.26226025390625,0.0003411152574699372,-0.0002624262124300003,0.0001378823071718216
1773790798493223200,1.28222314453125,-0.00008914739009924233,-0.00043020048178732395,0.000533814076334238
1773790798513186300,1.302186279296875,-0.0014773895964026451,-0.00143424142152071,-0.0000681052915751934
1773790798533149200,1.322149169921875,-0.000313564611133188,0.0002830228768289089,-0.0006903172470629215
1773790798553112300,1.3421123046875,-0.0006776695954613388,0.00026116124354302883,0.0007091364823281765
1773790798573075000,1.362074951171875,0.0006577952881343663,0.000346871092915535,-0.0008614622056484222
1773790798593038000,1.3820380859375,0.00038147426676005125,-0.0004547308199107647,0.001126269344240427
1773790798613001200,1.402001220703125,-0.00029490934684872627,-0.00012844335287809372,-0.0005011712200939655
1773790798632964000,1.421964111328125,0.00005907006561756134,0.000018337508663535118,-0.0009717573411762714
1773790798652927200,1.44192724609375,-0.00021901940635871142,0.0005169608630239964,0.0009979368187487125
1773790798672890000,1.46189013671875,-0.0003612720756791532,-0.000060273800045251846,0.00041004130616784096
1773790798692853200,1.481853271484375,0.00038300594314932823,-0.0003642688971012831,-0.0013273381628096104
1773790798712816000,1.501816162109375,0.0011704046046361327,0.00012273387983441353,-0.00042047537863254547
1773790798732779300,1.521779296875,-0.0007066187681630254,0.00013710488565266132,-0.0005419007502496243
1773790798752743200,1.5417431640625,0.0000666450650896877,0.000053987838327884674,-0.00044531049206852913
1773790798772705000,1.561705078125,-0.00013010628754273057,-0.0007477062754333019,-0.0003679925575852394
1773790798792669200,1.581669189453125,-0.0011325794039294124,-0.00014707352966070175,0.000691557303071022
1773790798812632000,1.601632080078125,0.0007779683801345527,-0.0010512731969356537,0.0008628149516880512
1773790798832595200,1.62159521484375,0.0005815865588374436,0.00030397321097552776,0.00004119519144296646
1773790798852558000,1.64155810546875,0.0006488062208518386,-0.0000515165738761425,-0.0003459639847278595
1773790798872521200,1.661521240234375,-0.0008272771956399083,-0.00021857605315744877,-0.0010282066650688648
1773790798892484000,1.681484130859375,-0.0009698757203295827,-0.0009300562087446451,0.0014545125886797905
1773790798912447200,1.701447265625,-0.0016856807051226497,0.0005782295484095812,-0.00023902487009763718
1773790798932410400,1.721410400390625,-0.00032412700238637626,0.00019654654897749424,0.00133541040122509
1773790798952373500,1.74137353515625,0.0003338000096846372,0.00023958459496498108,0.00008734408766031265
1773790798972336600,1.761336669921875,0.000309075228869915,0.0010219963733106852,-0.0010809646919369698
1773790798992299500,1.781299560546875,0.001154139288701117,-0.00004821480251848698,0.0009334813803434372
1773790799012262700,1.8012626953125,0.0003243358514737338,-0.0010066167451441288,-0.000961091835051775
1773790799032225300,1.821225341796875,-0.0006195716559886932,0.0003865063190460205,0.0006439960561692715
1773790799052188400,1.8411884765625,-0.00010046112583950162,-0.000292742857709527,0.001332173589617014
1773790799072151300,1.8611513671875,0.00041599030373618007,-0.000021008076146245003,-0.000191426370292902
1773790799092114400,1.881114501953125,0.00020938480156473815,0.0009342182893306017,0.00004116259515285492
1773790799112077600,1.90107763671875,-0.0007178653031587601,0.0008306221570819616,-0.0007066898979246616
1773790799132040400,1.92104052734375,-0.0003460607840679586,-0.0017740342300385237,-0.001358200330287218
1773790799152003600,1.941003662109375,-0.0015073620015755296,0.0004310093354433775,-0.0005824323743581772
1773790799171966500,1.960966552734375,-0.0007226320449262857,-0.0012268824502825737,-0.0008244514465332031
1773790799191929600,1.9809296875,0.0000654947361908853,-0.0003036691341549158,-0.000052167102694511414
1773790799211892500,2.000892578125,-0.00026315689319744706,-0.000232314458116889,-0.00018390920013189316
1773790799231855400,2.02085546875,0.000227720636758022,0.0003841668367385864,-0.00003806641325354576
1773790799251818500,2.040818603515625,0.0013565695844590664,0.000014713499695062637,-0.0002513560466468334
1773790799271782400,2.060782470703125,0.0004683290026150644,-0.00004035164602100849,-0.0002464498393237591
1773790799291745500,2.08074560546875,0.00002173063694499433,0.00013186130672693253,0.0003854394890367985
1773790799311708400,2.10070849609375,-0.0012052985839545727,0.00039625586941838264,-0.0006777038797736168
1773790799331671600,2.120671630859375,0.0005925854202359915,-0.0006796226371079683,0.00043238699436187744
1773790799351634400,2.140634521484375,-0.0001368303201161325,-0.0005075877998024225,0.0000989534892141819
1773790799371597600,2.16059765625,-0.0006934439879842103,-0.0006556278094649315,0.0009133564308285713
1773790799391560400,2.180560546875,-0.000828082556836307,0.0003899838775396347,0.0007446859963238239
1773790799411523600,2.200523681640625,-0.0008877585059963167,0.00028577446937561035,0.00019330112263560295
1773790799431486500,2.220486572265625,0.0005584208411164582,0.00011872919276356697,-0.00024951202794909477
1773790799451449300,2.240449462890625,-0.0010808949591591954,-0.0007039813790470362,-0.0001776781864464283
1773790799471412500,2.26041259765625,-0.0010278380941599607,-0.001322343247011304,-0.001390102319419384
1773790799491375400,2.280375244140625,-0.0005901339463889599,-0.00024908967316150665,-0.000831537414342165
1773790799511338500,2.30033837890625,-0.0009725557174533606,0.00041426229290664196,0.00038327835500240326
1773790799531301400,2.32030126953125,0.0001564929698361084,0.00025588064454495907,-0.0005001462996006012
1773790799551264500,2.340264404296875,-0.0007404647767543793,0.0013622577534988523,0.0002592140808701515
1773790799571227600,2.3602275390625,0.0002545879688113928,-0.00015902472659945488,0.000045415014028549194
1773790799591190500,2.3801904296875,0.001153868157416582,-0.000013979151844978333,-0.00015280209481716156
1773790799611153400,2.4001533203125,0.0006496906280517578,-0.00033855787478387356,-0.0008652550168335438
1773790799631116300,2.4201162109375,-0.00004596196231432259,0.000839616172015667,-0.00023032398894429207
1773790799651079400,2.440079345703125,-0.0002491838240530342,-0.00014445185661315918,0.0007960367947816849
1773790799671042600,2.46004248046875,0.0019080648198723793,-0.0009464190807193518,0.000005032867193222046
1773790799691005400,2.48000537109375,0.000006339367246255279,-0.0007609690073877573,-0.000763285905122757
1773790799710968600,2.499968505859375,-0.00010123121319338679,-0.00014103297144174576,-0.00014162622392177582
1773790799730931500,2.519931396484375,0.00041995508945547044,0.0005262417253106833,-0.00026857899501919746
1773790799750894600,2.53989453125,-0.00010461328201927245,-0.000018117716535925865,0.000821426510810852
1773790799770857500,2.559857421875,0.00004568306030705571,0.0007156394422054291,0.0016748015768826008
1773790799790820400,2.5798203125,-0.00031679862877354026,-0.0007371939718723297,-0.00003224331885576248
1773790799810783500,2.599783447265625,0.00002852032775990665,-0.0017993664368987083,0.0011440636590123177
1773790799830746400,2.619746337890625,0.000012826814781874418,0.000035211676731705666,-0.0013821441680192947
1773790799850709500,2.63970947265625,0.001055123284459114,0.0003838485572487116,-0.00226082606241107
1773790799870672400,2.65967236328125,-0.0010202063713222742,0.0009038217831403017,-0.00036973413079977036
1773790799890636500,2.679636474609375,-0.0006035009864717722,0.0001269192434847355,-0.00034113600850105286
1773790799910599400,2.699599365234375,-0.00031322124414145947,-0.0001753640826791525,0.0012401887215673923
1773790799930562600,2.7195625,-0.0007806942448951304,0.00043930578976869583,-0.0006778212264180183
1773790799950525700,2.739525634765625,0.000409092492191121,0.000880005769431591,0.0006679892539978027
1773790799970488800,2.75948876953125,0.0004446976527106017,-0.0017368628177791834,-0.0006092889234423637
1773790799990451700,2.77945166015625,-0.0007991044549271464,-0.0014208192005753517,-0.0002744048833847046
1773790800010414800,2.799414794921875,-0.0013400416355580091,-0.00005130749195814133,0.0004704962484538555
1773790800030378000,2.8193779296875,0.0002271669654874131,-0.00034034764394164085,0.0009699957445263863
1773790800050340900,2.8393408203125,-0.00025514475419186056,0.00023575895465910435,0.00038205599412322044
1773790800070304000,2.859303955078125,-0.0016191608738154173,-0.000753114465624094,-0.00003718025982379913
1773790800090266600,2.8792666015625,-0.0002468002785462886,0.0005161277949810028,-0.00062602199614048
1773790800110229800,2.899229736328125,-0.0008932955679483712,0.0010422284249216318,-0.000738329254090786
1773790800130192600,2.919192626953125,-0.00012344156857579947,-0.00031130737625062466,0.000015981029719114304
1773790800150155800,2.93915576171875,0.000020746549125760794,-0.00010261987335979939,0.0003645992837846279
1773790800170119000,2.959118896484375,0.0001190407492686063,-0.000361511018127203,0.0012677228078246117
1773790800190081800,2.979081787109375,0.0001261067809537053,0.001061161165125668,-0.0012682564556598663
1773790800210045000,2.999044921875,0.00014244235353544354,0.0003317787777632475,-0.0009665689431130886
1773790800230007800,3.0190078125,0.00034396222326904535,-0.0008756720926612616,-0.0005672331899404526
1773790800249971000,3.038970947265625,0.0006832429207861423,0.00008721044287085533,-0.00010906346142292023
1773790800269933800,3.058933837890625,0.00009031168883666396,0.0004262174479663372,0.0008086641319096088
1773790800289896700,3.078896728515625,-0.0006434984970837831,0.0005585332401096821,-0.0011406023986637592
1773790800309859800,3.09885986328125,-0.00014293083222582936,0.00020501110702753067,-0.0016014189459383488
1773790800329822700,3.11882275390625,-0.00032374641159549356,-0.0013599377125501633,-0.001199683640152216
1773790800349785900,3.138785888671875,0.000645575812086463,0.0009054564870893955,-0.00010598311200737953
1773790800369748700,3.158748779296875,-0.00007735312101431191,-0.0001184812281280756,0.0009399396367371082
1773790800389712000,3.1787119140625,-0.0008058099774643779,0.0009241029620170593,-0.0009158654138445854
1773790800409675000,3.198675048828125,-0.0007242023129947484,-0.0009874063543975353,-0.00020338408648967743
1773790800429638000,3.218637939453125,0.0000667226267978549,-0.000057278433814644814,-0.00015647290274500847
1773790800449600800,3.238600830078125,0.0003790449700318277,-0.0003806890454143286,-0.00006414996460080147
1773790800469563600,3.258563720703125,0.0010542453965172172,0.00012830807827413082,-0.0005670557729899883
1773790800489526800,3.27852685546875,0.000517262436915189,-0.00019064778462052345,0.0008920892141759396
1773790800509489700,3.29848974609375,0.0008525921730324626,0.0003169160336256027,0.000824563205242157
1773790800529452800,3.318452880859375,0.0011717953020706773,0.0003048062790185213,-0.0002868352457880974
1773790800549416000,3.338416015625,-0.00005995022365823388,0.0004339034203439951,-0.0003358488902449608
1773790800569378800,3.35837890625,-0.0003443030291236937,0.00054925587028265,0.0013535520993173122
1773790800589342000,3.378342041015625,-0.0004618263046722859,-0.0005031523760408163,-0.0012074951082468033
1773790800609305900,3.398305908203125,0.0006834944942966104,-0.0004839426837861538,0.00006968295201659203
1773790800629269000,3.41826904296875,0.000750647159293294,0.00012016692198812962,0.0008736229501664639
1773790800649232000,3.43823193359375,0.0007661933777853847,0.0010295640677213669,0.0008636591956019402
1773790800669194800,3.45819482421875,0.0010822061449289322,-0.0003698496147990227,0.000145656056702137
1773790800689157600,3.47815771484375,-0.0008829894941300154,-0.0004233065992593765,-0.0009765061549842358
1773790800709120800,3.498120849609375,0.0006125057116150856,0.0014796642353758216,-0.00045765284448862076
1773790800729084000,3.518083984375,0.0009879256831482053,-0.0006343601271510124,-0.0005871155299246311
1773790800749046800,3.538046875,0.0007671472849324346,0.0013460568152368069,-0.0006545381620526314
1773790800769010000,3.558010009765625,-0.0005525953602045774,-0.000642064493149519,-0.0002368609420955181
1773790800788972800,3.577972900390625,-0.0006254322361201048,-0.0009152970742434263,-0.0003100074827671051
1773790800808936000,3.59793603515625,0.00028027352527715266,-0.00038364646025002003,-0.0010305601172149181
1773790800828898800,3.61789892578125,-0.00003880998701788485,0.0002491758204996586,-0.0003300914540886879
1773790800848861700,3.63786181640625,-0.0008235824061557651,0.00030162883922457695,-0.00003665592521429062
1773790800868824800,3.657824951171875,0.00041136154322884977,-0.00037872581742703915,0.0002907835878431797
1773790800888787700,3.67778759765625,-0.0006266958662308753,-0.000163752818480134,0.0001801098696887493
1773790800908750800,3.697750732421875,-0.0008404093678109348,-0.0005569516215473413,0.0000741756521165371
1773790800928713700,3.717713623046875,-0.0002458408416714519,-0.0004499319475144148,-0.0013764104805886745
1773790800948676900,3.7376767578125,-0.00014539988478645682,0.0004420117475092411,0.0006317729130387306
1773790800968639700,3.7576396484375,0.000014631485100835562,-0.0008218893781304359,0.0003645927645266056
1773790800988603000,3.777602783203125,-0.00013555240002460778,-0.0003828324843198061,0.0004738764837384224
1773790801008566000,3.79756591796875,-0.000713774876203388,0.00017555616796016693,-0.0010251575149595737
1773790801028528600,3.817528564453125,0.0008091217023320496,-0.00008544977754354477,0.00008068280294537544
1773790801048491800,3.83749169921875,0.0004640511469915509,0.0010125082917511463,-0.001236521638929844
1773790801068454700,3.85745458984375,-0.0006797877140343189,0.00031453371047973633,0.000127534382045269
1773790801088417800,3.877417724609375,0.0006021920125931501,-0.0012302207760512829,0.0006896359845995903
1773790801108380700,3.897380615234375,-0.000535512575879693,-0.0023597548715770245,0.0007534483447670937
1773790801128343800,3.91734375,-0.0002808990830089897,-0.00016452977433800697,-0.00047959014773368835
1773790801148307000,3.937306884765625,0.0003680352820083499,0.0008629104122519493,-0.0005623181350529194
1773790801168269800,3.957269775390625,-0.0008429578738287091,-0.0000857585109770298,0.00027185725048184395
1773790801188233000,3.97723291015625,-0.00029802086646668613,-0.0004626575391739607,-0.0013527637347579002
1773790801208195600,3.997195556640625,0.0019139561336487532,-0.00006474624387919903,0.0006120461039245129
1773790801228158700,4.01715869140625,-0.0005734649021178484,0.00020367000252008438,0.00019666505977511406
1773790801248121900,4.037121826171875,0.0015417779795825481,-0.00031968788243830204,0.0003063860349357128
1773790801268084700,4.057084716796875,-0.0005640616873279214,-0.00026003317907452583,0.0027013937942683697
1773790801288047900,4.0770478515625,0.00037796160904690623,-0.0009896950796246529,0.00048332521691918373
1773790801308010800,4.0970107421875,-0.0008907853625714779,0.00004196586087346077,0.00015105120837688446
1773790801327974000,4.116973876953125,0.0007981265662238002,-0.0012056217528879642,0.0010372381657361984
1773790801347936800,4.136936767578125,0.0005443109548650682,0.0014729708200320601,-0.0005312468856573105
1773790801367900000,4.15689990234375,-0.0004842211783397943,0.0005348818376660347,0.0007780804298818111
1773790801387862800,4.17686279296875,0.00007848013774491847,0.0004937683697789907,0.0012503950856626034
1773790801407825700,4.19682568359375,-0.0014699185267090797,-0.000256676459684968,-0.0000713597983121872
1773790801427788800,4.216788818359375,0.0007217130623757839,-0.0005588734056800604,0.0017189523205161095
1773790801447751700,4.236751708984375,-0.00021296946215443313,0.00007177959196269512,0.00049628596752882
1773790801467714800,4.25671484375,0.0006390525377355516,0.0008908493909984827,-0.000031468458473682404
1773790801487677700,4.276677734375,-0.0007076052716001868,0.00037002144381403923,0.0005308547988533974
1773790801507640800,4.296640869140625,0.0002644298947416246,-0.0013143529649823904,0.0003108265809714794
1773790801527604000,4.31660400390625,-0.0009647913975641131,-0.001715619582682848,0.001189972274005413
1773790801547567900,4.33656787109375,0.00028340896824374795,-0.00028289202600717545,-0.000979029107838869
1773790801567530800,4.35653076171875,0.00013433644198812544,-0.00046017859131097794,-0.000972578302025795
1773790801587494000,4.376493896484375,0.0002759478520601988,-0.000030011171475052834,0.0001791585236787796
1773790801607456800,4.396456787109375,-0.0012007676996290684,-0.0012398501858115196,-0.0006001107394695282
1773790801627419600,4.416419677734375,0.0010208357125520706,0.000520132714882493,0.0005625756457448006
1773790801647382800,4.4363828125,-0.000375903386157006,-0.0005832479801028967,0.0005006878636777401
1773790801667345700,4.456345703125,-0.0007921875221654773,-0.00023147021420300007,0.00128641864284873
1773790801687308800,4.476308837890625,-0.00021035631652921438,0.0014839625218883157,-0.0012499010190367699
1773790801707272000,4.49627197265625,-0.00046244560508057475,0.0006898201536387205,-0.0001711323857307434
1773790801727234800,4.51623486328125,0.001332261599600315,0.0002194228582084179,0.0008232761174440384
1773790801747198000,4.536197998046875,-0.0002789931313600391,-0.0006256564520299435,0.00023221084848046303
1773790801767160800,4.556160888671875,0.0017364050727337599,-0.0014154680538922548,0.0010126689448952675
1773790801787123700,4.576123779296875,-0.000026740948669612408,0.00031998264603316784,0.0009758542291820049
1773790801807086600,4.596086669921875,0.001343436655588448,0.00026579154655337334,0.0004892647266387939
1773790801827049700,4.6160498046875,0.00025602366076782346,0.0005212256219238043,0.001326647587120533
1773790801847012900,4.636012939453125,0.00035779961035586894,0.00031392741948366165,-0.000054073985666036606
1773790801866975700,4.655975830078125,0.0005156131228432059,0.0004060931969434023,-0.00009117787703871727
1773790801886939000,4.67593896484375,0.0003498423029668629,0.0011378774652257562,0.0012264973483979702
1773790801906901800,4.69590185546875,-0.00048599165165796876,-0.00032016937620937824,-0.00016715750098228455
1773790801926865000,4.715864990234375,0.0013805468333885074,-0.00016382220201194286,0.00017073238268494606
1773790801946827500,4.73582763671875,0.0004528952995315194,-0.0014891412574797869,0.0007116231136023998
1773790801966790400,4.755790283203125,0.00006938548176549375,-0.000024559209123253822,-0.0004889410920441151
1773790801986753500,4.77575341796875,-0.0015679665375500917,0.0000429963693022728,0.0008228546939790249
1773790802006716400,4.79571630859375,-0.0006720167584717274,-0.0006579014007002115,-0.0009272927418351173
1773790802026679600,4.815679443359375,0.0016527482075616717,-0.0004483535885810852,-0.0004710126668214798
1773790802046642400,4.835642333984375,0.00017368621774949133,-0.0005055966321378946,0.0004130112938582897
1773790802066605300,4.855605224609375,0.001215615076944232,0.00023390422575175762,-0.00006144819781184196
1773790802086568400,4.875568359375,-0.00015094748232513666,-0.00022406619973480701,-0.000563611276447773
1773790802106531300,4.89553125,0.0010616288054734468,0.00018787290900945663,0.0004429449327290058
1773790802126494500,4.915494384765625,0.0006665492546744645,0.00019977055490016937,-0.0003182757645845413
1773790802146457300,4.935457275390625,0.001062844879925251,-0.0008995840325951576,0.0002017752267420292
1773790802166420500,4.95542041015625,-0.0006641354411840439,0.0001911462750285864,-0.000025802291929721832
1773790802186383400,4.97538330078125,-0.000632644456345588,-0.0006884783506393433,-0.00010551977902650833
1773790802206346500,4.995346435546875,-0.000654518255032599,-0.0008675232529640198,0.0000032493844628334045
1773790802226309600,5.0153095703125,0.0005158038111403584,0.0020224638283252716,0.0006972616538405418
1773790802246272300,5.035272216796875,-0.000695748720318079,-0.0004492620937526226,-0.0006411555223166943
1773790802266235400,5.0552353515625,-0.0008222354808822274,-0.0006962912157177925,0.0008287131786346436
1773790802286198300,5.0751982421875,-0.0003781403065659106,-0.00039615994319319725,0.00048270076513290405
1773790802306161400,5.095161376953125,0.0004616480728145689,0.0000487728975713253,-0.00033522071316838264
1773790802326124500,5.11512451171875,0.000489108613692224,-0.0012953262776136398,-0.0012627937830984592
1773790802346087400,5.13508740234375,0.0011057695373892784,-0.00008615804836153984,-0.0009940150193870068
1773790802366050600,5.155050537109375,0.0005706439260393381,-0.00013604690320789814,0.0008136988617479801
1773790802386013400,5.175013427734375,-0.0003458503051660955,0.00004853564314544201,0.000143448356539011
1773790802405976600,5.1949765625,0.0008911530021578074,0.00009694905020296574,-0.00007609371095895767
1773790802425939200,5.214939208984375,0.0013166607823222876,-0.0015157267916947603,0.00016724690794944763
1773790802445902300,5.23490234375,0.000654350034892559,0.0009912424720823765,-0.0018877852708101273
1773790802465865500,5.254865478515625,-0.00031640828819945455,-0.0002928837202489376,-0.0006013121455907822
1773790802485828400,5.274828369140625,0.0007897892501205206,-0.000003369757905602455,0.0010206704027950764
1773790802505791500,5.29479150390625,-0.0006104950443841517,0.0001719717402011156,-0.0006677801720798016
1773790802525754400,5.31475439453125,-0.0011875252239406109,-0.00040387269109487534,0.0010020220652222633
1773790802545717500,5.334717529296875,-0.00010640564141795039,0.0002637915313243866,0.0009625419043004513
1773790802565680400,5.354680419921875,0.00009603876969777048,0.00024889083579182625,0.0001652045175433159
1773790802585643500,5.3746435546875,-0.0003687934949994087,-0.0006377384997904301,0.00007860781624913216
1773790802605606400,5.3946064453125,0.001307075610384345,-0.0006818431429564953,-0.0007241256535053253
1773790802625569300,5.4145693359375,0.0012601208873093128,0.0009504396002739668,0.001147272065281868
1773790802645532400,5.434532470703125,0.00047138836816884577,-0.00010980735532939434,-0.00015411525964736938
1773790802665495300,5.454495361328125,0.0006938104052096605,-0.0007929049897938967,-0.00015114527195692062
1773790802685458400,5.47445849609375,-0.0002483357093296945,-0.00039137224666774273,0.00010440219193696976
1773790802705421600,5.494421630859375,0.00006695612682960927,-0.0010525018442422152,0.0007283720187842846
1773790802725384400,5.514384521484375,0.0008992136572487652,0.00026218686252832413,-0.00024367542937397957
1773790802745347600,5.53434765625,-0.0009379333932884037,-0.0005040979012846947,-0.0005348408594727516
1773790802765310500,5.554310546875,-0.0004210036713629961,0.0007881468627601862,0.000741258729249239
1773790802785273300,5.5742734375,0.0011837228666990995,-0.0006037685088813305,-0.00016470672562718391
1773790802805236200,5.594236328125,-0.0016942331567406654,-0.0009447408374398947,-0.00048140762373805046
1773790802825199400,5.614199462890625,0.001785598462447524,0.0009948578663170338,-0.00019870465621352196
1773790802845162500,5.63416259765625,0.00031355395913124084,0.0003705685958266258,0.00008355965837836266
1773790802865125400,5.65412548828125,-0.0008347405237145722,-0.00026939413510262966,-0.0005699116736650467
1773790802885088500,5.674088623046875,0.0003681615344248712,-0.000937450909987092,-0.0019289045594632626
1773790802905051400,5.694051513671875,-0.0009512989781796932,0.000030092662200331688,-0.0004814593121409416
1773790802925014500,5.7140146484375,0.0014717498561367393,0.0002936171367764473,0.0001584608107805252
1773790802944978000,5.73397802734375,-0.00020304563804529607,0.0005985409952700138,0.0005293125286698341
1773790802964941000,5.753941162109375,0.0005131164216436446,0.00007504457607865334,0.00030330056324601173
1773790802984904000,5.773904052734375,0.0007878786418586969,0.00045792106539011,-0.0008147247135639191
1773790803004867000,5.7938671875,0.00043454725528135896,-0.00008960277773439884,-0.0009233662858605385
1773790803024830000,5.813829833984375,0.00036444186116568744,0.0000018903519958257675,-0.0003167218528687954
1773790803044792800,5.833792724609375,0.000881459447555244,-0.0006016946863383055,-0.0007276693359017372
1773790803064756000,5.853755859375,0.001055839005857706,-0.0005890480242669582,-0.0003890814259648323
1773790803084718800,5.87371875,-0.0007963219541125,0.0022018770687282085,-0.0006851400248706341
1773790803104682000,5.893681884765625,-0.00003363049472682178,-0.0011045862920582294,-0.0007190331816673279
1773790803124645000,5.91364501953125,-0.0019550828728824854,-0.000052318209782242775,0.0003520464524626732
1773790803144608000,5.93360791015625,0.00016486039385199547,-0.0008503515273332596,0.00001575518399477005
1773790803164571100,5.953571044921875,0.0005315109738148749,-0.00008338550105690956,0.0005531422793865204
1773790803184534000,5.973533935546875,-0.00001809487002901733,0.0004634554497897625,-0.000851999968290329
1773790803204497000,5.993496826171875,-0.000029403570806607604,-0.0004035651218146086,-0.0003051143139600754
1773790803224459800,6.013459716796875,0.0010889617260545492,0.0010293908417224884,0.00006386637687683105
1773790803244423000,6.0334228515625,0.00013847692753188312,-0.0001993337646126747,0.00022426946088671684
1773790803264386000,6.053385986328125,-0.0006020940490998328,-0.0006670714356005192,0.000058059580624103546
1773790803284349000,6.073348876953125,-0.000014816265320405364,-0.0008720774203538895,0.0003065895289182663
1773790803304312000,6.09331201171875,0.0004784199991263449,-0.001369938487187028,0.00008394336327910423
1773790803324275000,6.11327490234375,0.00027037030667997897,-0.0005165075417608023,-0.0007363250479102135
1773790803344238000,6.133238037109375,0.00021088929497636855,-0.000006838236004114151,-0.00016697729006409645
1773790803364201000,6.153200927734375,0.00047984003322198987,0.00039804214611649513,0.0009152176789939404
1773790803384163800,6.173163818359375,-0.0006384857697412372,-0.0007141970563679934,-0.000023495405912399292
1773790803404127000,6.193126953125,0.000451915489975363,0.0006183732766658068,-0.0005822191014885902
1773790803424089900,6.21308984375,0.0008129071211442351,-0.0003480934537947178,0.0002794889733195305
1773790803444053000,6.233052978515625,0.00023693774710409343,-0.0016892270650714636,0.0005580149590969086
1773790803464016000,6.253015869140625,-0.0008670068345963955,0.001238366705365479,0.000535640399903059
1773790803483979000,6.27297900390625,0.0004936290206387639,-0.00009274971671402454,0.00021478068083524704
1773790803503942000,6.29294189453125,-0.001077188877388835,0.0001420613843947649,-0.0011629406362771988
1773790803523905000,6.312905029296875,-0.000005883426638320088,0.000682763522490859,0.000693692360073328
1773790803543868200,6.3328681640625,-0.00047337988507933915,0.0010844944044947624,0.00036567309871315956
1773790803563830800,6.352830810546875,-0.0005861763493157923,0.00030984310433268547,0.00027491385117173195
1773790803583794000,6.3727939453125,0.00011062872363254428,0.0010015065781772137,-0.0004314952529966831
1773790803603756800,6.3927568359375,-0.00018799296231009066,0.0013290552888065577,-0.0012047183699905872
1773790803623720000,6.412719970703125,0.0006117522134445608,-0.0006621326319873333,-0.00028043752536177635
1773790803643683000,6.43268310546875,-0.0007135299383662641,-0.001237757969647646,-0.00008268095552921295
1773790803663646000,6.45264599609375,-0.0001448470284231007,0.00008407514542341232,0.00028399936854839325
1773790803683609000,6.472609130859375,-0.000976245035417378,0.00034364103339612484,-0.0008297767490148544
1773790803703572000,6.492572021484375,0.00046032341197133064,-0.001062450697645545,0.0006755739450454712
1773790803723535000,6.51253515625,-0.000048994377721101046,-0.00003825710155069828,0.001099160872399807
1773790803743497700,6.532497802734375,-0.0007218540413305163,0.00009682634845376015,0.000586311798542738
1773790803763460900,6.5524609375,0.00012688722927123308,0.0008781398646533489,-0.00013739429414272308
1773790803783424000,6.572424072265625,-0.00003770875628106296,0.00010353652760386467,-0.0002119564451277256
1773790803803387000,6.592386962890625,0.00039321312215179205,-0.0015364736318588257,-0.000032389070838689804
1773790803823350000,6.61235009765625,-0.001810539630241692,-0.0002559924032539129,-0.0009867539629340172
1773790803843313000,6.63231298828125,0.0008107466856017709,-0.0014134612865746021,-0.0007289634086191654
1773790803863276000,6.652276123046875,-0.0006420011632144451,0.00019764923490583897,0.0007386007346212864
1773790803883239000,6.672239013671875,-0.0002988586202263832,-0.00035073421895504,-0.00008708052337169647
1773790803903202000,6.6922021484375,0.00043337795068509877,-0.0007483193185180426,0.000057534314692020416
1773790803923165200,6.712165283203125,0.0005912893684580922,-0.000554908998310566,0.00007950840517878532
1773790803943127800,6.7321279296875,-0.0012158389436081052,-0.0010381764732301235,0.0006151893176138401
1773790803963090700,6.752090576171875,0.0001912532898131758,0.00036704610101878643,0.00015120720490813255
1773790803983053600,6.772053466796875,0.00039731385186314583,-0.0004672540817409754,0.0004257005639374256
1773790804003016400,6.792016357421875,0.00025308330077677965,0.0006917605642229319,-0.0002698935568332672
1773790804022979600,6.8119794921875,-0.00087151670595631,0.00014999904669821262,0.00018472876399755478
1773790804042942500,6.8319423828125,0.00025094428565353155,-0.0001816079020500183,-0.00021962635219097137
1773790804062905600,6.851905517578125,0.00036470615305006504,0.00020745047368109226,-0.0010217009112238884
1773790804082868500,6.871868408203125,-0.0007651172345504165,-0.00003511668182909489,-0.0003572152927517891
1773790804102831600,6.89183154296875,0.0009123776108026505,0.00003632670268416405,0.0003610723651945591
1773790804122794800,6.911794677734375,0.00133765977807343,0.0005449270829558372,-0.001267673447728157
1773790804142757600,6.931757568359375,0.00032920920057222247,0.0003182596992701292,-0.00011841347441077232
1773790804162720500,6.951720458984375,-0.00008556694956496358,-0.00004771072417497635,-0.000040615443140268326
1773790804182683400,6.971683349609375,-0.00035202220897190273,0.0004671879578381777,0.0008327974937856197
1773790804202646500,6.991646484375,0.00022799722501076758,0.0005874619819223881,-0.0007077180780470371
1773790804222609400,7.011609375,0.0013511439319700003,0.0006555074360221624,0.0004151822067797184
1773790804242572500,7.031572509765625,-0.00015015839016996324,0.000795318279415369,-0.00130766024813056
1773790804262535700,7.05153564453125,0.0011083517456427217,0.00002956460230052471,-0.00028606876730918884
1773790804282498600,7.07149853515625,-0.0008250543614849448,-0.00015994440764188766,0.0009600520133972168
1773790804302461700,7.091461669921875,-0.0007325208280235529,0.00001991353929042816,0.0009414460510015488
1773790804322424600,7.111424560546875,-0.0008553783991374075,-0.00024288659915328026,0.0011511961929500103
1773790804342387500,7.131387451171875,0.0004079246718902141,0.00036635808646678925,0.0002628425136208534
1773790804362350300,7.151350341796875,0.00026896531926468015,-0.00022916379384696484,0.0006881756708025932
1773790804382313500,7.1713134765625,-0.00010659213876351714,0.00012883450835943222,-0.0005919015966355801
1773790804402276600,7.191276611328125,-0.0003269500157330185,-0.0009238000493496656,0.000643627718091011
1773790804422239500,7.211239501953125,0.0008897916413843632,-0.0002583102323114872,0.0012434902600944042
1773790804442202600,7.23120263671875,-0.0006455121911130846,0.0006409715861082077,0.0006845146417617798
1773790804462165500,7.25116552734375,-0.0002876232611015439,-0.00003901449963450432,0.00048524560406804085
1773790804482128600,7.271128662109375,-0.0005225538043305278,0.00027404422871768475,0.0012655239552259445
1773790804502091500,7.291091552734375,0.0001858096511568874,-0.001539026852697134,-0.0009289844892919064
1773790804522054400,7.311054443359375,-0.00041137685184367,0.0010663650464266539,0.0010357764549553394
1773790804542017500,7.331017578125,-0.0016564772231504321,0.0008508216124027967,0.00023640738800168037
1773790804561980400,7.35098046875,-0.002138861920684576,0.0007598199881613255,-0.000833108089864254
1773790804581943600,7.370943603515625,0.00005946669261902571,0.00013386434875428677,0.00002150842919945717
1773790804601906400,7.390906494140625,0.0016298482660204172,0.0010644998401403427,0.000953329261392355
1773790804621869600,7.41086962890625,0.000060142658185213804,0.0007140145171433687,-0.00007228460162878036
1773790804641832700,7.430832763671875,0.0004713382222689688,0.00007997313514351845,0.0014890986494719982
1773790804661795600,7.450795654296875,0.0002319122722838074,-0.0002460130490362644,-0.00035335496068000793
1773790804681758700,7.4707587890625,-0.0006366411689668894,-0.000017566606402397156,-0.00037428177893161774
1773790804701721600,7.4907216796875,-0.00043807359179481864,0.000625476473942399,0.00024523213505744934
1773790804721684500,7.5106845703125,-0.0001446993846911937,-0.0009693470783531666,-0.0003581428900361061
1773790804741647400,7.5306474609375,0.0007855319418013096,0.0015945242485031486,-0.00101125193759799
1773790804761610500,7.550610595703125,0.0009986505610868335,0.0017412767047062516,-0.0001931781880557537
1773790804781573600,7.57057373046875,0.0005454925121739507,0.0001045942772179842,0.0012712250463664532
1773790804801536500,7.59053662109375,-0.0005043807905167341,0.0005666515789926052,0.0007025371305644512
1773790804821498600,7.61049853515625,-0.0009192751604132354,-0.00017706304788589478,-0.0010589002631604671
1773790804841461800,7.630461669921875,-0.00044211483327671885,0.0002463185228407383,0.0003183702938258648
1773790804861424400,7.65042431640625,0.00025014401762746274,-0.000512012979015708,-0.002594835590571165
1773790804881387500,7.670387451171875,0.000026759720640257,-0.00005213380791246891,0.0006357249803841114
1773790804901350400,7.690350341796875,-0.0012735589407384396,-0.00004845764487981796,0.0008279960602521896
1773790804921313500,7.7103134765625,-0.00006740234675817192,0.0006309847813099623,-0.000028093811124563217
1773790804941276700,7.730276611328125,0.00017340824706479907,0.00045867753215134144,0.0005207154899835587
1773790804961239000,7.750239013671875,-0.0010530801955610514,-0.0005203979089856148,-0.00039741117507219315
1773790804981202200,7.7702021484375,0.00033551076194271445,0.0000755807850509882,0.00016761664301156998
1773790805001165000,7.7901650390625,-0.0007866117521189153,0.0009699335787445307,-0.00021605798974633217
1773790805021128200,7.810128173828125,-0.0006412973161786795,0.00014573405496776104,0.00014303205534815788
1773790805041091300,7.83009130859375,-0.0004300116270314902,-0.0005406015552580357,-0.00043666549026966095
1773790805061054200,7.85005419921875,-0.000709278043359518,0.0015375955263152719,-0.0012223487719893456
1773790805081017300,7.870017333984375,-0.0005292296409606934,-0.0006220855284482241,0.0002895062789320946
1773790805100980200,7.889980224609375,-0.0001768704387359321,0.0003952158149331808,-0.002238160464912653
1773790805120943000,7.909943115234375,0.00008880527457222342,0.000392338028177619,0.000594153068959713
1773790805140906000,7.929906005859375,0.00041928267455659807,0.0015065284678712487,-0.0004378221929073334
1773790805160869000,7.949869140625,-0.001362908398732543,-0.0008127177134156227,0.0009889141656458378
1773790805180832300,7.969832275390625,-0.0001472686999477446,0.0007844974752515554,0.0014193537645041943
1773790805200795100,7.989795166015625,-0.00011433279723860323,0.0003045434132218361,-0.0018145223148167133
1773790805220758300,8.00975830078125,-0.0012007998302578926,0.0006047599017620087,-0.0011735926382243633
1773790805240721200,8.02972119140625,-0.0007759718573652208,0.0007608099840581417,0.00023728376254439354
1773790805260684300,8.049684326171874,0.00010323888272978365,-0.00006913812831044197,0.00044170254841446877
1773790805280647200,8.069647216796875,-0.0003030863590538502,0.0005947223398834467,-0.0010859076865017414
1773790805300610000,8.089610107421874,-0.00004829166573472321,0.00034224288538098335,0.0003423243761062622
1773790805320573200,8.1095732421875,-0.0010026078671216965,0.0006397829856723547,0.0005338587798178196
1773790805340536000,8.1295361328125,-0.00004206359153613448,0.000045998720452189445,-0.00020892871543765068
1773790805360499200,8.149499267578125,0.0008889459422789514,0.0015277039492502809,0.0007983935065567493
1773790805380462000,8.169462158203125,-0.00016926322132349014,-0.0002833465114235878,-0.0007852786220610142
1773790805400425200,8.18942529296875,-0.0007879527402110398,0.00019514048472046852,0.001059133093804121
1773790805420388000,8.20938818359375,0.00047448178520426154,-0.0004597937222570181,0.0010912613943219185
1773790805440351200,8.229351318359376,0.0008349082199856639,0.0005479725077748299,-0.0003172624856233597
1773790805460314400,8.249314453125,0.0001045993558363989,-0.0001918983180075884,0.0002790461294353008
1773790805480277000,8.269277099609376,-0.0002745472302194685,0.0005127955228090286,0.0011581722646951675
1773790805500240100,8.289240234375,0.0004092738963663578,0.000018409686163067818,-0.0005403212271630764
1773790805520203000,8.309203125,-0.000180058617843315,0.001771956100128591,0.00019597401842474937
1773790805540166100,8.329166259765625,-0.0012707712594419718,0.0010161104146391153,0.0006256098859012127
1773790805560129300,8.34912939453125,-0.0017695102142170072,-0.0002301780041307211,-0.0003349175676703453
1773790805580092200,8.369092041015625,-0.0006796142552047968,0.00011537433601915836,0.0007499544881284237
1773790805600055300,8.38905517578125,-0.0017362235812470317,-0.0014398163184523582,0.00048111099749803543
1773790805620017400,8.409017333984375,0.0006715637282468379,-0.0008726657833904028,-0.0009643253870308399
1773790805639980000,8.42897998046875,0.0011361640645191073,0.0011316636810079217,0.0007310984656214714
1773790805659943200,8.448943115234375,-0.0000689173029968515,0.0002614506520330906,-0.00020782556384801865
1773790805679906000,8.468906005859376,0.0005865255952812731,0.000060542020946741104,-0.00009867781773209572
1773790805699869200,8.488869140625,0.00006233125168364495,0.0008202085737138987,0.00012801727280020714
1773790805719832000,8.50883203125,0.00018958841974381357,0.00008406117558479309,0.0008294614963233471
1773790805739795200,8.528795166015625,-0.00032572419149801135,-0.00019493140280246735,-0.000628096517175436
1773790805759758300,8.54875830078125,-0.000892109121195972,0.0005788363050669432,-0.001016430091112852
1773790805779721200,8.56872119140625,-0.001721113920211792,0.00025050551630556583,-0.00017005018889904022
1773790805799684400,8.588684326171874,0.0013256209203973413,0.00006466777995228767,0.00027623260393738747
1773790805819647000,8.60864697265625,0.0005485633155331016,0.0002572685480117798,-0.0010191760957241058
1773790805839610000,8.628610107421874,0.0004346480709500611,0.000502782640978694,-0.0007075727917253971
1773790805859573200,8.6485732421875,-0.0005450521712191403,0.0012159826001152396,-0.0003153630532324314
1773790805879536000,8.6685361328125,0.0003158594772685319,-0.000319833867251873,-0.00033327192068099976
1773790805899499300,8.688499267578125,-0.000019745755707845092,0.0011785124661400914,-0.0014466824941337109
1773790805919462100,8.708462158203124,0.001046002609655261,0.00045798555947840214,0.0007200855761766434
1773790805939425300,8.72842529296875,-0.0008915587677620351,-0.0004300603177398443,0.0005276352167129517
1773790805959388400,8.748388427734374,0.0002654704439919442,-0.00043969089165329933,0.000419392716139555
1773790805979351600,8.7683515625,0.0006794489454478025,0.0007135034538805485,0.00028721103444695473
1773790805999314400,8.788314453125,-0.00038197074900381267,0.0008232479449361563,-0.000041360966861248016
1773790806019277600,8.808277587890625,0.000254425045568496,0.0006608667317777872,0.0015636803582310677
1773790806039240700,8.82824072265625,0.0015009657945483923,-0.00016027200035750866,0.00020083971321582794
1773790806059203600,8.84820361328125,-0.00005228244117461145,0.00028756563551723957,-0.00006268545985221863
1773790806079166700,8.868166748046875,-0.00019398715812712908,-0.00036261603236198425,-0.0008828951977193356
1773790806099129300,8.88812939453125,-0.00010737590491771698,-0.0018229889683425426,0.0012379619292914867
1773790806119092500,8.908092529296875,-0.0030888679903000593,-0.0001426292583346367,0.000045379623770713806
1773790806139055600,8.9280556640625,0.0006532089319080114,0.0008067891467362642,-0.0012188944965600967
1773790806159018500,8.9480185546875,0.0010048046242445707,0.0009214291349053383,0.0011306232772767544
1773790806178981600,8.967981689453126,0.00003065148484893143,-0.00023855804465711117,-0.0006444482132792473
1773790806198944500,8.987944580078125,0.00221371091902256,-0.00031611951999366283,0.00018905848264694214
1773790806218906600,9.00790673828125,0.00037886740756221116,-0.0008241813629865646,0.0013985810801386833
1773790806238869800,9.027869873046875,-0.0008038397063501179,0.0009633476147428155,0.0006443485617637634
1773790806258832400,9.047832275390626,-0.000539695902261883,-0.0018532490357756615,0.0014206296764314175
1773790806278795500,9.06779541015625,0.00027000613044947386,0.001019668416120112,-0.0006656930781900883
1773790806298758400,9.08775830078125,-0.0007343411562032998,0.0010631750337779522,0.00010962551459670067
1773790806318721500,9.107721435546875,-0.000019239465473219752,-0.0007117080967873335,0.0010900367051362991
1773790806338684700,9.1276845703125,0.00010341580491513014,0.0002660169266164303,0.000158676877617836
1773790806358647600,9.1476474609375,-0.00042574817780405283,-0.0006630888674408197,0.00041819922626018524
1773790806378610700,9.167610595703126,-0.0003050362865906209,0.0007083057425916195,-0.0002775765024125576
1773790806398573600,9.187573486328125,0.0002167637285310775,-0.00020946934819221497,0.0003614639863371849
1773790806418536700,9.20753662109375,-0.00021196313900873065,-0.0004205121658742428,-0.0005758157931268215
1773790806438499300,9.227499267578125,-0.00018235307652503252,-0.0007307808846235275,0.00028958171606063843
1773790806458462500,9.24746240234375,0.0008232987020164728,-0.0006884699687361717,-0.001094343140721321
1773790806478425600,9.267425537109375,-0.00038601315463893116,0.00003813439980149269,0.00029950588941574097
1773790806498388500,9.287388427734374,0.00160623446572572,-0.00097791594453156,-0.00014008069410920143
1773790806518351600,9.3073515625,-0.0006813802174292505,0.00011474662460386753,-0.00007853703573346138
1773790806538314500,9.327314453125,0.0009947705548256636,0.002168315928429365,0.000262595247477293
1773790806558277600,9.347277587890625,0.0001404072972945869,0.0006552156992256641,-0.0007903021760284901
1773790806578240500,9.367240478515624,0.0002589616342447698,0.0005112215876579285,-0.001070050522685051
1773790806598203600,9.38720361328125,0.0004192992637399584,0.00016768323257565498,-0.0008926428854465485
1773790806618166500,9.40716650390625,0.0018481715815141797,0.0009542978368699551,-0.00004961015656590462
1773790806638129400,9.42712939453125,-0.00003420369466766715,-0.000059613725170493126,-0.0003723958507180214
1773790806658091500,9.447091552734374,0.00003127538366243243,-0.0002471387851983309,0.00011908402666449547
1773790806678054700,9.4670546875,-0.0002347413683310151,0.0011432503815740347,0.0011215303093194962
1773790806698017500,9.487017578125,-0.00038177758688107133,-0.0007460983470082283,-0.00007987208664417267
1773790806717980700,9.506980712890625,-0.00021175143774598837,0.0002625333145260811,-0.0005034809000790119
1773790806737943600,9.526943603515624,0.0002187036443501711,-0.00022461428306996822,0.0001522442325949669
1773790806757906400,9.546906494140625,0.00030560692539438605,-0.000049787573516368866,-0.00025582127273082733
1773790806777869600,9.56686962890625,-0.0001623061252757907,-0.00011641462333500385,-0.00019004521891474724
1773790806797832400,9.58683251953125,0.0003747666778508574,-0.00009122956544160843,0.0001067453995347023
1773790806817795600,9.606795654296874,-0.00014472758630290627,-0.0005197038408368826,-0.0004997113719582558
1773790806837758500,9.626758544921875,-0.0006063723703846335,0.00015608826652169228,-0.0004922999069094658
1773790806857721600,9.6467216796875,0.001193695585243404,0.0012652365257963538,0.00037418724969029427
1773790806877684500,9.6666845703125,-0.00008632545359432697,0.0005620168522000313,-0.0007750149816274643
1773790806897647600,9.686647705078125,0.0000470049271825701,0.00016769743524491787,0.00030841119587421417
1773790806917610800,9.70661083984375,-0.0030115069821476936,-0.0008793105371296406,0.0006479504518210888
1773790806937573400,9.726573486328125,-0.0005395434563979506,-0.000054515665397047997,0.0010837861336767673
1773790806957536800,9.746536865234376,-0.00018205525702796876,0.00028467271476984024,-0.0013487059623003006
1773790806977499600,9.766499755859375,-0.0009030489018186927,-0.0002693226560950279,-0.0005336301401257515
1773790806997462800,9.786462890625,-0.0006063506007194519,-0.0003249878063797951,0.0008542779833078384
1773790807017425700,9.80642578125,-0.0003803566505666822,0.0005994010716676712,0.0004177619703114033
1773790807037388800,9.826388916015626,0.00048211353714577854,-0.0008293136488646269,0.0008618193678557873
1773790807057352000,9.84635205078125,-0.0008732255082577467,-0.00002279621548950672,0.0007659089751541615
1773790807077314600,9.866314453125,0.0006716703064739704,-0.0005668175872415304,-0.0008958536200225353
1773790807097276700,9.886276611328125,0.0015908286441117525,0.000536660198122263,-0.00072066904976964
1773790807117239800,9.90623974609375,-0.0006030093063600361,-0.0005416939966380596,-0.00013584084808826447
1773790807137202700,9.92620263671875,-0.0001719630672596395,0.0013030526461079717,-0.00006863242015242577
1773790807157165800,9.946165771484376,-0.0008121685241349041,0.00017885910347104073,0.0015105237253010273
1773790807177128700,9.966128662109375,0.0010570073500275612,0.0006331566255539656,-0.00010812841355800629
1773790807197091800,9.986091796875,0.0014083272544667125,-0.00024187914095818996,0.0014760587364435196
1773790807217054700,10.0060546875,-0.00032989727333188057,-0.00003339559771120548,-0.00007015606388449669
1773790807237017600,10.026017578125,-0.0007667866302654147,-0.0011316852178424597,0.0009140269830822945
1773790807256980700,10.045980712890625,0.001082402653992176,-0.00008232402615249157,-0.00017558643594384193
1773790807276943600,10.065943603515626,0.000078881363151595,0.0002538121771067381,-0.0005877413786947727
1773790807296906800,10.08590673828125,-0.00032676145201548934,-0.00039651384577155113,-0.0007130838930606842
1773790807316869600,10.10586962890625,-0.0013589919544756413,0.0002629118971526623,-0.0012980545870959759
1773790807336832800,10.125832763671875,-0.00005017718649469316,-0.0001252016518265009,-0.00047781597822904587
1773790807356796000,10.1457958984375,0.0013256901875138283,-0.002145043108612299,0.0017310380935668945
1773790807376758800,10.1657587890625,-0.001195984659716487,-0.0002501069102436304,-0.0013414183631539345
1773790807396721700,10.1857216796875,-0.0008546860772185028,0.00015301094390451908,0.002150004729628563
1773790807416684500,10.2056845703125,0.0008626540657132864,-0.0001096844207495451,0.0014288737438619137
1773790807436647700,10.225647705078124,-0.00013098216732032597,0.0007510557770729065,0.00013741385191679
1773790807456610600,10.245610595703125,0.00021017497056163847,0.0006686851847916842,-0.00009706197306513786
1773790807476572700,10.26557275390625,0.0007884445367380977,-0.0008245916105806828,-0.0008229357190430164
1773790807496535800,10.285535888671875,0.0003404166200198233,0.0009688311256468296,-0.0022977315820753574
1773790807516498700,10.305498779296874,0.0006503178738057613,0.00029692379757761955,0.00012684566900134087
1773790807536461800,10.3254619140625,-0.0002932536299340427,-0.00016683456487953663,-0.0007412750273942947
1773790807556424700,10.3454248046875,-0.00009197607869282365,0.0003913021646440029,0.0005987263284623623
1773790807576387600,10.3653876953125,-0.0010951787699013948,-0.00009002280421555042,0.00002151215448975563
1773790807596350700,10.385350830078124,0.00025358342099934816,-0.0003996628802269697,-0.000985763967037201
1773790807616313600,10.405313720703125,-0.000015194789739325643,-0.0007989290170371532,0.00025999825447797775
1773790807636276700,10.42527685546875,-0.0006955311982892454,-0.0005249078385531902,-0.00043175695464015007
1773790807656239900,10.445239990234375,0.0009362238924950361,-0.00009592925198376179,0.0004348801448941231
1773790807676202800,10.46520263671875,0.0002766093530226499,0.0005013945046812296,-0.00005419645458459854
1773790807696166000,10.485165771484375,0.00007294138777069747,-0.0011781321372836828,-0.0007722359150648117
1773790807716128800,10.505128662109374,0.0012138659367337823,-0.0013827495276927948,-0.0003213132731616497
1773790807736091600,10.525091552734375,0.00008538425026927143,0.000821754103526473,-0.0007793684490025043
1773790807756054500,10.545054443359374,0.00014399578503798693,-0.0003606181126087904,0.00013556890189647675
1773790807776017700,10.565017578125,0.0008082896238192916,-0.00023212144151329994,-0.000676122959703207
1773790807795980800,10.584980712890625,0.000031015631975606084,-0.00038264552131295204,0.0005845325067639351
1773790807815942700,10.604942626953125,0.00007498366176150739,0.0007728345226496458,0.0013397098518908024
1773790807835905800,10.62490576171875,-0.0006166409002617002,-0.0009182621724903584,0.00004277518019080162
1773790807855869000,10.644868896484375,0.00041810524999164045,-0.0004747703205794096,-0.00031128013506531715
1773790807875831600,10.66483154296875,0.0010585249401628971,0.00019185245037078857,0.000011181458830833435
1773790807895794700,10.684794677734375,0.0002750397252384573,0.001277994248084724,-0.00012955674901604652
1773790807915757600,10.704757568359375,0.0005123368464410305,-0.0010910436976701021,0.0015071248635649681
1773790807935720700,10.724720703125,-0.000014920136891305447,0.0002923649735748768,-0.00022177398204803467
1773790807955685000,10.74468505859375,-0.0008149860659614205,-0.0005377237685024738,0.0014940593391656876
1773790807975648300,10.764648193359376,-0.0012305544223636389,0.00020377547480165958,-0.0006455150432884693
1773790807995611000,10.78461083984375,-0.00027106740162707865,-0.0005441631656140089,0.0010130126029253006
1773790808015574000,10.804573974609376,-0.00006455215043388307,-0.0003602944780141115,0.00043774861842393875
1773790808035537000,10.824536865234375,-0.0005951764760538936,0.00011051073670387268,-0.00020516058430075645
1773790808055500000,10.8445,-0.00023196905385702848,-0.00021105026826262474,-0.00033778371289372444
1773790808075463200,10.864463134765625,-0.00010758003918454051,0.0004303222522139549,-0.0012513650581240654
1773790808095426000,10.884426025390624,-0.0007960274815559387,-0.001175532117486,0.00010005990043282509
1773790808115389200,10.90438916015625,0.00016511311696376652,-0.0006280140951275826,0.0017277584411203861
1773790808135352000,10.92435205078125,-0.0006129641551524401,0.0004655283410102129,-0.0007140194065868855
1773790808155314000,10.94431396484375,-0.00034370756475254893,0.00043061282485723495,0.00046218885108828545
1773790808175277000,10.964277099609374,-0.001486468012444675,-0.0011383176315575838,-0.0001470944844186306
1773790808195240000,10.984239990234375,-0.0007665754528716207,0.0007786811329424381,0.00016830489039421082
1773790808215203000,11.004203125,0.00008738195174373686,-0.001109233358874917,0.0004119765944778919
1773790808235166000,11.024166015625,0.00021653377916663885,-0.00006932648830115795,0.0014298884198069572
1773790808255129000,11.044129150390624,-0.000434861023677513,-0.0009177804458886385,-0.00034116627648472786
1773790808275092200,11.06409228515625,0.0020631798543035984,0.00021839584223926067,-0.0012373141944408417
1773790808295055000,11.08405517578125,0.00020690304518211633,0.00008038897067308426,-0.00028785690665245056
1773790808315018000,11.10401806640625,-0.0016513444716110826,-0.00024023023433983326,-0.0009732870385050774
1773790808334980900,11.12398095703125,0.0006527749355882406,0.0008229750674217939,0.00014779437333345413
1773790808354944000,11.143944091796875,-0.00044961649109609425,-0.0006030956283211708,0.0007416876032948494
1773790808374907100,11.1639072265625,-0.0006454304093495011,-0.0004672762006521225,0.0019883401691913605
1773790808394870000,11.1838701171875,-0.000560677726753056,0.0007421169430017471,-0.00036026304587721825
1773790808414833200,11.203833251953125,0.0007960632210597396,-0.0010022532660514116,-0.0008412073366343975
1773790808434795300,11.223795166015625,0.00021523585019167513,0.00017254683189094067,0.0007296656258404255
1773790808454758100,11.243758056640624,-0.0005612121312879026,0.001610412960872054,-0.000018479302525520325
1773790808474721000,11.263720947265625,-0.0002158885181415826,0.00019496004097163677,-0.0006772591732442379
1773790808494684000,11.283683837890624,-0.0004257483233232051,0.0004035704769194126,0.0009889514185488224
1773790808514647000,11.30364697265625,0.00005376004264689982,-0.00013200449757277966,-0.00009358767420053482
1773790808534610000,11.32360986328125,-0.0004809847741853446,0.0002909759059548378,-0.0001401631161570549
1773790808554573000,11.343572998046875,-0.0002446803846396506,0.00035427091643214226,-0.00009541073814034462
1773790808574536200,11.3635361328125,-0.0005394498584792018,0.000018184306100010872,-0.0004205857403576374
1773790808594499000,11.3834990234375,-0.00022420979803428054,0.0002216971479356289,-0.000022687949240207672
1773790808614462200,11.403462158203125,0.0010910378769040108,-0.00007703318260610104,-0.000615985132753849
1773790808634425000,11.423425048828125,-0.0004436532617546618,0.0003503863699734211,-0.0014221882447600365
1773790808654388000,11.443387939453125,0.000527626893017441,0.0006789024919271469,-0.0005256161093711853
1773790808674351000,11.46335107421875,-0.0003223586827516556,0.0007004269864410162,-0.0001262216828763485
1773790808694314000,11.48331396484375,0.00010931646102108061,-0.00033194292336702347,-0.00016119331121444702
1773790808714277000,11.503277099609376,-0.0004985918058082461,-0.0004014798905700445,0.00015860609710216522
1773790808734239000,11.523239013671875,0.00030136859277263284,0.000239070737734437,-0.00021422049030661583
1773790808754202000,11.5432021484375,0.0004832425038330257,0.0011038393713533878,-0.0011617830023169518
1773790808774165200,11.563165283203125,-0.00004907132824882865,0.00012161675840616226,-0.0005508176982402802
1773790808794128000,11.5831279296875,0.000009588286047801375,-0.00010021869093179703,0.00041424110531806946
1773790808814091000,11.603091064453125,-0.00009812854113988578,-0.0007133136969059706,0.00033898791298270226
1773790808834054000,11.623053955078126,0.00021097213902976364,0.0005904040299355984,-0.0010674265213310719
1773790808854017000,11.64301708984375,-0.000587332237046212,-0.00004556821659207344,-0.0001261197030544281
1773790808873980200,11.662980224609376,-0.00023244752082973719,0.0006728572770953178,0.00013572024181485176
1773790808893943000,11.682943115234375,0.0000036281999200582504,-0.0006267123389989138,-0.00036916788667440414
1773790808913906200,11.70290625,0.0013193709310144186,0.0008000812958925962,-0.00010209809988737106
1773790808933869000,11.722869140625,-0.00039857198134995997,-0.000984239624813199,-0.0011814921163022518
1773790808953830100,11.742830078125,-0.00009679526556283236,0.0003145274240523577,-0.0010624993592500687
1773790808973793300,11.762793212890625,-0.00017391081200912595,0.00004646996967494488,0.00011818856000900269
1773790808993755400,11.78275537109375,-0.0012852719519287348,0.00024883472360670567,0.00001288577914237976
1773790809013718300,11.80271826171875,0.000352347269654274,0.00009507033973932266,-0.00048706913366913795
1773790809033681400,11.822681396484375,-0.00006209529237821698,0.0011395523324608803,-0.001026360783725977
1773790809053644300,11.842644287109374,-0.0010215009097009897,0.0013449856778606772,0.0005751410499215126
1773790809073607200,11.862607177734375,-0.0012525904458016157,-0.0003429108764976263,-0.0008560642600059509
1773790809093570300,11.8825703125,0.000550505705177784,0.0006751001346856356,-0.00019519450142979622
1773790809113533200,11.902533203125,-0.00011075535439886153,-0.0008139356505125761,-0.0008261636830866337
1773790809133496300,11.922496337890625,-0.00003064295742660761,-0.0002084909938275814,-0.0005612471140921116
1773790809153459200,11.942459228515625,-0.000011620402801781893,-0.0002822880633175373,0.0005786973051726818
1773790809173422300,11.96242236328125,0.0005674250423908234,-0.00008668238297104836,0.0005942899733781815
1773790809193385500,11.982385498046876,-0.0013389561790972948,0.0012547842925414443,0.0004377039149403572
1773790809213348400,12.002348388671875,-0.0003850535722449422,0.00004149763844907284,0.00114917429164052
1773790809233311500,12.0223115234375,-0.000348881323589012,0.000858330400660634,-0.00006557488813996315
1773790809253273300,12.0422734375,-0.0008046856382861733,0.0001601779367774725,0.0005061035044491291
1773790809273236200,12.062236328125,-0.0010382910259068012,-0.001496011856943369,0.0012461761943995953
1773790809293199400,12.082199462890625,0.0002711260167416185,-0.000642142491415143,-0.0009364192374050617
1773790809313162200,12.102162353515626,-0.0003908010257873684,-0.0003273256588727236,0.0009981067851185799
1773790809333125400,12.12212548828125,-0.0003960769681725651,0.0015444016316905618,0.0006752470508217812
1773790809353088300,12.142088134765626,0.0006338065722957253,-0.00035282340832054615,0.0003615422174334526
1773790809373051400,12.162051513671875,0.0009775606449693441,0.0005723792128264904,-0.00023877248167991638
1773790809393014300,12.18201416015625,-0.0002900075924117118,0.00012980285100638866,-0.00014536408707499504
1773790809412977200,12.20197705078125,-0.0006405261810868979,0.0000632796436548233,-0.00008450960740447044
1773790809432940300,12.221940185546876,0.00004973338218405843,-0.0003425965551286936,0.000746656209230423
1773790809452903200,12.241903076171875,0.00017813497106544673,-0.00044358870945870876,0.0010156426578760147
1773790809472866300,12.2618662109375,-0.0015954943373799324,0.0011516520753502846,-0.001160650048404932
1773790809492828400,12.281828369140625,0.0009785395814105868,0.0013285436434671283,0.0001706751063466072
1773790809512791300,12.301791259765626,0.0013205872382968664,-0.0010807688813656569,-0.00006705708801746368
1773790809532754200,12.321754150390625,-0.0013166131684556603,0.00006560678593814373,-0.0002791271544992924
1773790809552717300,12.34171728515625,0.0006804051226936281,0.00018417439423501492,-0.0020693554542958736
1773790809572680200,12.36168017578125,-0.0003091989492531866,0.0008720748592168093,0.0006987391971051693
1773790809592643300,12.381643310546876,0.00003876327537000179,-0.00044153700582683086,-0.0005988823249936104
1773790809612606200,12.401606201171875,0.0006489896913990378,0.00046060490421950817,-0.0003873663954436779
1773790809632569300,12.4215693359375,0.0017090511973947287,0.0014979203697293997,0.00014275498688220978
1773790809652532200,12.4415322265625,-0.0020390364807099104,0.0013234622310847044,0.00017930101603269577
1773790809672495400,12.461495361328126,-0.001122564310207963,0.00036930316127836704,-0.00018830876797437668
1773790809692458500,12.48145849609375,-0.0004103022802155465,-0.00019988208077847958,-0.0009975908324122429
1773790809712421400,12.50142138671875,0.00029779592296108603,0.0006708388682454824,0.0005659018643200397
1773790809732383200,12.52138330078125,-0.0003205107932444662,-0.00014281016774475574,-0.00034340890124440193
1773790809752346400,12.541346435546876,0.0009068492217920721,-0.0006642902735620737,0.0009678555652499199
1773790809772309200,12.561309326171875,-0.00008095393422991037,-0.0005674648564308882,-0.00019593769684433937
1773790809792272400,12.5812724609375,-0.0004740663571283221,0.0017264194320887327,-0.0008885106071829796
1773790809812235300,12.6012353515625,0.00029398087644949555,0.0016007231315597892,-0.000044980552047491074
1773790809832198400,12.621198486328124,-0.00031141957151703537,-0.0016130250878632069,-0.00002529006451368332
1773790809852161300,12.641161376953125,0.0005007287836633623,-0.0002661310136318207,0.0005537229590117931
1773790809872124200,12.661124267578124,0.00045360554940998554,-0.0011017678771167994,-0.00019747670739889145
1773790809892087300,12.68108740234375,0.0007347776554524899,-0.00083560636267066,-0.00027244584634900093
1773790809912050200,12.70105029296875,0.0005358257330954075,0.00007898942567408085,-0.0005994257517158985
1773790809932013300,12.721013427734375,-0.00011182526941411197,0.00006113806739449501,-0.0004927595146000385
1773790809951976700,12.740976806640624,-0.0010788729414343834,0.0005025346763432026,0.0018562593031674623
1773790809971938600,12.7609384765625,-0.0006013797828927636,0.00007008342072367668,0.0004367511719465256
1773790809991901700,12.780901611328124,-0.0001555412309244275,-0.00016544689424335957,-0.00184306176379323
1773790810011864600,12.800864501953125,0.00013167262659408152,0.0004908780101686716,-0.0007467437535524368
1773790810031827700,12.82082763671875,-0.0010481041390448809,0.0009973638225346804,-0.0005177315324544907
1773790810051790600,12.84079052734375,0.0003400408895686269,0.000005189795047044754,0.0006239567883312702
1773790810071753700,12.860753662109374,0.00031547571416012943,-0.00026741158217191696,0.00025250809267163277
1773790810091716900,12.880716796875,-0.001139388419687748,0.000057829078286886215,-0.001470934133976698
1773790810111679700,12.9006796875,-0.0010883727809414268,0.0011694538407027721,0.000665734987705946
1773790810131643000,12.920642822265625,0.00016468443209305406,0.0007522827945649624,0.00043027475476264954
