time,seconds_elapsed,z,y,x
1773790242412688100,0.057688232421875,0.034434769043326374,0.014072903350321575,-0.0013942856363020836
1773790242432652300,0.07765234375,0.039221418797969816,0.0065496813675476,0.009199552559759468
1773790242452616400,0.097616455078125,0.04700140514969826,0.008558139679706072,0.00924614991415292
1773790242472580400,0.117580322265625,0.037426936596632,0.011705115914699854,-0.0024119747788645327
1773790242492543500,0.13754345703125,0.027101357415318487,-0.004978782213947852,0.009301003640238194
1773790242512507400,0.15750732421875,0.03218786689937114,0.008514212060545106,0.003085873718746006
1773790242532471300,0.17747119140625,0.03727496090531349,-0.002333816096538794,0.002686754865944385
1773790242552434400,0.197434326171875,0.030091186881065365,0.00522167217953247,-0.0020548136379569767
1773790242572398300,0.2173984375,0.03457973047196865,0.004225675991436583,-0.0045596360657364126
1773790242592362500,0.237362548828125,0.0612163929849863,-0.0017290231703809694,0.003158025639504194
1773790242612325400,0.257325439453125,0.03353402081131935,0.001491785200392769,0.004477163680363446
1773790242632289500,0.27728955078125,0.0450561163008213,0.010324213774711825,0.0077802055474370715
1773790242652253400,0.29725341796875,0.04460661896765232,-0.004079203596542356,0.004660064232908189
1773790242672217300,0.31721728515625,0.04460661896765232,0.0038594941479677797,0.0010740772386081516
1773790242692180500,0.337180419921875,0.042512277036905285,0.00028835880457190796,0.005373162672016769
1773790242712144400,0.357144287109375,0.03383621862828731,0.00947577911018743,0.010729191546142101
1773790242732108300,0.3771083984375,0.03892623524367809,0.004649919581518043,-0.0008979352204129099
1773790242752071400,0.397071533203125,0.04176934971511364,-0.0016935628416991674,-0.009133227591589093
1773790242772035300,0.417035400390625,0.04566226550042629,0.005746447826418443,0.007637837934680283
1773790242791999200,0.436999267578125,0.045514381462335586,0.00033532662254583557,-0.0008529453012160956
1773790242811962400,0.45696240234375,0.06811024415194988,0.009965647269651526,-0.006257635622657835
1773790242831926300,0.47692626953125,0.04012859677076339,0.00792480164989829,0.00746830832036212
1773790242851890400,0.496890380859375,0.039380408751964566,0.0024449066507979296,0.003871087545994669
1773790242874349300,0.519349365234375,0.03728372873365879,-0.0027251903197131467,0.009367584336735308
1773790242894313200,0.539313232421875,0.035487492966651914,-0.0010302934666309737,-0.0010804521804675458
1773790242914277400,0.55927734375,0.039376901620626445,-0.00039980098528030793,0.0013936280491761862
1773790242934241300,0.5792412109375,0.03713292208611965,-0.0009822259597698575,0.005849146153312176
1773790242954204400,0.599204345703125,0.04251987582147121,0.003284738739991735,-0.0002985080225393176
1773790242974168300,0.619168212890625,0.05134907896518707,0.0023117170021068885,0.002223356871586293
1773790242994132200,0.63913232421875,0.032795185142755506,-0.005920402454104624,-0.00040967677943408486
1773790243014095400,0.659095458984375,0.034440614262223244,-0.003974958056189644,-0.0003761215697042644
1773790243034059300,0.679059326171875,0.0353401934504509,0.002262425081717083,0.003716444973554462
1773790243054023200,0.699023193359375,0.034141923576593396,0.007577935857430566,0.0003648512570187449
1773790243073986300,0.718986328125,0.03922960210442543,0.008451656801905483,-0.01282135978611186
1773790243093950200,0.7389501953125,0.03982698347568512,-0.0029033912934319232,-0.004070537374541163
1773790243113914400,0.758914306640625,0.039677930393815036,0.007889538540272042,-0.0012582746990956366
1773790243133877200,0.778877197265625,0.03923194019198417,0.002123110225860728,-0.0008249065168201923
1773790243153841200,0.798841064453125,0.03728548229932785,-0.008034815633567631,0.005688548764120787
1773790243173805300,0.818805419921875,0.03997895916700363,-0.011091087086027254,0.010029208316933363
1773790243193768200,0.838768310546875,0.04476619344353676,0.005503530461370246,0.00470631452742964
1773790243213732400,0.858732421875,0.03683598496615886,-0.001182589389180066,0.005404927783459424
1773790243233696500,0.878696533203125,0.03369417980909347,-0.011866962262772722,0.007606346817873418
1773790243253659100,0.8986591796875,0.03998071273267269,-0.0070883907833078404,-0.0010102730210870504
1773790243273622300,0.918622314453125,0.045370004555582995,0.003406637811810651,-0.004126304416079074
1773790243293586200,0.938586181640625,0.04402268159985542,0.0029546885120624207,0.002765245195943862
1773790243313550300,0.95855029296875,0.03294832987785339,0.003754450027416169,-0.001657357019279152
1773790243333513200,0.97851318359375,0.04177753302156925,0.0021043829779155204,0.00012525208117440342
1773790243353477000,0.99847705078125,0.03220247994661331,-0.0029524557411918064,-0.011369517009984701
1773790243373441500,1.018441650390625,0.03549333818554878,-0.00004050354244682239,0.00023000936359167097
1773790243393405400,1.038405517578125,0.03444587495923042,-0.007024169865611474,0.015648198976181447
1773790243413372200,1.0583720703125,0.03953296896517276,0.001405107853593654,-0.007667411089036613
1773790243433336300,1.07833642578125,0.05359831919670105,-0.0028764998615733927,0.01169071178836748
1773790243453300200,1.09830029296875,0.042673020556569095,0.010413378479063975,0.0074369450677186245
1773790243473263400,1.118263427734375,0.041028175958991046,0.004075900819536764,-0.006236958160810172
1773790243493227300,1.138227294921875,0.03429389926791191,0.0004318840446649119,-0.0011108838513493537
1773790243513191200,1.158191162109375,0.0444721789330244,0.0028035302380740174,0.0044070210536010564
1773790243533154300,1.178154296875,0.04911036012768745,-0.007069061603397131,0.00037537265103310347
1773790243553118200,1.1981181640625,0.04836158758699894,0.0034520278773401514,0.009550923280697315
1773790243573082000,1.21808203125,0.04192833966910839,0.006777502198985894,0.0009523322887718677
1773790243593045200,1.238045166015625,0.04027998794019222,0.009041353765275562,0.0021349296694621444
1773790243613009200,1.258009033203125,0.02995382423698902,0.01171558365143137,0.014764639340993016
1773790243632973300,1.277973388671875,0.0540448939204216,0.004604740720186964,-0.003004862638097256
1773790243652936200,1.297936279296875,0.045964463317394254,-0.005643675292644184,0.003869918502215296
1773790243672900000,1.317900146484375,0.047014849153161044,-0.0006230994781726622,0.0023655600875616073
1773790243692864500,1.337864501953125,0.03414718427360058,0.006457842361385701,0.0011019150936044753
1773790243712827100,1.3578271484375,0.03639116380810738,-0.005289514963820693,-0.013841167820524424
1773790243732791300,1.377791259765625,0.0353442851036787,0.003228124312960426,0.010980207165144383
1773790243752755500,1.39775537109375,0.03624035716056823,-0.0029157944026897893,-0.009428338080644607
1773790243772718300,1.41771826171875,0.04940846629142761,-0.00374455853565305,-0.005088208250794559
1773790243792682500,1.4376826171875,0.027560791620612143,0.008609788810196915,0.00004931903444230556
1773790243812646400,1.457646484375,0.04282382720410824,0.0008328024143193033,0.0018271606282331048
1773790243832609500,1.477609619140625,0.03983107512891292,0.002584952729838551,0.0025990765824913976
1773790243852573400,1.497573486328125,0.04117605999708175,-0.005240509310743073,0.007188304068893194
1773790243872537300,1.517537353515625,0.050154316222667694,-0.00629985134616727,0.009277531433105468
1773790243892501200,1.537501220703125,0.031150340545177457,-0.010100154661294072,0.0046278972626663745
1773790243912464400,1.55746435546875,0.05149930109083652,-0.0025363654894026695,-0.0052861237093806265
1773790243932428300,1.57742822265625,0.04087327765822411,0.0068044849623896874,0.0023064868440851568
1773790243952392400,1.597392333984375,0.042969373154640195,0.009943258482974488,0.002231046987697482
1773790243972355300,1.617355224609375,0.036086043381690976,-0.0008273995825948077,-0.006888243410084397
1773790243992319200,1.6373193359375,0.04730944818556308,0.003633393774513388,-0.0054446022067219015
1773790244012283400,1.657283447265625,0.0323468568533659,0.007234739309793803,0.014391623043827712
1773790244032246300,1.677246337890625,0.04581599475741386,0.0029083805645030224,0.002014554692804813
1773790244052210400,1.69721044921875,0.029654549029469488,-0.006669747529417509,-0.0034822891578078267
1773790244072174300,1.71717431640625,0.031898528563976285,0.0015379822657479961,0.007322470108885318
1773790244092137200,1.73713720703125,0.03159983787834644,0.0034057870013843054,0.0077366769329644735
1773790244112101400,1.757101318359375,0.04027940341830254,0.003769559404524625,0.002039707400370389
1773790244132065300,1.777065185546875,0.03698386900424957,-0.005322240768955089,0.005964863221161067
1773790244152028400,1.7970283203125,0.03623626550734043,0.007569001349015161,0.0026590083424933254
1773790244171992300,1.816992431640625,0.04147241259515285,-0.000550073343279655,-0.01389494383437559
1773790244191956200,1.836956298828125,0.04895429278314113,-0.004221626008226303,-0.012395225062221288
1773790244211919400,1.85691943359375,0.05224456650018692,-0.0016887909111646877,0.011031371096801012
1773790244231883300,1.87688330078125,0.03802782509922981,0.006371463839986245,0.0016956980019807815
1773790244251847200,1.89684716796875,0.04102116169631481,-0.0009647986165837209,0.010463142754789441
1773790244271810300,1.916810302734375,0.04416355137526989,-0.002840600285241089,0.004932433167193085
1773790244291774200,1.936774169921875,0.04506196151971817,0.004907842719453037,0.0008543152743950486
1773790244311738400,1.95673828125,0.04760638530552387,-0.004827121616460499,-0.009349354560300708
1773790244331701200,1.976701171875,0.04012450511753559,0.003937437059517834,0.00861501240376383
1773790244351665200,1.9966650390625,0.034437107130885124,-0.0012855049139048787,0.0029936288580298424
1773790244371629300,2.01662939453125,0.03847673791050911,0.0002646078935205878,0.005110438348911703
1773790244391592200,2.03659228515625,0.03533434823155403,-0.006352679224414169,-0.0007142857491970061
1773790244411553300,2.05655322265625,0.05418634821772575,-0.002357514634657127,-0.0004173120966181159
1773790244431517400,2.076517333984375,0.043561493828892704,0.007780625101723126,0.0055826589705422515
1773790244451480300,2.096480224609375,0.029047230786085128,0.0035724510884698247,-0.0005650134716182947
1773790244471444500,2.116444580078125,0.039521278527379036,0.005696573382016503,0.0004907243927009403
1773790244491408400,2.136408447265625,0.03982172277867794,0.008047336046778946,-0.0016684081362560391
1773790244511371300,2.156371337890625,0.03548398583531379,0.0009206981810144497,0.011106810953188688
1773790244531335400,2.17633544921875,0.03264145588576794,0.00781642421335564,-0.004787599602714181
1773790244551299300,2.19629931640625,0.034734628772735594,-0.0011526011757621744,-0.00707634986070916
1773790244571262500,2.216262451171875,0.038925650721788406,0.004243936306856631,0.0018404037022963166
1773790244591226400,2.236226318359375,0.03488543542027473,0.006800208933604881,0.008418813978228717
1773790244611190300,2.256190185546875,0.03683072426915168,0.004743759890165529,0.0021352036640979346
1773790244631153400,2.2761533203125,0.04431260445713996,0.007159547761044814,-0.0008417845863848924
1773790244651117300,2.296117431640625,0.044162382331490516,-0.008451293188190902,0.0003825695767998695
1773790244671081200,2.316081298828125,0.03458732925653457,0.010411334935738705,0.006116838912479579
1773790244691044400,2.33604443359375,0.034736382338404655,-0.014540875913453054,0.00030464550238102673
1773790244711008300,2.35600830078125,0.04042261128127575,0.005289087418024428,-0.004486808291543275
1773790244730972400,2.375972412109375,0.037730887979269025,-0.005412883331874036,0.0000611738690175116
1773790244750935300,2.395935302734375,0.04237140726149082,-0.003823114795611764,0.012828154853079468
1773790244770899200,2.415899169921875,0.03503858015537262,-0.001227076699466852,0.005071330181229859
1773790244790863400,2.43586328125,0.04850654901564121,-0.002635983089110232,-0.0034845907127484675
1773790244810826200,2.455826171875,0.0359369902998209,0.0008598210681662749,0.009395805784221738
1773790244830790400,2.475790283203125,0.049256490600109094,0.0023167148355103563,-0.0026750096292234957
1773790244850754300,2.49575439453125,0.0392307711482048,0.00014552390252611075,0.0007544168301858008
1773790244870717200,2.51571728515625,0.03818447696566581,0.005761582605112925,-0.0014224705511704087
1773790244890681300,2.535681396484375,0.025616671815514563,0.0004226554558090356,0.00042045390177518127
1773790244910645200,2.555645263671875,0.035494507229328155,0.005892158173731877,-0.010882244949694721
1773790244930608400,2.5756083984375,0.031603929531574246,0.007356067559454823,0.007519508784636855
1773790244950572300,2.595572265625,0.03803834649324417,-0.006093533956239116,0.0046627859129570425
1773790244970536200,2.6155361328125,0.027564298751950263,-0.004309419312344107,0.005530855718068778
1773790244990499300,2.635499267578125,0.043726329001784324,-0.008512336338934254,0.00682352587711066
1773790245010463200,2.655463134765625,0.033550387424230575,0.0021749475849581357,0.007444306390266865
1773790245030427100,2.67542724609375,0.049860886234045027,0.005066652864468051,-0.007979509245511144
1773790245050390300,2.695390380859375,0.02591886963248253,-0.005296405358088668,0.002359934064373374
1773790245070354200,2.715354248046875,0.04552314929068088,-0.0015884186845643853,0.011829754932876675
1773790245090318000,2.735318115234375,0.03879004164338112,0.006104885896493215,0.007454937382135539
1773790245110281200,2.75528125,0.04253156625926494,0.007263042955670971,0.0026444135615602132
1773790245130245000,2.7752451171875,0.04552431833446026,-0.01040939528204617,0.0017503873312845826
1773790245150209500,2.79520947265625,0.04597440018951893,0.007693789922597352,0.01199585048109293
1773790245170172200,2.815172119140625,0.03999064960479736,-0.004330817151755036,0.0059066667605191464
1773790245190136300,2.83513623046875,0.046424482044577595,-0.0019179072234903286,-0.007528550607617944
1773790245210100500,2.8551005859375,0.04462824627757072,-0.002624432502745185,0.005684438844583928
1773790245230063000,2.87506298828125,0.0497182628929615,0.005963881977871642,0.011520506320614366
1773790245250027500,2.895027587890625,0.040140871730446816,0.012582412489171838,-0.0035499658328481017
1773790245269991400,2.914991455078125,0.044781391012668606,-0.003830559458195057,-0.007691814877931028
1773790245289954300,2.934954345703125,0.049123219609260554,-0.006090881916493526,0.00010388049958273767
1773790245309918500,2.95491845703125,0.04269055621325969,-0.002532025528536178,-0.00881301919389516
1773790245329882400,2.97488232421875,0.03326338717639446,-0.0048270565427344985,0.004175148526486009
1773790245349845500,2.994845458984375,0.039099838244915,0.009850894891249481,0.0038648039356805382
1773790245369809400,3.014809326171875,0.04732932192981243,0.0035954121243601546,0.0010369783649221062
1773790245389772300,3.034772216796875,0.045832945892214774,0.009592860442993695,0.010623009491618722
1773790245409738200,3.05473828125,0.03386369115710258,-0.0075198130328470135,0.011106062034517526
1773790245429702400,3.074702392578125,0.04478665170967579,-0.006791498187475372,-0.006045819502882659
1773790245449666300,3.094666259765625,0.053316579645872116,-0.00772976427663234,0.0055991169149987394
1773790245469629200,3.114629150390625,0.04314180711209774,-0.004945782414177665,0.0018081454005092381
1773790245489593300,3.13459326171875,0.03790682906806469,-0.014870724355749551,-0.005345452681183815
1773790245509556200,3.15455615234375,0.03760521577298641,0.002663539528782712,-0.00448576711192727
1773790245529520400,3.174520263671875,0.042245150533318516,-0.004180900701371138,-0.0015545176993124186
1773790245549484300,3.194484375,0.051524435532093044,-0.007487909782442148,-0.00016984014157205818
1773790245569447200,3.214447265625,0.059007484763860696,-0.001885035002472432,-0.012042685297504067
1773790245589411300,3.234411376953125,0.035813656181097026,0.005140436765775666,0.002155113940965384
1773790245609375200,3.254375244140625,0.041948213413357735,0.009392585205606882,-0.0036469051349908113
1773790245629338400,3.27433837890625,0.049130818393826485,-0.005322772775206249,-0.0003437719363719225
1773790245649302300,3.29430224609375,0.044940965488553045,-0.006634117951965891,-0.010075221149437128
1773790245669266200,3.31426611328125,0.03566284953355789,-0.0012939517974918998,-0.0061487136217765505
1773790245689229300,3.334229248046875,0.046886254337429996,0.003527192882858799,0.011313293310720472
1773790245709193200,3.354193115234375,0.03701251057684421,-0.002731314670645224,0.0008659874458797276
1773790245729157000,3.3741572265625,0.04449497528672218,0.006283626867973362,0.0008407068741507828
1773790245749120300,3.394120361328125,0.05302431870102882,-0.004222444567200728,-0.0036720761088654395
1773790245769084200,3.414084228515625,0.03476794652044773,-0.002183300282889104,0.007466573021002113
1773790245789048300,3.43404833984375,0.041352585607767105,0.00947224515020789,-0.008149897376354784
1773790245809011200,3.45401123046875,0.03925649011135101,-0.011182660659885732,-0.007465349178295582
1773790245828975000,3.47397509765625,0.04120177896022796,0.005721646745302132,-0.004333133833482861
1773790245848939500,3.493939453125,0.03716156365871429,-0.003705144407294574,0.0024050883803516626
1773790245868902100,3.513902099609375,0.04165069177150726,-0.004573022986983415,-0.010916275083459914
1773790245888866300,3.5338662109375,0.05167699574530124,-0.00047431696600542633,-0.003765471747051924
1773790245908830500,3.55383056640625,0.04539221638739109,0.00036476991486124457,0.0013104980766773223
1773790245928793000,3.57379296875,0.04972995333075523,-0.0006520458697996218,0.005892455572076141
1773790245948757500,3.593757568359375,0.041348493954539295,-0.002758751808486704,-0.0017591916922479866
1773790245968720100,3.61372021484375,0.046585810086131094,0.004720492037365329,0.004951539726462215
1773790245988684300,3.633684326171875,0.044189854860305786,0.008799292062642051,0.0005838460362516344
1773790246008648400,3.6536484375,0.03072247052192688,-0.007489813474338734,-0.006466967524401843
1773790246028611300,3.673611328125,0.03296820362210274,-0.0029636898066702994,-0.004286664343252778
1773790246048575500,3.693575439453125,0.04030219977200031,0.006062800891257938,-0.0024484891306608913
1773790246068539400,3.713539306640625,0.035814240702986715,-0.0025812455253340885,0.004231153030041605
1773790246088502500,3.73350244140625,0.04554126946926117,-0.008363587505274335,0.0033032793290913103
1773790246108466400,3.753466552734375,0.037160979136824604,-0.00119263428939812,-0.0016190708355046809
1773790246128430300,3.773430419921875,0.04927987147569656,-0.0021558530129543213,0.000882847249135375
1773790246148393500,3.7933935546875,0.019352935245633123,-0.015321856523578753,0.006532543573901057
1773790246168357400,3.813357421875,0.0425467638283968,0.0013913625987370323,0.008920936547778546
1773790246188321300,3.8333212890625,0.045240825217962265,0.010194529830303509,0.0048557877344079315
1773790246208284400,3.853284423828125,0.04419511555731296,-0.0007642169904036563,0.003991005864925682
1773790246228248300,3.873248291015625,0.04150280773341655,-0.012678382535290437,0.007963307029381394
1773790246248212200,3.893212158203125,0.040453590941429134,-0.009365738297876668,-0.006430416639987379
1773790246268175400,3.91317529296875,0.04449614433050155,-0.006350776674161898,0.001645684847794473
1773790246288139300,3.93313916015625,0.05048457109034061,0.004959873159145354,0.0014925583790056406
1773790246308103400,3.953103515625,0.04524608591496944,0.0050176078246615356,-0.0036938860818743705
1773790246328066300,3.97306640625,0.04105740205347538,-0.008361446351360064,-0.0012234773803502322
1773790246348030200,3.9930302734375,0.03956102601587772,-0.008327589747530874,-0.002868157581146806
1773790246367993300,4.012993408203125,0.0392611662864685,-0.006826895440308726,-0.0011816840652376414
1773790246387957200,4.032957275390625,0.03866261587142944,-0.0023817197774405937,-0.0005655249282717704
1773790246407918600,4.052918701171875,0.04704349072575569,-0.006207190356097999,0.008338131691142916
1773790246427881700,4.0728818359375,0.03686754914820194,0.0015033619018715398,0.004163969545345753
1773790246447845600,4.092845703125,0.03821370306015014,-0.020684882535715585,-0.006723335171956568
1773790246467809800,4.112809814453125,0.028188568130135535,0.002650633810614818,-0.004201104951649904
1773790246487772700,4.132772705078125,0.04674304647445678,-0.004704564957515685,-0.0011857574521563947
1773790246507736600,4.152736572265625,0.044048985084891315,-0.017127566796762403,-0.0050326969375833865
1773790246527700700,4.17270068359375,0.04060673567652702,-0.010982713074417552,-0.0030677535401657224
1773790246547663600,4.19266357421875,0.03342413069605827,0.003003988138551358,-0.006953161872457712
1773790246567627800,4.212627685546875,0.03941255745589733,-0.013687196534941904,0.006069693568814545
1773790246587591700,4.232591796875,0.038514147311449046,-0.009625647326098987,-0.0015488734098151324
1773790246607554600,4.252554443359375,0.04105681753158569,0.004557434975495562,0.000008895692508667706
1773790246627518700,4.272518798828125,0.043752047964930534,0.0029935615010152103,0.0014335947333835065
1773790246647481600,4.292481689453125,0.05003741184473037,0.0028253875893220538,0.005133216436300427
1773790246667445800,4.31244580078125,0.042405309531092644,-0.0017844061913121548,-0.006058459788747131
1773790246687409700,4.33240966796875,0.03402560372054576,0.001715864149880508,-0.0033808563436381516
1773790246707372500,4.35237255859375,0.04838964463770389,-0.0017459992786512883,0.0026759960099123417
1773790246727336700,4.372336669921875,0.0331266090542078,0.0012002133805995982,-0.0007593852662481367
1773790246747300600,4.392300537109375,0.04809153847396373,-0.010032153759268112,-0.00021322262557223437
1773790246767263700,4.412263671875,0.04195522767603397,-0.004920435627078405,0.007634385602269321
1773790246787227600,4.4322275390625,0.02564472886621952,-0.00702815306262928,0.0038870157674886284
1773790246807191600,4.452191650390625,0.03566986379623413,0.0016504534961015451,-0.0002873838403262198
1773790246827154700,4.47215478515625,0.04315115946233272,-0.00784665952141513,0.009042736296541988
1773790246847118600,4.49211865234375,0.04644143317937851,-0.0026951214063126827,0.008404968115966766
1773790246867081700,4.512081787109375,0.03925765915513038,-0.010607341565028764,-0.0014245346440933645
1773790246905762600,4.550762451171875,0.053474400556087494,-0.007222669846087228,0.01229234920963645
1773790246925725700,4.5707255859375,0.027137597772479056,0.001395074084407679,0.0009570084638893604
1773790246945689600,4.590689697265625,0.03596680091619491,-0.0014056251611742482,-0.006261161020305007
1773790246965653800,4.61065380859375,0.03746493051946163,0.006375401371231419,0.006940795581229031
1773790246985616600,4.63061669921875,0.04614215797185898,0.00012062942063421359,0.005683836056385189
1773790247005580500,4.65058056640625,0.03596680091619491,-0.007222310228127753,-0.005076810073945671
1773790247025544700,4.670544677734375,0.04000701621770859,-0.0022946073214516216,-0.004040726758167148
1773790247045507600,4.690507568359375,0.0412047015696764,-0.005346191325056133,0.001473031694628298
1773790247065471700,4.7104716796875,0.032227614387869835,-0.0037428249487595163,-0.00366566463438794
1773790247085435600,4.730435546875,0.04150631486475467,0.003615971426021133,-0.0006163600663654506
1773790247105398500,4.7503984375,0.04344985014796257,-0.011168709766346728,0.00816102155856788
1773790247125362700,4.77036279296875,0.04449789789617061,-0.0079905038510944,-0.009218147662375121
1773790247145325600,4.79032568359375,0.03237842103540897,-0.0027446213913790416,0.007337046623509377
1773790247165289700,4.810289794921875,0.04300269090235233,-0.0001246561428415589,-0.0036106099789030848
1773790247185253600,4.830253662109375,0.0422545028835535,-0.007957183820093632,-0.009891955270711333
1773790247205216800,4.850216796875,0.032677111721038814,-0.01349724975368008,-0.0013344634741544723
1773790247225180700,4.8701806640625,0.030433132186532017,-0.003962600898115488,-0.0031509748442098496
1773790247245144600,4.89014453125,0.05332710103988647,-0.0007000263262816588,-0.0010079531998373567
1773790247265106700,4.910106689453125,0.044348844814300535,0.006604532239522086,-0.0029504290371201933
1773790247285070600,4.930070556640625,0.03402677276432514,-0.0038096351157641036,-0.008210523256100714
1773790247305034800,4.95003466796875,0.04420388338565826,-0.001103465874701942,0.0015358129988424479
1773790247324997600,4.96999755859375,0.03357844447493553,-0.014318699371512048,-0.0012322269423864782
1773790247344961500,4.98996142578125,0.0373182155251503,0.009222814704338089,-0.0032624175957404076
1773790247364925700,5.00992578125,0.045099955442547794,0.006009154454036616,0.0029910167758353053
1773790247384888600,5.029888671875,0.0389648136883974,-0.0015732146936832576,0.0038965507808141407
1773790247404852500,5.0498525390625,0.03746843765079975,-0.005997748856499675,-0.007932199505064637
1773790247424815400,5.0698154296875,0.04883972649276256,-0.012636840381927321,-0.002031213566660881
1773790247444779500,5.089779541015625,0.036869887235760686,-0.0019570447885133035,-0.002073847131989896
1773790247464743400,5.109743408203125,0.043154082071781154,-0.011302792466303798,-0.01011829310618341
1773790247484706300,5.129706298828125,0.03896364464461803,-0.001653495264675439,-0.00006223331494256854
1773790247504670500,5.14967041015625,0.04435293646752834,-0.00022701254726271143,0.006973766269069165
1773790247524634400,5.16963427734375,0.051984454259276384,0.003462297824193956,-0.0033623708388768134
1773790247544597500,5.189597412109375,0.03148293350040912,-0.0030428948060114633,0.0025599684148095545
1773790247564561400,5.2095615234375,0.040460020682215686,-0.00046745183061793795,0.00308022942924872
1773790247584525300,5.229525390625,0.03911445129215717,0.0043584606418065955,-0.0058208333742804826
1773790247604488400,5.249488525390625,0.03417757941186428,-0.006656048939272296,0.003994111137464642
1773790247624452400,5.269452392578125,0.043756139618158336,-0.004682809783433913,0.0000022650223225355148
1773790247644415500,5.28941552734375,0.0495920061647892,0.0006993801555989194,-0.006595324878115207
1773790247664379400,5.30937939453125,0.036572950115799904,-0.015876332618162268,0.004968728323280811
1773790247684343300,5.32934326171875,0.05407821166813373,0.0014988091670456924,-0.0004465381911024451
1773790247704306400,5.349306396484375,0.03866787656843662,-0.007084622786243562,-0.018970822326559573
1773790247724270300,5.369270263671875,0.036869887235760686,-0.0002447155975511123,0.006301219036057591
1773790247744234200,5.389234130859375,0.025794950991868973,-0.005352980112980003,-0.013815649786777793
1773790247764197400,5.409197265625,0.04824176059961319,-0.0027228533737987163,-0.004147986524924635
1773790247784161300,5.429161376953125,0.02893558710515499,-0.003609461484721396,-0.0018912936393171548
1773790247804124400,5.44912451171875,0.03551905714869499,-0.0028648776370275297,-0.004547562035452574
1773790247824088300,5.46908837890625,0.047936055651307104,-0.008565437640994787,0.008050181595236062
1773790247844052500,5.489052490234375,0.04060498211085796,-0.0032044351934076985,-0.002327620963659137
1773790247864015400,5.509015380859375,0.036117607563734055,-0.013500977222371147,0.007896141810994595
1773790247883979300,5.528979248046875,0.043154082071781154,0.007087923850782681,-0.005793799236882478
1773790247903943400,5.548943359375,0.04195873480737209,-0.005349567738120095,-0.013532996920496225
1773790247923906300,5.56890625,0.0376186597764492,-0.004204795602311787,-0.000036331688705831766
1773790247943870500,5.588870361328125,0.04779343231022358,-0.002985875951481284,-0.007620010017044842
1773790247963833300,5.608833251953125,0.031335633984208106,0.0005176086892824969,-0.002056786399334669
1773790247983797500,5.628797607421875,0.043157589203119275,0.003937363423459465,-0.0002950191575102508
1773790248003761400,5.648761474609375,0.04839490533471107,-0.008400226296301116,0.0004349938837811351
1773790248023724300,5.668724365234375,0.0325339038580656,-0.005258975407551042,-0.0007931596716865897
1773790248043688400,5.6886884765625,0.03672434128522873,0.004133937449974473,0.014437471479550002
1773790248063652600,5.708652587890625,0.043456864410638806,-0.0095783535686729,0.004912559422943741
1773790248083615500,5.728615478515625,0.03866904561221599,0.00007631250076155993,0.004136277820821851
1773790248103579600,5.74857958984375,0.0463023169696331,-0.006035349482862511,-0.00911282412437722
1773790248123542500,5.76854248046875,0.04181318885684013,-0.006920207738460158,0.003582790390215814
1773790248143506400,5.78850634765625,0.04226210166811943,-0.00546554681333946,0.00762424780074507
1773790248163470600,5.808470703125,0.04240940118432045,0.006219086860690731,0.00014571034731343388
1773790248183433500,5.82843359375,0.036274843952059745,-0.005156898705987259,-0.007675046406220644
1773790248203397600,5.848397705078125,0.051986207824945445,-0.001958786509622587,-0.00554429972153157
1773790248223361500,5.868361572265625,0.04764730183780193,-0.008955552915899898,-0.011105093920137733
1773790248243324400,5.888324462890625,0.04001695308983326,0.008859222680999665,-0.0004003061628900468
1773790248263288600,5.90828857421875,0.040617841592431064,0.0012603313713305396,0.009490169536788017
1773790248283251500,5.92825146484375,0.04465864141583442,-0.000621259432946681,-0.007306048697046935
1773790248303215600,5.948215576171875,0.05633037450909614,-0.011884140584792476,-0.001333988550119102
1773790248323179500,5.968179443359375,0.055284080326557156,-0.0055334324092895255,-0.00827138659786433
1773790248343142400,5.988142333984375,0.02790215240418911,0.012314378378354012,0.0004449855548329651
1773790248363106600,6.0081064453125,0.03433656936585903,-0.004455974761862307,0.0009022278030402957
1773790248383069400,6.0280693359375,0.03523673307597637,-0.0063046428273606575,0.00958579366467893
1773790248403033000,6.048033203125,0.025512042397260664,0.008768241620541083,0.0020170937097631395
1773790248422997000,6.0679970703125,0.04362053053975105,-0.011686798231652936,-0.0030801928966306146
1773790248442960100,6.087960205078125,0.04317220225036144,-0.007314028219992178,-0.0002613726162351668
1773790248462924000,6.107924072265625,0.03928279359638691,-0.004301532547999523,0.0014625103006139398
1773790248482888000,6.127887939453125,0.03928513168394565,-0.003351987013002508,0.004472761499881744
1773790248502851000,6.14785107421875,0.05289923101663589,-0.0049669827491219615,0.0026912666442804037
1773790248522815000,6.16781494140625,0.03434533719420433,-0.0042800493706759875,-0.0026000994957983492
1773790248542778000,6.187778076171875,0.04751286180317402,-0.007432424727050238,-0.00018715660255402326
1773790248562742000,6.207741943359375,0.04706336447000503,-0.0004976042981117643,-0.0009015702159143984
1773790248582706200,6.2277060546875,0.045567572954297066,-0.007408172776849823,0.0036916575921699404
1773790248602669000,6.2476689453125,0.04003215065896511,-0.010702393729117465,-0.005628708335664123
1773790248622633200,6.26763330078125,0.03165244484841823,0.001585597396048979,-0.000842058581020683
1773790248642597000,6.28759716796875,0.04257540540099144,-0.00851272849375673,0.0021812712955288586
1773790248662560000,6.30756005859375,0.040330841344594956,-0.0011740291973947022,0.003659527154546231
1773790248682524200,6.327524169921875,0.04452069424986839,-0.01115823974632658,-0.004552402607351541
1773790248702487000,6.347487060546875,0.04811258126199245,-0.005704342271585483,-0.0008617679284885525
1773790248722451200,6.367451171875,0.04242752136290073,0.0034816307144486924,-0.001534132498409599
1773790248742415000,6.3874150390625,0.05110650238096714,-0.002184876322867058,0.009994849389605223
1773790248762378200,6.407378173828125,0.03539338494241238,0.0009284229745717311,-0.003253193109668791
1773790248782342100,6.427342041015625,0.044372225689887995,-0.0036989541264032593,0.009447919563949107
1773790248802305300,6.44730517578125,0.03973462901711464,0.0006501732163578708,-0.0027407500755041838
1773790248822269200,6.467269287109375,0.03345043418109417,-0.0031855746584886217,-0.004269019088707864
1773790248842233000,6.487233154296875,0.035246085426211354,0.003164612641795247,-0.0008501140233129263
1773790248862196200,6.5071962890625,0.03255319308042526,0.004289187948012841,0.004968728323280811
1773790248882160000,6.52716015625,0.03644377077817917,-0.010684393423190339,0.006299154943134635
1773790248902123300,6.547123291015625,0.03988543566465377,0.002319404549518367,-0.001166851822286844
1773790248922087200,6.567087158203125,0.04512275179624557,-0.004671357378480024,0.0075213354155421255
1773790248942051000,6.587051025390625,0.03045709758400917,-0.012106139030220219,-0.005156615578196942
1773790248962014200,6.60701416015625,0.04063187011778355,0.004867441639583557,0.008938782731723039
1773790248981978000,6.62697802734375,0.03674012337625027,-0.0029233917602003202,-0.0019101262039504944
1773790249001942300,6.6469423828125,0.028808745855093,-0.004395180489579797,-0.003055697776190936
1773790249021905200,6.6669052734375,0.030153730723261832,0.00784759338646545,0.00032382512688636776
1773790249041869000,6.686869140625,0.04257365183532238,-0.0020220838370674753,0.0012363551282323895
1773790249061832200,6.706832275390625,0.04063011655211449,-0.0001855467413632141,0.007551365227624773
1773790249081796000,6.726796142578125,0.03958148428201675,0.0007025556392633006,-0.0007568097166717052
1773790249101760300,6.74676025390625,0.03464344335794449,-0.007744085062929662,0.01106565695889294
1773790249121723100,6.76672314453125,0.043323593419790266,-0.004042607902588497,-0.00500962658924982
1773790249141687000,6.78668701171875,0.050505029356479644,-0.010776053762016817,-0.008220113068353385
1773790249161650200,6.806650146484375,0.04406827430725097,0.0032919536466564747,0.00957289765048772
1773790249181614000,6.826614013671875,0.04870645550191402,-0.015244335449603385,-0.009698551590461284
1773790249201578200,6.846578125,0.04212181641459465,0.0033846112117927986,-0.005936166849639267
1773790249221541000,6.866541015625,0.0388297891318798,-0.004175235862276167,-0.015352248236909508
1773790249241505000,6.886505126953125,0.03793313255310058,0.004810632276785327,-0.001802245382685214
1773790249261469200,6.90646923828125,0.02521335171163082,0.0003894297174934763,-0.013012845503911375
1773790249281432000,6.92643212890625,0.03733458213806152,-0.008804427749596652,-0.011389646482560783
1773790249301396200,6.946396240234375,0.05933247893452644,-0.009736209869862069,0.0017215996282175182
1773790249321359000,6.966359130859375,0.04541735082864761,-0.0005850165070864022,-0.006881448343116789
1773790249341323300,6.9863232421875,0.042720951351523394,0.003545249700179556,0.001203987228590995
1773790249361287200,7.006287109375,0.03598609013855457,0.00801518277626892,0.007858403616491705
1773790249381250000,7.02625,0.0325426716864109,-0.013707796364976092,-0.00027198534179478885
1773790249401214200,7.046214111328125,0.040023967352509494,-0.007098416703689145,0.0021744762285612522
1773790249421177300,7.06617724609375,0.0397229385793209,0.00578810928161256,0.000014083324279636144
1773790249441141200,7.086141357421875,0.035384032592177386,-0.0005285132476703439,-0.005232493826001882
1773790249461105700,7.106105712890625,0.04241758449077606,-0.011693361544824437,-0.0018464681169018148
1773790249481068300,7.126068359375,0.037628596648573875,-0.0056812428113218625,0.007186057312879711
1773790249501032700,7.14603271484375,0.048699441239237785,0.0017815309601028275,0.0032755876045674082
1773790249520995300,7.165995361328125,0.03837327753603458,-0.0007412909173704974,0.0017059636676684021
1773790249540959200,7.185959228515625,0.046154432931542394,0.001002589469430677,0.0013977562350220977
1773790249560923600,7.205923583984375,0.03942074076235294,-0.0027630201311723795,0.0018291151233017443
1773790249580886300,7.22588623046875,0.05138999549746513,0.0006898123199993279,-0.00208528184145689
1773790249600850700,7.2458505859375,0.035977322310209274,0.0064483467347890835,-0.009736910839471966
1773790249620813300,7.265813232421875,0.0337321737319231,-0.005876437160681234,-0.009710607354436069
1773790249640777500,7.285777587890625,0.03208616009056568,-0.020414490929385645,0.00855350974118337
1773790249660741600,7.30574169921875,0.04435644359886646,0.0013926035661083005,0.008716353886388242
1773790249680704500,7.32570458984375,0.04046352781355381,-0.010759052394866011,0.0036102081201039252
1773790249700668700,7.345668701171875,0.041209962266683574,-0.0034077232301438923,0.010591774103138595
1773790249720631300,7.36563134765625,0.036270752298831935,0.0002216640863487555,0.0009381758992560207
1773790249740595500,7.385595458984375,0.0361199456512928,-0.005358498250780394,-0.010683909366000444
1773790249760559600,7.4055595703125,0.030134441500902175,0.001733214860191947,-0.0012409947707317768
1773790249780522500,7.4255224609375,0.043750878921151155,-0.004265657802431087,-0.0016679880111478268
1773790249800486700,7.445486572265625,0.04644435578882694,-0.008783018493742564,0.014818031762354075
1773790249820449500,7.465449462890625,0.0474918190151453,-0.003941260997153586,-0.004666676636785268
1773790249840413700,7.48541357421875,0.03985913217961788,0.017133285293140215,0.003951824632007628
1773790249860377600,7.505377685546875,0.047641456618905065,-0.0074140368328779,-0.0022504092752933503
1773790249880340500,7.525340576171875,0.0483890601158142,-0.009771728707815053,0.001975044666323811
1773790249900304600,7.5453046875,0.03477203817367554,0.005954054703601286,0.004211425416264683
1773790249920267500,7.565267578125,0.027141104903817177,-0.003982353913478436,0.002520385323092341
1773790249940231700,7.585231689453125,0.05497545276880264,-0.003950216340577754,0.0016796236500144005
1773790249960195600,7.605195556640625,0.048690088889002794,0.0010949036850390257,0.0033670835466124115
1773790249980158500,7.625158447265625,0.04330313515365124,-0.021814649184048174,-0.011615783388633281
1773790250000122600,7.64512255859375,0.04779284778833389,-0.0010543393500323872,-0.005366678132303059
1773790250020085500,7.66508544921875,0.032231121519207956,-0.00526320234563027,-0.004200155103579163
1773790250040049700,7.685049560546875,0.03642272799015045,-0.006959124109896947,0.008857917781546711
1773790250060013600,7.705013671875,0.0433048887193203,0.003090029589466576,-0.006617609775159508
1773790250079976400,7.7249765625,0.037319969090819353,-0.004656719500473991,0.004409322608541697
1773790250099940600,7.744940673828125,0.04330547324120998,-0.006271431252569891,-0.001408423759508878
1773790250119903500,7.764903564453125,0.04240764761865139,-0.00808659548233263,0.0029204357576556503
1773790250139867600,7.78486767578125,0.03328092283308506,-0.00024293477512401295,-0.0008918342731893062
1773790250159831600,7.80483154296875,0.03612286826074123,-0.006987478558946167,0.003344341991841793
1773790250179794400,7.82479443359375,0.04330664228498936,-0.01614029334206134,0.0031329825297929347
1773790250199758600,7.844758544921875,0.03477612982690334,0.0006667947727153659,-0.0005224164389073849
1773790250219722500,7.864722412109375,0.03447919270694256,-0.011529976260213879,-0.0029052929874509572
1773790250239685600,7.884685546875,0.0431564201593399,-0.0008493842271840549,-0.007764551320578903
1773790250259649500,7.9046494140625,0.0480973836928606,0.0003484001624281518,0.0006264796015806495
1773790250279612400,7.9246123046875,0.04076689467430115,0.00004015334305295255,0.0018427052572369575
1773790250299576600,7.94457666015625,0.049596097818017,0.009652219097549096,0.008838025770988314
1773790250319539500,7.96453955078125,0.04016892878115177,-0.0020710732217135955,-0.0005864033195190131
1773790250339503600,7.984503662109375,0.055581601968407626,-0.00989756074430188,-0.0022353578366339204
1773790250359467500,8.004467529296875,0.02744856341779232,0.002868947028191178,-0.01218576529631391
1773790250379430700,8.0244306640625,0.0385205770522356,-0.007469710830404074,-0.0025335187993012365
1773790250399394600,8.04439453125,0.03223638221621513,0.0016331598680058958,-0.012873236103821545
1773790250419357700,8.064357666015624,0.041214053919911384,-0.004766509436446359,-0.0023838629292324185
1773790250439321900,8.08432177734375,0.03223521317243576,0.002492765522160334,-0.004572659944090992
1773790250459285800,8.10428564453125,0.031039865908026692,-0.014554087021475424,0.012825725433975458
1773790250479248600,8.12424853515625,0.041814357900619506,-0.003995957747145439,0.00365857730647549
1773790250499212800,8.144212890625,0.039572716453671455,-0.012145758654555538,-0.007892251087166369
1773790250519175700,8.16417578125,0.03807575589418411,-0.015400172181997913,-0.005461754270922392
1773790250539139800,8.184139892578125,0.02685293561220169,0.0014270639570750062,0.007547912895213812
1773790250559103700,8.204103759765625,0.04436228881776333,-0.012155221744289155,0.0019267485451884567
1773790250579067000,8.22406689453125,0.024760931769013405,-0.01617270576583105,0.004843092649616301
1773790250599030800,8.24403076171875,0.03822831610739231,-0.005511599603394279,-0.0015879633111879228
1773790250618993700,8.26399365234375,0.027753683844208715,-0.011338659505773101,-0.0038252391102723774
1773790250638957800,8.283957763671875,0.04945113638937473,-0.0007167825253156479,0.002913476293906569
1773790250658921700,8.303921630859374,0.038976504126191136,0.0031561499178933443,0.0040932058640755714
1773790250678884900,8.323884765625,0.029398528441786764,-0.007265088782284874,-0.0071941675540991125
1773790250698848800,8.343848876953125,0.040623686811327935,-0.004125063448707805,-0.004795216653589159
1773790250718811600,8.363811767578126,0.051097734552621836,-0.008615165954924304,-0.01149157248707488
1773790250738775800,8.38377587890625,0.03987491427063942,-0.011186997766641433,-0.010747567453049122
1773790250758739700,8.40373974609375,0.02999941694438457,0.0015991773978908895,-0.0016473288156092167
1773790250778702800,8.423702880859375,0.039426585981249804,0.0017937886524159693,0.00074347531106323
1773790250798666800,8.443666748046875,0.030896073523163793,0.0031468001363580697,-0.006079904435575008
1773790250818629600,8.463629638671875,0.058279755011200904,0.005031090644031064,-0.007259761869907379
1773790250838593800,8.48359375,0.043915714094042775,-0.00625824240661168,-0.006873813025932759
1773790250858557700,8.5035576171875,0.041971594288945195,-0.0016081153312392416,-0.0000764079707674682
1773790250897237800,8.54223779296875,0.04646422953307628,-0.004740636351317516,0.00227369881933555
1773790250917201000,8.562200927734375,0.0394312621563673,0.0013282243879686574,0.0007784918255172669
1773790250937164800,8.582164794921875,0.03793430159687996,0.00010524362289579585,0.0018464315842837095
1773790250957128700,8.602128662109376,0.03688800741434097,-0.006638214171770959,0.0013203070846386253
1773790250977091800,8.622091796875,0.03823591489195823,-0.007178129734750837,-0.002340882304031402
1773790250997055700,8.6420556640625,0.04422258808612823,-0.008516343510482693,0.009720708623342216
1773790251017019000,8.662018798828125,0.047513446325063706,-0.013017118678585392,0.003939220878761262
1773790251036982800,8.681982666015625,0.03135200059711933,0.00022000085328618296,-0.005301960599329322
1773790251056946700,8.70194677734375,0.045267128702998156,-0.006130249237435054,-0.0010516462110914289
1773790251076909800,8.721909912109375,0.03793430159687996,-0.00943677939871559,-0.0035429333038628098
1773790251096873700,8.741873779296874,0.03793547064065933,-0.012998683406173949,0.0035658027227967975
1773790251116836900,8.7618369140625,0.044071196916699404,-0.00004807977953751106,-0.0016833317107520997
1773790251136800800,8.78180078125,0.04048047894835472,-0.003776956403457734,-0.0008508629419840872
1773790251156764000,8.801763916015625,0.044970191583037375,-0.0006567936830979306,0.002109064575843513
1773790251176727800,8.821727783203125,0.03479658809304237,0.0075632817109930325,0.0059145395397208625
1773790251196691700,8.841691650390626,0.03689502167701721,-0.009605157093919115,-0.0035735659041441973
1773790251216654800,8.86165478515625,0.04527472748756409,-0.0017759424684714758,-0.011810246514808385
1773790251236618800,8.88161865234375,0.04033844012916088,0.006422650033707031,-0.0036817572526633736
1773790251256582000,8.901581787109375,0.04587795407772064,-0.003491176002573047,-0.004881488431245088
1773790251276544500,8.92154443359375,0.04946808752417564,-0.0010157286538611515,0.0024960911320522426
1773790251296508700,8.9415087890625,0.04363339002132415,0.004745197220359113,0.0054437802228145295
1773790251316471600,8.961471435546875,0.035702597022056574,0.0007568859214297845,-0.004001929117739201
1773790251336435700,8.981435791015626,0.04498071297705173,-0.0019830758486743434,-0.0017973134792409835
1773790251356398600,9.001398681640625,0.050515550750494,0.0010811277484914172,0.0028104177782312034
1773790251376362800,9.02136279296875,0.04019114061295986,-0.003959449674392817,-0.010706084665190428
1773790251396326700,9.04132666015625,0.0386947645753622,-0.007541230851033469,-0.008290328760351986
1773790251416290000,9.0612900390625,0.044829321807622904,0.0016816032612579873,0.0034068127688020467
1773790251436254000,9.08125390625,0.0331570041924715,-0.005675913615655736,-0.0038951260087080296
1773790251456217000,9.101217041015625,0.04243453562557697,-0.003166847125132335,-0.009288253756519406
1773790251476181000,9.121180908203126,0.04333294577002525,-0.006558430358761688,-0.0073797349877655505
1773790251496145000,9.141144775390625,0.032408816173672673,0.005928413943090708,0.0021078589994460344
1773790251516108000,9.16110791015625,0.03345686392188072,-0.007012843612354481,0.002951634613517672
1773790251536072000,9.181072021484376,0.040939328631758684,-0.0005757763234054437,0.0012687778268009424
1773790251556035000,9.20103515625,0.04961947869360447,-0.006966174334369133,-0.005820504580717534
1773790251575999000,9.2209990234375,0.049319034442305565,-0.013927908813994144,-0.005455087068118154
1773790251595962000,9.240962158203125,0.030315058764815328,0.0005746034265765047,-0.004119107490312308
1773790251615926000,9.260926025390624,0.03869534909725189,-0.008340623900684295,-0.006103961164597421
1773790251635890000,9.280889892578125,0.04123977288305759,-0.003322466374284704,0.0028559191540814934
1773790251655853000,9.30085302734375,0.041539048090577124,-0.003355712769227102,-0.009124825089424847
1773790251675817000,9.32081689453125,0.04363455906510353,-0.00646241635933693,-0.0043783612146973605
1773790251695780000,9.340780029296875,0.04617722928524017,-0.004848767763510113,-0.002780954221729189
1773790251715744000,9.360743896484376,0.041536710003018375,-0.0018593632748597883,-0.017942812719382344
1773790251735708000,9.3807080078125,0.0425812506198883,-0.005090118221734883,-0.001911952834855765
1773790251755671000,9.400671142578124,0.05245733246803284,-0.009578667520859743,-0.007592829749174416
1773790251775635000,9.420635009765626,0.04318097007870674,-0.0029261328482025417,0.003227638543304056
1773790251795598000,9.44059814453125,0.042136429461836815,-0.010445536316151265,-0.015473883588891476
1773790251815562000,9.46056201171875,0.05021686006486416,0.0016451285816016024,0.0006664280194789171
1773790251835525000,9.480525146484375,0.04692307921648025,-0.004184293953688757,-0.008209609940648078
1773790251855489000,9.500489013671874,0.04243453562557697,-0.0023393967393654748,-0.009717512019257992
1773790251875453000,9.520452880859375,0.03569967441260814,-0.00014335513508995063,0.00020865604830905794
1773790251895416000,9.540416015625,0.0397404742360115,-0.010060298716585384,-0.00011739756828173994
1773790251915380000,9.5603798828125,0.04033960917294025,-0.0017792717887074104,-0.002403060820046812
1773790251935343000,9.580343017578125,0.04123685027360916,0.0041333101164229445,-0.0019223646310158073
1773790251955307000,9.60030712890625,0.0382417601108551,-0.0012519348627989528,0.0019425306362099944
1773790251975271000,9.62027099609375,0.057394788870215416,-0.012521602804691064,0.005434099079016596
1773790251995234000,9.640234130859374,0.03329962753355503,-0.004881773271501879,-0.004695628736633807
1773790252015198000,9.660197998046876,0.024320786786079407,0.005120635515940376,0.0011763685693033038
1773790252035161000,9.6801611328125,0.03958499141335487,-0.0063462237966305105,0.003652695554960519
1773790252055125000,9.700125,0.04182838642597198,-0.004238844858619268,-0.005842990407161414
1773790252075088100,9.720088134765625,0.03404547746479511,-0.013228687061544042,0.01025972913717851
1773790252095052000,9.740052001953124,0.042127077111601824,-0.002527939583529951,-0.010612743825931102
1773790252115016000,9.760015869140625,0.03060439710021019,-0.006188084367651027,-0.0011336254061199724
1773790252134979000,9.77997900390625,0.03898293386697769,-0.004351329645999067,0.004924195061810314
1773790252154943000,9.79994287109375,0.04616553884744644,-0.004833148356803576,-0.01722218856094405
1773790252174906000,9.819906005859375,0.033445758005976677,-0.002971051700040698,0.00045673079155385493
1773790252194870000,9.8398701171875,0.04706394899189472,-0.0017828417104828985,0.0059447154822759325
1773790252214833000,9.8598330078125,0.046615036180615424,-0.00036523113916482543,0.0011518917151726782
1773790252234797000,9.879797119140624,0.05693710823059082,-0.002873643752906355,-0.01110690228473395
1773790252254761000,9.899760986328126,0.04346972389221191,-0.010084535825409692,0.0013231931614689529
1773790252274724000,9.91972412109375,0.038978842213749886,-0.005991364781485754,0.0030615247287787495
1773790252294688000,9.93968798828125,0.02954991961121559,-0.012071485558658605,-0.0010430975784547626
1773790252314651100,9.959651123046875,0.04660802191793918,-0.0032218007450952424,-0.003552797110751271
1773790252334615000,9.979614990234374,0.05094517433941364,0.0026728031161721445,0.003174812377523631
1773790252354578000,9.999577880859375,0.03747662095725536,-0.016465196181181817,0.0008676131473854184
1773790252374542000,10.0195419921875,0.046155601975321765,0.0011153154291721876,-0.009607859366014599
1773790252394506000,10.039506103515626,0.04765197801291942,-0.006829170166607946,-0.019180592619720844
1773790252414468900,10.05946875,0.04585574224591255,-0.0028224995146141733,-0.004341079677920788
1773790252434432800,10.079432861328126,0.03597966039776802,-0.004040159360942198,0.0005911525598727166
1773790252454395600,10.099395751953125,0.04824760581851005,-0.00613515545388218,-0.0030197862125933166
1773790252474359800,10.11935986328125,0.03717383861839771,0.0047148959823403854,0.005853913659974932
1773790252494323700,10.13932373046875,0.04959375973045826,-0.0012451229565776884,-0.007180906213726848
1773790252514286800,10.159286865234375,0.038220717322826385,-0.003344269212016661,-0.012979746951907872
1773790252534250800,10.179250732421876,0.025348376268148422,0.00664734789711947,-0.0023030345116741954
1773790252554214000,10.1992138671875,0.04883972649276256,0.007100719400274101,0.010676511510834097
1773790252574177800,10.219177734375,0.05048340204656124,-0.003227237540738133,-0.009993936074152589
1773790252594140700,10.239140625,0.03776420572698116,0.005015038554128841,-0.001898600162938237
1773790252614104800,10.259104736328124,0.041653614380955696,-0.010866394360014237,0.01072310886522755
1773790252634068700,10.27906884765625,0.04973229141831398,-0.0057274674188462086,-0.004278298373706638
1773790252654032000,10.299031982421875,0.03895779942572117,-0.003390097383552347,0.0032392559158615766
1773790252673995800,10.318995849609376,0.04269990856349468,-0.011065299624222097,0.00016781258126720785
1773790252693958700,10.338958740234375,0.03192483204901218,-0.009080207346274983,0.009969148692768066
1773790252713922800,10.3589228515625,0.03446984035670757,0.0024317860180875866,0.004657068558223545
1773790252733885700,10.3788857421875,0.032225276300311086,-0.008802009746935801,-0.0010368505007587372
1773790252753849900,10.398849853515625,0.03626432255804538,-0.0003309929407230811,0.0026299466447904703
1773790252773813800,10.418813720703126,0.0398538714826107,-0.004877686755673494,-0.008651453690323978
1773790252793776600,10.438776611328125,0.038806992778182024,-0.0028174934042894165,0.006745473938528448
1773790252813740800,10.45874072265625,0.03162380327582359,-0.005713116949796676,-0.009374507267866284
1773790252833703700,10.47870361328125,0.05122925197780132,-0.006029950646893121,-0.0034126579876989126
1773790252853667800,10.498667724609374,0.038511224702000614,-0.006428240665921475,-0.008129603506997228
1773790252873630700,10.518630615234375,0.03596563187241554,-0.0023395771191673702,0.0012534158608876167
1773790252893594600,10.5385947265625,0.030577509093284605,-0.011907450678432359,-0.005435633448977023
1773790252913558800,10.558558837890626,0.03731295482814312,-0.0012649173565470846,-0.0011954385959543287
1773790252933521700,10.578521728515625,0.042999768292903896,-0.005991187255794648,0.0014896540358662605
1773790252953485800,10.59848583984375,0.04344868110418319,-0.017105277333140836,-0.0013841113021597266
1773790252973448700,10.61844873046875,0.032227029865980146,0.00025538754590961616,-0.0014227262794971466
1773790252993412600,10.63841259765625,0.043000352814793585,-0.0011450489845548871,0.006830704536568373
1773790253013375700,10.658375732421876,0.03836158709824085,-0.015195114596572239,-0.007832739452272653
1773790253033339600,10.678339599609375,0.044348844814300535,-0.0032926314979689775,0.0010493081235326827
1773790253053302800,10.698302734375,0.047640872097015376,-0.011926841507136122,-0.000024385522585362195
1773790253073266700,10.7182666015625,0.04180500555038452,-0.005943165700117242,-0.0010663323235698043
1773790253093230800,10.73823095703125,0.04389993200302124,-0.01135585609410191,0.013731862227153032
1773790253113193700,10.75819384765625,0.041507483908534044,-0.012562802464759442,0.007659720972925424
1773790253133157600,10.77815771484375,0.039711248141527176,-0.004795025428166263,0.000807663121074438
1773790253153120800,10.798120849609376,0.04001052334904671,-0.012185493584966752,0.00648159883795306
1773790253173084700,10.818084716796875,0.04255436261296272,-0.005878204426082083,0.0009655936291441321
1773790253193047800,10.8380478515625,0.05168342548608779,-0.00256504016968247,0.009283961173892021
1773790253213011700,10.85801171875,0.03716916244328022,-0.003738430188965867,-0.004382763395179063
1773790253232975600,10.8779755859375,0.05108721315860748,-0.005056285592436325,-0.0008751023340970277
1773790253252938800,10.897938720703126,0.03582476209700108,-0.010867574820236769,0.004329115245491266
1773790253272902700,10.917902587890625,0.04225976358056068,-0.004851204032480018,0.006981949575524777
1773790253292865800,10.93786572265625,0.04540215325951576,-0.003579152255192457,0.0026516104873269795
1773790253312829700,10.95782958984375,0.03477905243635177,-0.00018963653941900702,0.0010920878193341195
1773790253332792800,10.977792724609374,0.035227380725741386,-0.008101068107323953,0.008300868420675397
1773790253352756700,10.9977568359375,0.04330781132876873,-0.0039574871878139675,-0.006504267327487468
1773790253372720600,11.017720703125,0.04600070367455482,-0.00409208790887933,0.0014476049924269318
1773790253392683800,11.037683837890626,0.04330722680687904,0.0005448688722550286,-0.006036266223248094
1773790253412647400,11.0576474609375,0.043459202498197555,0.000922259950438456,0.01553730421392247
1773790253432610600,11.077610595703124,0.04196107289493084,-0.00948871336946322,-0.006050093819200992
1773790253452574500,11.097574462890625,0.02550210552513599,-0.008148210026056039,-0.0034470351813361048
1773790253472537600,11.11753759765625,0.04255903878808021,0.007605029360332992,-0.006796089880913496
1773790253492501500,11.13750146484375,0.041512744605541226,-0.01529171368870884,0.0001859692924655974
1773790253512465400,11.15746533203125,0.051986207824945445,-0.007184327721741283,0.013269541945029049
1773790253532428500,11.177428466796876,0.03342822234928608,-0.005576752102852333,-0.004371182555239647
1773790253552392400,11.197392333984375,0.03896422916650772,-0.012871190277207642,-0.006576382715627551
1773790253572355600,11.21735546875,0.04554886825382709,-0.015554781646752962,-0.00167226232746616
1773790253592319500,11.237319580078125,0.05302899487614631,-0.009292743843613425,0.005904803596995771
1773790253612282600,11.25728271484375,0.038514731833338735,-0.00190932933621807,-0.010749850741680712
1773790253632246500,11.27724658203125,0.04090717992782592,-0.01024865176238236,-0.0008983736118301749
1773790253652210400,11.29721044921875,0.03791442785263061,0.0008324704812344862,0.006716357441898435
1773790253672173600,11.317173583984374,0.04943769238591194,-0.0013819013641754281,-0.0038057489585131402
1773790253692137500,11.337137451171875,0.0362678296893835,-0.014567366628156742,0.011241926841251552
1773790253712100600,11.3571005859375,0.045695583248138424,-0.004081854209232552,0.013028755459096281
1773790253732064500,11.377064453125,0.0419540586322546,-0.010508092716435203,-0.0011514167911373077
1773790253752027400,11.39702734375,0.047639703053236004,-0.0005690172182337847,0.013553857045434414
1773790253771991600,11.416991455078126,0.023698270973563192,-0.009590063414420001,0.0030435689469799397
1773790253791954400,11.436954345703125,0.04584346728622913,-0.01002352521152934,0.022095895544532684
1773790253811918600,11.456918701171874,0.03895955299139023,-0.008082516958014457,-0.012736823307815939
1773790253831882500,11.476882568359375,0.03836158709824085,-0.004548905465401185,-0.005893423686455935
1773790253851845400,11.496845458984374,0.05347615412175655,-0.00800700689050136,0.0018327135861851275
1773790253871809500,11.5168095703125,0.0356710328400135,-0.007275986918923444,-0.0054422275865450495
1773790253891772400,11.5367724609375,0.03641980538070202,-0.014227639537595677,0.003494856378436088
1773790253911736600,11.556736572265624,0.047343934977054594,-0.00650741826579906,-0.007029661174770444
1773790253931699500,11.576699462890625,0.040461774247884746,-0.01098160567943123,-0.008446469170134514
1773790253951663600,11.59666357421875,0.0483937362909317,-0.00034592593378474703,0.005423340222984552
1773790253971626500,11.61662646484375,0.04988952780663967,-0.0026524638664530355,-0.006972231899108738
1773790253991590400,11.63659033203125,0.038517069920897484,-0.003007570333003241,0.005149071592558175
1773790254011554600,11.656554443359376,0.03447802366316318,-0.00312868680764368,0.007336973558273166
1773790254031517400,11.676517333984375,0.037619828820228574,-0.0216511109190993,-0.006860588218178599
1773790254051481600,11.696481689453124,0.04270809186995029,-0.007171303843386704,-0.002985628214664757
1773790254071444500,11.716444580078125,0.038518238964676856,-0.0016148250602942425,0.001046422046702355
1773790254091408400,11.736408447265624,0.0403156437754631,-0.006352410367177799,-0.002339329667761922
1773790254111371500,11.75637158203125,0.027146365600824354,0.004928560709673911,-0.00018706527100875972
1773790254131335400,11.77633544921875,0.04166062864363193,-0.004295714728566236,0.0055457792925648385
1773790254151299600,11.796299560546874,0.047644379228353496,-0.001470143619920418,0.0021858744054101408
1773790254171262500,11.816262451171875,0.03791851950585842,-0.003943245174974436,0.0035156799707561728
1773790254191226400,11.836226318359374,0.03582417757511139,-0.013776364664227003,0.004840425768494605
1773790254211189500,11.856189453125,0.04599953463077545,-0.004206861978523374,0.004374561822414398
1773790254231153400,11.8761533203125,0.04300912064313888,-0.010031045222637475,0.00034110505525022743
1773790254251116500,11.896116455078126,0.048991702184081075,-0.014053538779437075,-0.0015854608268477022
1773790254271080400,11.91608056640625,0.04390460817813873,-0.0046157630106448775,-0.0022106435204856095
1773790254291043600,11.936043701171876,0.05378069002628326,0.005231150110642193,-0.00188842582879588
1773790254311007500,11.956007568359375,0.043005613511800767,-0.0030228244135287238,-0.00692053824448958
1773790254330971400,11.975971435546874,0.042706338304281236,0.009027257882908452,0.00835510109225288
1773790254350934500,11.9959345703125,0.043005613511800767,-0.0034864718571698174,-0.0057372650103643535
1773790254370898400,12.0158984375,0.036274259430170055,0.0025578018593092563,-0.011239881014637649
1773790254390861600,12.035861572265626,0.03717091600894928,-0.01770213925623684,0.011870707997772841
1773790254410825500,12.055825439453125,0.03013677958846092,0.003722682632684882,-0.001830064971372485
1773790254430788600,12.07578857421875,0.051233928152918815,-0.0014322592949451063,0.0015545359656214714
1773790254450752500,12.09575244140625,0.05183014048039913,-0.012523977424867916,-0.0038495150350034233
1773790254470715600,12.115715576171874,0.04120587061345577,0.009035695205224329,-0.0014250826333649456
1773790254490679600,12.135679443359376,0.03896013751327991,-0.0031772580650591404,0.0011869630285538733
1773790254510643500,12.1556435546875,0.054822308033704754,-0.0001446333486070216,0.0009806998667307198
1773790254530606600,12.175606689453126,0.03477086912989616,-0.0004665643448679475,-0.010697061108518391
1773790254550570500,12.195570556640625,0.05167991835474968,0.0006735142057470511,0.006833535814471542
1773790254570533600,12.21553369140625,0.04210252719223499,-0.0011545157846325309,-0.0034863442784175275
1773790254590497500,12.23549755859375,0.04030746046900749,-0.006858928267343435,0.002613196439389139
1773790254610460400,12.25546044921875,0.04524550139307976,0.0004327750980533892,0.001422580149024725
1773790254630424600,12.275424560546876,0.04195230506658554,-0.002644027971192554,-0.00030698358993977307
1773790254650387500,12.295387451171875,0.04030570690333843,0.0069507450114411765,0.004368442608881741
1773790254670351600,12.3153515625,0.040004093608260155,-0.019216757628356573,0.006899057065043598
1773790254690315500,12.3353154296875,0.03207271608710289,-0.013176451125874882,0.011001103822700678
1773790254710278400,12.3552783203125,0.037159225571155544,-0.009338774371604085,-0.0013574790235608815
1773790254730242600,12.37524267578125,0.03551379645168781,0.006890644858902669,0.00503609447106719
1773790254750205400,12.395205322265625,0.042996261161565776,-0.0028056320052593947,-0.00023346169600263237
1773790254770169600,12.415169677734376,0.03955459627509117,0.013826589022611732,-0.00159969028159976
1773790254790132500,12.435132568359375,0.033416531911492346,-0.008148673533648253,-0.013818773325625807
1773790254810096400,12.455096435546874,0.04538637116849422,-0.0006565111261297716,-0.0005853256072849035
1773790254830059500,12.4750595703125,0.03131926737129688,-0.004920286071673035,0.0008123575625009834
1773790254850023400,12.4950234375,0.05391337649524212,-0.010002417349774622,-0.0004720014259219169
1773790254873731300,12.5187314453125,0.05391337649524212,-0.0021992033882081157,-0.005237827588245272
1773790254893694500,12.538694580078126,0.03161737353503704,-0.010567130568937863,0.0022205073273740706
1773790254913658400,12.558658447265625,0.041940614628791804,-0.006706004440420656,-0.0034924269593320785
1773790254933621500,12.57862158203125,0.0420890831887722,0.00026681897314920206,0.0031452392231673
1773790254953585400,12.59858544921875,0.032812136277556414,0.003981345270725432,-0.004804167145024985
1773790254973548300,12.61854833984375,0.033710546422004696,-0.0038992296492011518,-0.006029818216152488
1773790254993512400,12.638512451171875,0.03984393461048603,-0.0007209458167242701,0.001245890141557902
1773790255013475300,12.658475341796875,0.028171616995334624,-0.004025782919484481,0.003235310393106192
1773790255033439500,12.678439453125,0.04388181182444095,0.003121087737666676,0.004522281463723629
1773790255053402400,12.69840234375,0.03864215760529041,-0.012382518560986499,-0.001923625006340444
1773790255073366500,12.718366455078124,0.042830841466784474,-0.0019460262083994164,-0.0014037841170094906
1773790255093330400,12.738330322265625,0.05046235925853252,-0.0025253474801109404,0.007881620095297694
1773790255113293300,12.758293212890624,0.04088321453034877,0.00057577189953372,0.006494933243561536
1773790255133257500,12.778257568359376,0.04028407959342003,-0.010995228921051602,-0.001250858577620238
1773790255153220400,12.798220458984375,0.043726329001784324,-0.0012542542559320282,0.00038624110491946337
1773790255173184500,12.8181845703125,0.03968552917838097,0.005598882877914002,-0.000058068596478551624
1773790255193147400,12.8381474609375,0.05075871185660362,-0.000836829279232188,0.0035401020259596405
1773790255213111300,12.858111328125,0.02591828511059284,0.00817928444268764,0.01182458556741476
1773790255233074400,12.878074462890625,0.03459668160676956,-0.012340011718176537,-0.006271609349083155
1773790255253037600,12.89803759765625,0.03803951553702354,-0.007105207774901646,-0.006167290458083153
1773790255273001500,12.91800146484375,0.03968669822216034,-0.011350655904243466,0.012291910818219185
1773790255292964400,12.93796435546875,0.03445055113434791,0.006092396307678427,0.002520220926310867
1773790255312928500,12.957928466796876,0.05764087258577347,-0.007490733068835106,-0.004008961646724492
1773790255332892400,12.977892333984375,0.04297521837353706,0.004637250754545675,-0.0007967216019518673
1773790255352855600,12.99785546875,0.045966801404953,-0.0050966176028246985,-0.0022415135827846826
1773790255372819500,13.0178193359375,0.05359948824048042,-0.002130884252829128,0.0003718655196949839
1773790255392782300,13.0377822265625,0.040729485273361205,0.007844872848060912,0.0116827476776205
1773790255412747300,13.057747314453126,0.04372165282666683,-0.007610256949655013,0.013052556459791958
1773790255432710100,13.077710205078125,0.033845570978522296,-0.002797246627759887,0.0022680910624563694
1773790255452674000,13.097674072265624,0.02471533906161785,-0.008938905458486988,0.0031692959521897137
1773790255472637200,13.11763720703125,0.04341887048780918,0.008005246474966407,-0.0009733202778734266
1773790255492601000,13.13760107421875,0.03997895916700363,-0.00386168467799871,-0.00449500986430794
1773790255512564000,13.15756396484375,0.041323359513282774,-0.0015610210761573397,0.004898969289008528
1773790255532528000,13.177528076171875,0.0428209045946598,-0.010821635052969214,0.011426909753028302
1773790255552492000,13.197491943359376,0.031000118419528006,0.006739829649031162,0.0037441549643874167
1773790255572455200,13.217455078125,0.05419336248040199,-0.0015092486480803927,-0.002197765772603452
1773790255592419000,13.237419189453124,0.032196634727716444,-0.004704327210086921,0.0014024872090667485
1773790255612382200,13.25738232421875,0.03892857333123684,-0.009055438231199513,0.0034335729115642605
1773790255632346000,13.27734619140625,0.04371697665154934,-0.004096547742398979,-0.0011809716791845858
1773790255652309200,13.297309326171876,0.02875087818801403,0.00026247230512235547,0.007035634257830679
1773790255672273200,13.317273193359375,0.034136662879586215,-0.009648015563178342,0.005738032195344567
1773790255692236000,13.337236083984376,0.02979600332677364,-0.005079429006006103,0.012401837466098367
1773790255712200200,13.3572001953125,0.03832359317541122,-0.004458192120534658,0.004106101878266781
1773790255732163000,13.3771630859375,0.032039398339390755,-0.010602191607520217,0.0022962029120884835
1773790255752127200,13.397127197265625,0.04430968184769153,-0.006582086941451416,-0.007133833935298025
1773790255772089900,13.41708984375,0.04356090930700302,-0.004628526594095456,0.0017200652582570908
1773790255792054300,13.43705419921875,0.04026654393672943,0.0031387658144856685,0.004239044075552374
1773790255812018200,13.45701806640625,0.03338146059811115,-0.0001877927838489995,0.007328096132073551
1773790255831981000,13.47698095703125,0.02350713231563568,0.007686493102952954,-0.0021913360318168997
1773790255851945200,13.4969453125,0.02724807240962982,-0.010386896897514816,0.00485746823484078
1773790255871907800,13.516907958984374,0.033682489371299744,-0.008092498925089602,-0.00008106587957590819
1773790255891872300,13.536872314453126,0.0455003529369831,-0.006935201524081639,0.0020461919400840997
1773790255911835000,13.5568349609375,0.048640404528379436,0.002857074783540156,-0.0015574951076880097
1773790255931799300,13.57679931640625,0.03636719841063022,-0.00592382624540769,0.0011689524478279054
1773790255951762000,13.596761962890625,0.053873629006743425,-0.010818347117339725,0.002736311362404376
1773790255971726000,13.61672607421875,0.044297991409897805,-0.0022498404510130055,-0.0010801781858317554
1773790255991689000,13.63668896484375,0.04115560173094272,0.001887588147279166,0.0040127793053165075
1773790256011652900,13.65665283203125,0.0363683674544096,-0.008653048567433142,0.004212831922061741
1773790256031616000,13.676615966796875,0.04415069189369678,-0.013687481946020852,0.0028177425681613385
1773790256051580000,13.696579833984375,0.04564706793129444,0.007289064454560866,0.0019271504039876162
1773790256071544000,13.7165439453125,0.03920972836017608,-0.004587143129292235,-0.003467785708419978
1773790256091507000,13.7365068359375,0.040707273441553116,-0.003609744897922792,-0.005460640026070177
1773790256111471000,13.75647119140625,0.04220306495726108,-0.011084861699573229,0.010874719230365008
1773790256131434000,13.77643408203125,0.03890986863076687,-0.0066975157441105685,0.0006099485918879509
1773790256151398000,13.79639794921875,0.04354688078165054,-0.008032794352306518,0.007905256699211894
1773790256171361000,13.816361083984376,0.040402737537026404,0.0015826492423089802,-0.003237246621865779
1773790256191325000,13.836324951171875,0.04608955100178718,-0.014050226869276957,0.010647961269784718
1773790256211288000,13.8562880859375,0.045941082441806794,-0.0003075858073163545,-0.003791135911270976
1773790256231252000,13.876251953125,0.03367196797728538,-0.00006435591713670873,0.007969937699567525
1773790256251215000,13.896215087890624,0.034869068807363506,-0.011159445322724058,0.00828455660669133
1773790256271179000,13.916178955078125,0.03457096264362335,-0.0015317941254397738,0.00403075335342437
1773790256291142000,13.936141845703125,0.03382335914671421,0.010626594254770316,0.013849734719470142
1773790256311106000,13.95610595703125,0.05013502700030804,-0.008432547959347721,0.0063268284013494845
1773790256331070000,13.976070068359375,0.04190495879352092,-0.00543825637679256,-0.0002859225356020033
1773790256351033000,13.996033203125,0.04489829539060593,-0.013812116397620412,0.01137302414132282
1773790256370997000,14.0159970703125,0.04385083216428756,-0.002594866769076907,-0.002993957651592791
1773790256390959900,14.0359599609375,0.02694178293943405,-0.004456324675845098,-0.001044558883178979
1773790256410924000,14.055924072265626,0.029934535014629362,-0.010922239033365621,0.002540807056613266
1773790256430886100,14.07588623046875,0.03098375180661678,0.0041130433611178885,-0.001311575788911432
1773790256450850300,14.095850341796876,0.05208674558997154,-0.008723709500714903,-0.00167914872597903
1773790256470813200,14.115813232421875,0.03532499588131904,-0.007377711423215805,0.007137048805691301
1773790256490777300,14.13577734375,0.03278115661740303,0.006962450290611014,0.007112608484178781
1773790256510740200,14.155740234375,0.03278291018307209,-0.006280083774839295,0.008806899980362505
1773790256530704400,14.175704345703124,0.04266074559688568,-0.0010445000884967157,-0.00369942077351734
1773790256550667300,14.195667236328125,0.048046530288457866,-0.00464239871417667,-0.0012466573265381157
1773790256570631200,14.215631103515625,0.0395183559179306,0.002637528304691659,0.002122526845615357
1773790256590594300,14.23559423828125,0.04236263943314552,-0.012313490179076325,0.00761520597776398
1773790256610558200,14.25555810546875,0.0377232891947031,0.0018737134584982413,0.008535700089856981
1773790256630522400,14.2755224609375,0.03233633545935154,-0.01665371019882732,-0.003271148891467601
1773790256650485200,14.2954853515625,0.05253858101069927,-0.002862249000990414,-0.0027558563130907713
1773790256670449200,14.31544921875,0.04101765456497669,0.00030103448141016997,-0.01118413223940879
1773790256690412300,14.335412353515625,0.03428337787389755,0.0015529085516493067,-0.0053265287850052115
1773790256710376200,14.355376220703125,0.036975101175904274,0.0031287244819061012,0.0015156469936482607
1773790256730339300,14.37533935546875,0.029043723654747007,-0.001203222612310492,0.00902229629671201
1773790256750303200,14.39530322265625,0.04714870466589927,-0.009444483214558567,-0.0003323920258320868
1773790256770266400,14.415266357421874,0.03173544695675373,-0.01151127955125412,0.008527553316019475
1773790256790230300,14.435230224609375,0.04400689950883388,-0.010021216806722804,-0.0035161548947915434
1773790256810193400,14.455193359375,0.040267128458619114,-0.016375969828036612,0.003165240831580013
1773790256830157300,14.4751572265625,0.04984393509924411,-0.007443087684959755,0.003169643012061715
1773790256850120200,14.4951201171875,0.0359282224714756,-0.004475386140163755,0.00776230456456542
1773790256870084400,14.51508447265625,0.04370820882320404,-0.002116165888898831,0.008268244792707264
1773790256890047200,14.535047119140625,0.03263736423254013,-0.00619351745294989,-0.006367763199936598
1773790256910011400,14.555011474609374,0.02919569934606552,-0.010647911037434824,0.004250442252401262
1773790256929974300,14.574974365234375,0.033983518144488335,0.0010774151211764547,0.004433214940782636
1773790256949938200,14.594938232421875,0.0407207174450159,-0.007054150586988544,0.0013847688892856239
1773790256969902300,14.61490234375,0.032790508967638014,-0.0074956244439061265,0.009586615648586302
1773790256989865200,14.634865234375,0.03907704189121723,-0.012439263991703045,0.007108096705842763
1773790257009829400,14.654829345703124,0.04446282658278942,-0.00874904372972669,0.0020950725831091403
1773790257029792300,14.674792236328125,0.05359130493402481,-0.010311059748905244,-0.004836516778357326
1773790257049756400,14.69475634765625,0.038328269350528715,-0.009604867116262903,0.009527414540946483
1773790257069719300,14.71471923828125,0.04865443305373192,-0.0072532653429283524,0.001528415143676102
1773790257089683200,14.73468310546875,0.03817921626865864,-0.022308065574045757,-0.0008207052657380699
1773790257109646300,14.754646240234376,0.038328853872418404,-0.013027829585556172,0.003797766581457108
1773790257129610200,14.7746103515625,0.04042202675938606,-0.0010429465959939988,0.01603509766822681
1773790257149573400,14.794573486328124,0.04775543838739395,-0.008017427248993772,0.0051994683392345906
1773790257169537300,14.814537353515625,0.03159399265944957,-0.007310988021179218,0.005667451177164912
1773790257189500400,14.83450048828125,0.05119885683953762,-0.004341605119717132,0.009259794847015291
1773790257209464300,14.85446435546875,0.030400983482599255,-0.004804176278179511,-0.002201236371323466
1773790257229427500,14.874427490234375,0.038481998607516284,-0.011024249519559088,0.01049783047568053
1773790257249391400,14.894391357421876,0.033543373161554334,-0.014593052483617792,-0.005937975214235484
1773790257269354200,14.914354248046875,0.045664603587985034,0.0025623867028814855,-0.004613065019715577
1773790257289318400,14.934318359375,0.0441676430284977,0.0029206786424838356,-0.01071224041134119
1773790257309281300,14.95428125,0.039976036557555196,-0.0007256465371945523,-0.0002842785677872598
1773790257329245400,14.974245361328125,0.03563420796096325,0.0020897322564109345,-0.004659845037199557
1773790257349209300,14.994209228515626,0.04416472041904926,0.0016411305432076915,0.002475468469131738
1773790257369172200,15.014172119140625,0.055986091116070745,0.005932043230370618,-0.009189853149652481
1773790257389136400,15.034136474609374,0.034438276174664495,0.0014146721215547585,0.01458765707258135
1773790257409099300,15.054099365234375,0.03249123376011848,-0.004636035474171512,0.001820877017918974
1773790257429063700,15.074063720703125,0.03174246121942997,-0.006888674951635767,0.011581990716885775
1773790257449026600,15.094026611328125,0.03234042711257935,-0.013574779960809974,-0.0032049152548424896
1773790257468990500,15.113990478515625,0.057927872833609576,0.002366671906419651,0.0019134141395799815
1773790257488953600,15.13395361328125,0.043562662872672075,-0.005431271226046374,-0.0025568631422705945
1773790257508917500,15.15391748046875,0.03937280996739864,-0.0068057755912886925,0.00625915172630921
1773790257528880600,15.173880615234374,0.04011924442052841,-0.003716993533648201,0.006824055600073188
1773790257548844500,15.193844482421875,0.052689387658238405,0.0009564563361571344,0.011576857884041964
1773790257568807700,15.2138076171875,0.03144260149002075,-0.010676178150693886,-0.002601907860394567
1773790257588771600,15.233771484375,0.03623100481033325,-0.007564600310177774,0.008488664344046264
1773790257608734700,15.253734619140625,0.0516442625194788,-0.008316156179708196,0.002472162267193198
1773790257628698600,15.27369873046875,0.04431377350091934,0.0020352909493347397,-0.005272423977591097
1773790257648661500,15.29366162109375,0.04790682955682277,-0.004572009206830989,0.005249810286983847
1773790257668625700,15.313625732421874,0.03997720560133457,-0.010322491033439291,0.011932923046406358
1773790257688588500,15.333588623046875,0.03713233756422996,0.001564893676382053,0.010373436911031602
1773790257708552700,15.353552734375,0.047754853865504265,-0.0030839380608085774,0.006741290953755378
1773790257728515600,15.373515625,0.041321605947613714,-0.008877468440454686,-0.010081157699879259
1773790257748479500,15.3934794921875,0.048206104764342304,0.0022712896644181456,0.009737933752778916
1773790257768443600,15.413443603515624,0.04311901075839996,-0.0015933789864109712,-0.0051068398860283195
1773790257788406500,15.433406494140625,0.03339607364535332,0.0018433368719546705,0.002468052347656339
1773790257808370700,15.45337060546875,0.029806524720788,-0.010119108240224887,-0.001973345899581909
1773790257828333600,15.47333349609375,0.04791267477571964,-0.0064193952057627025,-0.0021093385704793037
1773790257848297500,15.49329736328125,0.04551788859367371,-0.012095529729593544,0.0034478571652434764
1773790257868260600,15.513260498046876,0.036838907575607295,-0.004861581008488428,0.004487009220942854
1773790257888224500,15.533224609375,0.04342354666292667,0.0007470746301798498,0.016150723404530436
1773790257908187600,15.553187744140626,0.03728840490877628,0.005130982809196575,0.005216035881545395
1773790257928151600,15.573151611328125,0.035792028871178626,-0.011971106482192408,0.008797547630127519
1773790257948114700,15.59311474609375,0.03938157779574394,0.007341585801308974,0.0036702494779601693
1773790257968078600,15.61307861328125,0.04910860656201839,-0.009191211706388275,0.0037808519792743027
1773790257988041700,15.633041748046875,0.049259997731447215,-0.0035547304854000685,0.004426858265232294
1773790258008005600,15.653005615234376,0.045669864284992215,-0.007395320715964771,0.011099431364331393
1773790258027968800,15.67296875,0.04477086961865425,-0.011187611971283332,0.012210150818899273
1773790258047932700,15.6929326171875,0.03758943368196487,-0.006509110182675067,0.006912574133742601
1773790258067895600,15.7128955078125,0.05764087258577347,0.0012547050627312274,0.0052507966676726935
1773790258087859700,15.732859619140624,0.028311902248859405,-0.006762824078017729,0.0069125010685063895
1773790258107822600,15.752822509765625,0.045072482913732524,-0.003944324028852861,0.010122914482373744
1773790258127786800,15.772786865234375,0.03624444881379604,-0.004642921872684383,-0.005009261263068765
1773790258147749600,15.79274951171875,0.03639291737377643,0.009244279329941492,0.002240253207460046
1773790258167713500,15.812713623046875,0.04252747460603714,-0.0016975575978656705,0.006611801088880747
1773790258187676700,15.8326767578125,0.04746434648633003,-0.004482166651166335,0.005637293500918895
1773790258207640600,15.852640625,0.05988192951083183,-0.004879650383896659,0.009673983404785393
1773790258227603700,15.872603759765624,0.03414309262037277,0.0065743528720340685,0.001194306084793061
1773790258247567600,15.892567626953126,0.03488894255161285,0.0111257211496355,0.004028652727883309
1773790258267531500,15.912531494140625,0.030551790130138395,-0.001413771078778518,-0.002529226216673851
1773790258287494700,15.93249462890625,0.03489069611728191,-0.009123279303021262,0.018727405492123216
1773790258307457500,15.95245751953125,0.04446691823601723,0.006749268764234147,0.006791030113305896
1773790258327421700,15.972421630859374,0.028154665860533713,-0.0036734195388140505,0.0025497940806671975
1773790258347385600,15.992385498046875,0.04670972872674465,-0.0017024956376480984,0.000025682430528104303
1773790258367348700,16.0123486328125,0.041920740884542465,-0.005084456236750702,0.001548161023762077
1773790258387312600,16.032312744140626,0.037433366337418554,-0.0067984171228512415,0.008934015225060283
1773790258407275800,16.05227587890625,0.04267068246901035,-0.0012710512687503068,-0.000937974969856441
1773790258427239700,16.07223974609375,0.048505379971861835,0.0055646164237754415,0.0013572415615431964
1773790258447202600,16.09220263671875,0.030996611288189885,-0.010392885963595472,0.009514536793064325
1773790258467166700,16.112166748046874,0.04536182124912738,0.00025188833472893746,0.002782324194908142
1773790258487129600,16.132129638671874,0.052094344374537464,-0.00010392345395011943,0.0033089784175157544
1773790258507093800,16.15209375,0.03189151430130005,0.004892526990134502,-0.003199070035945624
1773790258527056600,16.172056640625,0.035033903980255125,-0.0011485729551466647,0.00908852993333712
1773790258547020800,16.192020751953127,0.036977439263463016,-0.0007001421318269421,0.0026097258406691253
1773790258566983700,16.211983642578126,0.04341010265946388,-0.003655156369283213,0.01304035456534475
1773790258586947600,16.231947509765625,0.03607552198767662,-0.010242043925082543,0.004647369148116558
1773790258606910700,16.25191064453125,0.02694879720211029,0.0016161048435722476,-0.003499148961063474
1773790258626874600,16.27187451171875,0.04236088586747646,-0.011798457895603496,-0.0018393259900622069
1773790258646837800,16.291837646484375,0.04206161065995693,0.0035225315491174115,0.00041022476870566606
1773790258666801700,16.3118017578125,0.0443067592382431,-0.005800798087360453,0.006063044632319361
1773790258686764800,16.331764892578125,0.04490589417517185,0.0021333571971226773,0.016513912427425382
1773790258706728700,16.351728759765624,0.039218496188521385,-0.012213024337642127,0.0021984050934202967
1773790258726691800,16.37169189453125,0.04520283129513263,0.00014966300534579203,-0.0007096278403885662
1773790258746655700,16.39165576171875,0.03577390869259834,-0.008431388048722874,0.011510587714798747
1773790258766618600,16.41161865234375,0.04729483513832092,-0.013171982730022864,-0.0005409750089049339
1773790258786582800,16.431582763671877,0.03562134847939014,-0.0017225060938042588,-0.0031573132534511387
1773790258806545700,16.451545654296876,0.03262859640419483,-0.002568772775772959,-0.000899542655609548
1773790258826509800,16.471509765625,0.03891337576210498,-0.0005008766074846789,0.004472615369409323
1773790258846472700,16.49147265625,0.046993221843242644,-0.005864234695411869,0.006177848384715617
1773790258866436600,16.5114365234375,0.03696691786944866,0.0010377740910102148,0.0005108903978951275
1773790258888895700,16.533895751953125,0.033974165794253344,-0.006424586262466618,0.009654785513971
1773790258908859600,16.553859619140624,0.03083002254962921,0.004271760176710086,0.010040515162236988
1773790258928822800,16.57382275390625,0.028436989933252332,-0.01302190216826857,0.008766549703665078
1773790258948786700,16.59378662109375,0.031280104404687877,0.008036191885790321,0.005923800558410584
1773790258968749800,16.613749755859374,0.045943420529365536,-0.0018132806593472194,0.01750915227616206
1773790258988713700,16.633713623046877,0.034869068807363506,-0.009263781468966044,0.002642148539237678
1773790259008676900,16.6536767578125,0.03801145848631859,0.0031733733348635724,0.0033878340736962853
1773790259028640800,16.673640869140623,0.04699029923379421,0.006631722782191355,-0.013710454112943261
1773790259048603600,16.693603759765626,0.04684007710814476,-0.004359459865993995,0.005907415679190307
1773790259068567800,16.71356787109375,0.040405075624585146,-0.003645939874721807,0.0002475632865913212
1773790259088530700,16.73353076171875,0.03501929093301296,-0.005108953069656854,0.0033387707675807178
1773790259108494800,16.753494873046876,0.03142798844277859,-0.005625539131043479,-0.0019117884380742906
1773790259128457700,16.773457763671875,0.050880292409658426,-0.004944547725850134,0.004281695907190442
1773790259148422000,16.793421875,0.03606500059366226,0.00696511945502134,0.0005944404955022036
1773790259168384800,16.813384765625,0.046989130190014834,-0.004771599172217247,0.0008491093763150274
1773790259188348700,16.8333486328125,0.03202595433592796,0.0012428409522959555,-0.0014249547692015765
1773790259208311800,16.853311767578123,0.04085632652342319,-0.010462915567570598,0.005215579223819077
1773790259228275700,16.873275634765626,0.04025777610838413,0.005286696814827155,0.004165686578396707
1773790259248238800,16.89323876953125,0.03457096264362335,-0.0011427020492526935,0.0074945022075437
1773790259268201500,16.913201416015625,0.04863631287515163,0.0022537044889053503,0.01290640772106126
1773790259288165600,16.93316552734375,0.03965981021523476,-0.0033491009361721804,0.015517558333836496
1773790259308128500,16.95312841796875,0.045646483409404755,-0.00254400908350799,0.0031863932174630463
1773790259328092700,16.9730927734375,0.021406945165991783,-0.0005078038197818387,0.00395885716099292
1773790259348055600,16.9930556640625,0.03667114979326725,-0.0019159915443284262,-0.008213646794948726
1773790259368019500,17.01301953125,0.04070961152911186,-0.0018310751838864234,0.0053551520912908015
1773790259387982600,17.032982666015624,0.03996083898842334,-0.002504739658566541,-0.004330740946996957
1773790259407946500,17.052946533203126,0.03337678442299366,0.009384196973996586,0.013326879889145493
1773790259427909400,17.072909423828126,0.048339375755190844,-0.011245083487784722,-0.0015729849377647041
1773790259447873300,17.092873291015625,0.0407078579634428,-0.01452239497526898,0.0011122172919102013
1773790259467836400,17.11283642578125,0.04115560173094272,0.0024002789182603007,-0.0028695823532529172
1773790259487800300,17.13280029296875,0.0447469042211771,-0.0012801087893407385,0.008796762178838253
1773790259507763500,17.152763427734374,0.042055180919170376,0.0024337670563865685,0.004968107268773019
1773790259527727400,17.172727294921874,0.04085866461098194,0.005724330751088564,0.0016556582525372504
1773790259547690500,17.1926904296875,0.034573885253071784,-0.004489481451708707,0.0014861103719100354
1773790259567654400,17.212654296875,0.03801379657387733,-0.01480282163513475,-0.005734251069370657
1773790259587617300,17.2326171875,0.028436405411362647,-0.006220201105542947,0.011060761588066816
1773790259607581400,17.25258154296875,0.041453123372793194,0.0020315868843521455,-0.0030544921997934576
1773790259627544300,17.27254443359375,0.05073065480589866,0.003634522860741708,0.023133239235635844
1773790259647508500,17.292508544921876,0.03965864117145538,-0.0040143236646646985,0.0058604347323067485
1773790259667471400,17.312471435546875,0.041752398580312725,-0.003706744992625317,0.006808054313343018
1773790259687435300,17.332435302734375,0.03965864117145538,0.008425289384787902,0.002704491452034563
1773790259707398400,17.3523984375,0.030679215902090072,-0.00425199260538211,0.0038141331943683326
1773790259727362300,17.3723623046875,0.03172843269407749,0.007429507255001226,-0.006162395087257027
1773790259747325400,17.392325439453124,0.04250467825233936,0.008205816256586694,0.011364895633794366
1773790259767289300,17.412289306640623,0.04385141668617725,0.00008415702426646021,0.01482082650763914
1773790259787252500,17.43225244140625,0.04893967973589897,0.004673036166446399,0.0032756606698036194
1773790259807216400,17.45221630859375,0.0462456183463335,0.00525534155369387,0.001930456605926156
1773790259827179500,17.472179443359376,0.052529228660464285,0.0006574543383929267,0.009493384407181293
1773790259847143400,17.492143310546876,0.03696808691322803,0.005980804571564659,0.0040484899395145475
1773790259867106600,17.5121064453125,0.048339375755190844,-0.006019309380225604,0.011580401547998189
1773790259887070500,17.532070556640626,0.051182490226626395,0.0035121617083859746,0.007248802084475755
1773790259907033300,17.552033447265625,0.04265373133420944,-0.003259714752822765,0.008878156851977109
1773790259926997500,17.57199755859375,0.04744213465452194,0.0009220456780709355,0.0012208835644647478
1773790259946960400,17.59196044921875,0.04938625445961952,-0.0015362121462363573,-0.0033376747890375555
1773790259966924500,17.611924560546875,0.03277472687661648,-0.010333856102603022,-0.0008498948276042938
1773790259986887400,17.631887451171874,0.04788870937824249,-0.010960302596498514,0.0021223076499067247
1773790260006851300,17.651851318359373,0.04803834698200225,-0.004342739343344874,0.0020998400897718965
1773790260026814500,17.671814453125,0.05163140303790569,-0.005305374115833547,0.012651903237029909
1773790260046778400,17.6917783203125,0.044299160453677176,-0.006503341453947359,0.0053179070871323345
1773790260066741500,17.711741455078126,0.04295300654172897,-0.0037464234116428995,0.001385572606883943
1773790260086705400,17.731705322265626,0.04549743032753467,-0.0007240007142077956,0.006426672046631574
1773790260106668300,17.751668212890625,0.04385024764239788,-0.0029918972690138614,-0.003375504315085709
1773790260126632400,17.771632568359376,0.03801321205198765,0.007368284295278135,0.0037305100315250454
1773790260146595300,17.79159521484375,0.03801204300820827,0.006529010184743674,0.004842471595108509
1773790260166559500,17.8115595703125,0.03217851454913616,-0.004910354336947784,0.0014011172358877955
1773790260186522400,17.8315224609375,0.04938450089395046,0.004913720475212904,0.0022854988549835978
1773790260206486500,17.851486572265625,0.043398996743559834,-0.0014989963967134826,0.011120857744850218
1773790260226449200,17.87144921875,0.04609364265501499,-0.008275903513599768,0.003578625671751797
1773790260246413600,17.89141357421875,0.04384966312050819,-0.0053750503808929345,0.003677629066817462
1773790260266376200,17.911376220703126,0.04549392319619655,-0.006192497964575886,-0.00040083588585257526
1773790260286340400,17.93134033203125,0.05222469275593757,-0.00420778613959701,0.0028982421921566128
1773790260306303200,17.95130322265625,0.03202127816081047,-0.0011045568585512228,-0.000550217761285603
1773790260326267100,17.97126708984375,0.04309387631714344,0.0007103445789605757,-0.0012425839396193624
1773790260346230300,17.991230224609374,0.03785714470744133,-0.000446704621437857,0.010529577320814132
1773790260366194200,18.011194091796874,0.0371089566886425,0.0007261831100229756,0.00709545641997829
1773790260386157300,18.0311572265625,0.03800736683309078,-0.003438465713690675,0.012880433029588311
1773790260406121200,18.051121337890624,0.03411737365722656,-0.0001584757859360252,-0.004812131255771964
1773790260426084900,18.0710849609375,0.03232172241210937,0.0007951699646211636,-0.004638710917625576
1773790260446048800,18.091048828125,0.04803367080688476,-0.0022751497065553847,-0.004957732005231082
1773790260466011600,18.11101171875,0.04204933570027351,-0.007493833203974645,-0.005162259867694229
1773790260485975800,18.130975830078125,0.04444529092609882,-0.010135641533206216,-0.007673676433041691
1773790260505938700,18.150938720703124,0.030825930896401402,-0.003087716903493856,0.004449252760130912
1773790260525902800,18.17090283203125,0.046238604083657264,-0.0013840323859963973,0.00862014523660764
1773790260545865700,18.19086572265625,0.034717093116045,-0.005603021909380913,-0.0002345211419276893
1773790260565829600,18.21082958984375,0.054019759479165076,-0.009064314515754813,-0.006920867038052529
1773790260585792800,18.230792724609376,0.0444417837947607,-0.007751148987133637,0.011677359116449952
1773790260605756700,18.250756591796875,0.043244682964682576,0.006466798561043105,0.0072172927013598375
1773790260625719800,18.2707197265625,0.03202127816081047,0.0017484426828981666,0.0121701658683829
1773790260645683700,18.29068359375,0.03696107265055179,0.004877719292536494,0.009385923711024225
1773790260665646800,18.310646728515625,0.0490823030769825,0.0022782334305578842,0.005917918806895613
1773790260685610800,18.33061083984375,0.039056583625078196,-0.007886304832747555,0.0020047822174616156
1773790260705574000,18.350573974609375,0.044293899756669995,-0.01591832115445286,0.00726659346949309
1773790260725537800,18.370537841796875,0.03621405367553234,-0.0005416327387363708,-0.002652048878744244
1773790260745501000,18.3905009765625,0.04294833036661148,0.0002775936159815501,0.0025635668776929376
1773790260765464800,18.41046484375,0.03860825533568859,0.00820106187883357,0.008717121071368456
1773790260785427700,18.430427734375,0.0372615169018507,-0.00294891521675745,-0.000846588625665754
1773790260805392000,18.450391845703123,0.03920388314127922,-0.010834887260186951,0.00020081980172544716
1773790260825354800,18.470354736328126,0.04414367763102054,-0.0008942081084856909,0.008182648868486285
1773790260845319000,18.49031884765625,0.04384790955483913,-0.007830590877670329,0.005001151021849364
1773790260865281800,18.51028173828125,0.033522330373525616,0.006496263259189436,0.026116876422613858
1773790260885245000,18.530244873046875,0.04160451454222202,-0.0039143952522921605,0.017034209974482656
1773790260905208800,18.550208740234375,0.0408557420015335,-0.0018309046507667516,0.0057121123027987775
1773790260925171700,18.570171630859374,0.046393502384424204,0.0071281890749785816,0.011313019316084682
1773790260945135900,18.590135986328125,0.033526422026753426,-0.0031255592730405624,0.004940543408412486
1773790260965098500,18.610098388671876,0.05118541283607483,-0.0014229748725469106,0.007091456098295748
1773790260985063000,18.63006298828125,0.03442600121498108,-0.0018164325965975875,0.0005104520064778625
1773790261005025500,18.650025634765626,0.04041325893104076,0.0043654081182903605,0.011936064851563424
1773790261024990000,18.669989990234374,0.046847091370821,0.00043615004838557067,0.009097316027991473
1773790261044952600,18.68995263671875,0.04969079036414623,0.0005870259437877394,0.00040489100646227597
1773790261064916700,18.709916748046876,0.046698622810840605,0.0017771984199243887,0.006064359806571155
1773790261084879600,18.729879638671875,0.04684884493649005,-0.004741150662081781,0.0007830584027804434
1773790261104843500,18.749843505859374,0.0381722020059824,-0.000702725458855275,0.015144030580017715
1773790261124806700,18.769806640625,0.040268882024288175,0.0012074295716141931,0.00547307938253507
1773790261144770600,18.7897705078125,0.042212417307496065,-0.012932841353549156,0.012603935909457504
1773790261164733700,18.809733642578124,0.04400865307450294,0.004233919805040932,-0.0008817512705922127
1773790261184697600,18.829697509765627,0.038025487011671064,-0.0027174770853045627,-0.002798325481638312
1773790261204660700,18.84966064453125,0.04056932627558708,0.0061148861298774134,0.008405242110602557
1773790261224624600,18.869624755859373,0.033387890338897705,-0.0001413600046189458,0.0062326838444918395
1773790261244587800,18.889587890625,0.04147007450759411,-0.000050480015358698435,-0.0011846249409951269
1773790261264551700,18.9095517578125,0.03623392741978168,-0.007221559026167961,0.010874573099892586
1773790261284514600,18.9295146484375,0.04476502439975738,0.005147643966341275,0.001935607705079019
1773790261304478700,18.949478759765626,0.034141339054703713,0.0030072004402449237,-0.008129201648198067
1773790261324441600,18.969441650390625,0.04252162938714027,0.003250181166552647,0.0002279087380506098
1773790261344405800,18.98940576171875,0.044018005424737924,0.010581750466045923,0.00576654590377584
1773790261364368600,19.00936865234375,0.034141923576593396,0.0011789685215269855,-0.007258519760891795
1773790261384332500,19.02933251953125,0.04312017980217933,-0.001092536628255766,-0.0006870872150175273
1773790261404295700,19.049295654296873,0.044915831047296524,-0.0041824644686726965,0.011137571417633444
1773790261424259300,19.06925927734375,0.030400983482599255,-0.004734233439172385,0.0021570867023430764
1773790261444222500,19.089222412109375,0.035490415576100345,0.003344924515853927,0.004924925714172423
1773790261464186400,19.109186279296875,0.044319618719816205,-0.011513656454719603,0.007881291301734745
1773790261484149500,19.1291494140625,0.041326866644620895,-0.0023380952648454694,0.013868366354703902
1773790261504113400,19.149113525390625,0.04416939659416675,-0.00581771782694268,0.0048969782613217825
1773790261524076500,19.16907666015625,0.03758592655062675,-0.005023446193692507,-0.00007757701454684137
1773790261544039200,19.1890390625,0.04716390223503113,-0.00858613393997366,0.005106218831520527
1773790261564003600,19.209003662109374,0.03923194019198417,-0.0026194343839306385,0.0033837424204684794
1773790261583966200,19.22896630859375,0.04148001137971878,-0.00414631886799034,-0.009528693182580173
1773790261603930000,19.24893017578125,0.03729074299633503,-0.00420063916076906,0.007043196509778499
1773790261623893200,19.268893310546876,0.030106968972086905,0.0005980159827937313,0.005293338901456445
1773790261643857200,19.288857177734375,0.050904842329025264,0.00204248944486244,0.010047858218476176
1773790261663820300,19.3088203125,0.04282265816032886,-0.001837814310282556,0.00010764335924759506
1773790261683784200,19.3287841796875,0.035492169141769406,0.0005682603080524131,0.003909939985349774
1773790261703747300,19.348747314453124,0.03983165965080261,0.0027918129716388647,0.006149626937229186
1773790261723711200,19.368711181640624,0.03429331474602222,-0.0017603380458465834,-0.01200922141931951
1773790261743674400,19.38867431640625,0.039081133544445035,-0.0032804492968862174,0.005545304368529468
1773790261763638300,19.40863818359375,0.03923135567009449,-0.006257310254027834,0.003413973161950707
1773790261783601400,19.428601318359377,0.03698503804802895,-0.00029698207220571927,0.0009654292323626577
1773790261803565300,19.4485654296875,0.03264379397332668,-0.006430602157188696,-0.007448580706585198
1773790261823528200,19.468528076171875,0.04820493572056293,-0.002205612579396984,-0.0042650005007162685
1773790261843492400,19.488492431640626,0.03563537700474262,-0.00579256626102142,0.009064783731568604
1773790261863455200,19.508455322265625,0.03339022842645645,-0.0008794410106136638,0.0008617861947976053
1773790261883419400,19.52841943359375,0.03683247783482074,0.001380587902390107,0.010255710549186914
1773790261903382300,19.54838232421875,0.034437691652774806,0.005593875625944929,0.012228526725806295
1773790261923346200,19.56834619140625,0.041319267860054965,0.005278119070260436,0.004705602141376585
1773790261943309300,19.588309326171874,0.05194119963943958,-0.010233739604329457,-0.002634933347161859
1773790261963273200,19.608273193359373,0.031440263402462004,-0.008042645030285348,0.008180475177709012
1773790261983236400,19.628236328125,0.03967033160924911,0.004138740918433177,-0.0017190971438772976
1773790262003200300,19.6482001953125,0.04041735058426857,0.005072752670047339,0.004780512274801731
1773790262023163400,19.668163330078126,0.044157706156373024,-0.0026159546520560977,0.0024386801226995883
1773790262043127300,19.688127197265626,0.04296177437007427,0.011299914380983682,0.011480740565806627
1773790262063090400,19.70809033203125,0.04101765456497669,0.003538878754075267,-0.009669855218939483
1773790262083053300,19.72805322265625,0.029944471886754035,-0.0019703189723841203,0.00661627633459866
1773790262103017200,19.748017333984375,0.04595686453282833,0.010859745423519052,0.0031199586514383554
1773790262122980400,19.76798046875,0.04685352111160755,-0.010908224207744933,0.007386676185205578
1773790262142944300,19.7879443359375,0.04266483725011348,0.00020474834252163417,0.004020505954045802
1773790262162907400,19.807907470703125,0.023811083698272704,-0.012145496076362906,0.007436744138319045
1773790262182871300,19.827871337890624,0.043863107123970985,-0.0024000240461667997,0.004707757565844804
1773790262202834400,19.84783447265625,0.036978608307242394,-0.00602874849542859,0.0035791553947143256
1773790262222798300,19.86779833984375,0.035330256578326225,0.0025411481228526096,0.00880673558358103
1773790262242761500,19.887761474609373,0.03323474560379982,-0.0063937184834561775,0.01900618590088561
1773790262262725400,19.907725341796876,0.03054068421423435,0.009511517714671208,-0.0005480806031264364
1773790262282688300,19.927688232421875,0.03742167589962482,-0.0022992579522775483,0.001508797127753496
1773790262302652400,19.94765234375,0.049992988181114195,0.004990441256522899,-0.006821059925388544
1773790262322615300,19.967615234375,0.030091186881065365,-0.0047706850005313755,0.003055716042499989
1773790262342579500,19.987579345703125,0.04221066374182701,-0.004032464107431587,-0.0016682437394745647
1773790262362542300,20.007542236328124,0.034281039786338806,0.00015044645875750574,-0.001435494429524988
1773790262382506500,20.027506591796875,0.03278524827063083,0.00886644129800843,0.012026026423647999
1773790262402469400,20.047469482421874,0.02829553563594818,0.0037082787917635867,0.017423739015031605
1773790262422434000,20.06743408203125,0.052386605319380754,-0.002029300456198689,0.0029596535231918093
1773790262442397200,20.087397216796877,0.028592472755908965,0.003207971436675871,-0.007412449947278946
1773790262462361000,20.107361083984376,0.029641105026006698,-0.009692927850561682,-0.0046522097200155255
1773790262482324200,20.12732421875,0.03622574411332607,0.013786078915710095,-0.006910601372364908
1773790262502287000,20.147287109375,0.04266133011877536,0.002257499029199971,0.018904205097444355
1773790262522251000,20.1672509765625,0.040864509829878805,-0.0047321128348557975,0.003240845084749162
1773790262542214100,20.187214111328124,0.041163785037398336,0.0038692814646870827,0.013887052788864821
1773790262562178000,20.207177978515624,0.037272622817754744,-0.0024772551424859556,0.004766228021122515
1773790262582141200,20.22714111328125,0.037272622817754744,-0.007005202016126713,-0.003153459062241018
1773790262602105000,20.24710498046875,0.046101825961470604,-0.004497248628811212,-0.006189575355127454
1773790262622068200,20.267068115234373,0.04730068035721779,0.00947319271499,0.0028598281442187724
1773790262642032000,20.2870322265625,0.04565525123775005,0.003440539510590315,-0.0013584654042497275
1773790262661995300,20.306995361328124,0.05957213290929794,-0.003098917005053954,0.0012870989347808061
1773790262681959200,20.326959228515626,0.03877016789913177,0.0008784727535283309,0.0102454814161174
1773790262701922300,20.34692236328125,0.029195114824175833,0.0028566055677263645,0.005823372391238808
1773790262721886200,20.36688623046875,0.04266308368444442,0.006106099464400904,0.0014408464580774306
1773790262741848800,20.386848876953124,0.04071721031367779,-0.011130482948076678,0.002677238118927926
1773790262761813200,20.406813232421875,0.04535714507400989,-0.0028996053154696708,0.008598864986561238
1773790262781776000,20.42677587890625,0.026353753918409346,0.0012806673388222405,-0.004162928365729749
1773790262801740300,20.446740234375,0.0437099623888731,-0.012721438509016298,0.008815393814072012
1773790262821703000,20.466702880859376,0.048798225438594814,0.007041599349380703,0.006957710183411836
1773790262841667000,20.4866669921875,0.03982230730056763,0.004278311502616271,-0.0006449651063419878
1773790262861630000,20.5066298828125,0.039970775860548015,-0.008548570987873245,-0.0071557352398522196
1773790262881593900,20.52659375,0.03159048552811146,0.0007720383956111617,0.012165197432320564
1773790262901557000,20.546556884765625,0.03967266969680786,-0.0066619289783207926,0.003114935416448861
1773790262921521000,20.56652099609375,0.04311491910517216,-0.0008416742036501091,0.0041057730847038326
1773790262941484000,20.586484130859375,0.05508475836217403,-0.003513350445529795,0.006284340966492891
1773790262961448000,20.606447998046875,0.045807226929068565,0.0030204871822032144,0.0011877302135340868
1773790262981411000,20.6264111328125,0.040269466546177864,-0.0034041022197852724,-0.0012904782019555567
1773790263001375000,20.646375,0.041915480187535284,0.004474008746296749,0.005296334576141089
1773790263021338000,20.666338134765624,0.04012099798619747,-0.006246848796340055,0.0053681394370272755
1773790263041302000,20.686302001953123,0.04146715189814568,0.001831068476726068,0.012590857232175767
1773790263061265000,20.706264892578126,0.045808395972847936,0.0031487968722663934,0.0020370770518667995
1773790263081229000,20.72622900390625,0.03817746270298958,-0.0007711105241935001,0.00572347394702956
1773790263101192000,20.74619189453125,0.04311491910517216,0.002510499254139722,0.007109996401984244
1773790263121156000,20.766156005859376,0.028897593182325362,-0.000562601105826252,0.0019602672223001717
1773790263141119000,20.786118896484375,0.0432610495775938,0.00021931836404364728,-0.005993322130665182
1773790263161083000,20.806082763671874,0.041914895665645595,-0.008163083368202205,0.0035301103549078105
1773790263181046000,20.8260458984375,0.04101823908686637,0.004982768265076447,0.0000301028773188591
1773790263201010000,20.846010009765624,0.030395722785592078,-0.00568764686511131,-0.006943772989604621
1773790263220973000,20.86597314453125,0.03323942177891731,0.00018995584306358068,-0.008498034960590303
1773790263240937000,20.88593701171875,0.04431318897902965,0.004358641592430649,0.003905903131049126
1773790263260900000,20.905900146484374,0.03623392741978168,-0.010795017615746473,0.0038289106383919713
1773790263280864000,20.925864013671877,0.05209492889642715,0.004301698371836391,-0.001220134645793587
1773790263300827100,20.9458271484375,0.043863107123970985,0.0084339812937862,0.0030835904301144182
1773790263320791000,20.965791015625,0.03443593808710575,-0.015555257712432649,0.00801277219429612
1773790263340754000,20.98575390625,0.04969897367060184,0.004365534269987256,0.0030572321461513636
1773790263360718000,21.005718017578126,0.045509705287218094,0.003794379893594305,0.010525522200204432
1773790263380681000,21.025680908203125,0.04116904573440552,0.009691971152625047,0.01536421266933903
1773790263400645000,21.04564501953125,0.03383621862828731,0.0038158793393493393,0.0026738223191350697
1773790263420608000,21.06560791015625,0.03847556886672973,0.012950122423557331,-0.006309913799166679
1773790263440572000,21.085572021484374,0.048500119274854654,-0.01406057587499963,0.005414060937985778
1773790263460535000,21.10553515625,0.04176525806188583,-0.00830697735940921,-0.013388126823399215
1773790263480499000,21.1254990234375,0.040269466546177864,0.006655026596787502,-0.00188221528371796
1773790263500462000,21.145462158203124,0.03772679632604122,-0.00029427644653005696,-0.000741794810630381
1773790263520426000,21.165426025390627,0.03712766138911247,-0.004131174670730251,0.008405041181202978
1773790263540389000,21.18538916015625,0.0426642527282238,-0.003954398754528665,0.003028535774629563
1773790263560353000,21.20535302734375,0.0431131655395031,-0.003057012950442731,0.00450925758536905
1773790263580316200,21.225316162109376,0.03548223226964473,-0.0015854711016465442,0.003737670424673706
1773790263600280000,21.245280029296875,0.01932137106359005,-0.013576918260613455,0.009566522708628325
1773790263620243200,21.2652431640625,0.059573886474967,-0.008898171589299455,-0.0037568317828699945
1773790263640207000,21.28520703125,0.041915480187535284,0.003878483117872383,0.0018433263117447495
1773790263660170000,21.305169921875,0.052090837243199344,-0.005350655725153046,-0.005487254038359969
1773790263680134100,21.325134033203124,0.051044543060660356,0.008359823503965162,0.005831939290184527
1773790263700097000,21.345096923828127,0.039970775860548015,-0.00029384547580084473,-0.002820445981901139
1773790263720061200,21.365061279296874,0.040420273193717,-0.004304841604048852,0.0032703269075602293
1773790263740024000,21.385024169921873,0.038025487011671064,0.00616456592392351,0.0022830511695705355
1773790263759988000,21.404988037109376,0.04176525806188583,0.006259007308303262,0.014299871373455971
1773790263779951000,21.424951171875,0.03607961364090442,0.016437289827526545,-0.00008451821198686957
1773790263799915000,21.4449150390625,0.037725627282261844,0.003154620970743417,0.02114749051220715
1773790263819878000,21.4648779296875,0.03428454691767693,0.003372829442453803,-0.010145181113108992
1773790263839842000,21.484842041015625,0.039669747087359424,-0.00031683961937633285,0.013883454325981438
1773790263859805000,21.504804931640624,0.049994741746783256,-0.0014899615663038275,-0.002859444551728666
1773790263879769000,21.52476904296875,0.04849895023107528,0.00019234209374189957,-0.0035040260655805466
1773790263899732000,21.54473193359375,0.027249241453409193,0.004267665954782569,0.0015185148041695355
1773790263919696100,21.564696044921874,0.04146306024491787,-0.0026311596418760017,0.012385671782586722
1773790263939660000,21.584659912109377,0.042809798678755756,-0.0025511917387208084,0.0026675752414390443
1773790263959623000,21.604622802734376,0.048045945766568184,0.0005265207215754344,0.007819441579282283
1773790263979587000,21.624587158203123,0.037871757754683495,-0.0027997259938027127,0.0010165383650921284
1773790263999550000,21.644550048828126,0.037573067069053646,-0.007331099798268405,0.012192322901263833
1773790264019514000,21.66451416015625,0.03353460533320904,-0.004605640906729968,0.006264576820097863
1773790264039477000,21.68447705078125,0.04894961660802364,0.003080080444665509,-0.0019511706003919242
1773790264059441200,21.704441162109376,0.027849545434117315,0.0002852329824352637,-0.006368311189208179
1773790264079403800,21.72440380859375,0.05283902526199817,0.01069770727920113,0.0008188421022146939
1773790264099368200,21.7443681640625,0.054334816777706144,-0.00639020792718511,0.008628401608299464
1773790264119330800,21.764330810546873,0.03772387371659278,0.0007525116398810496,0.014528163703996688
1773790264139295000,21.784294921875,0.03024082448482513,-0.00494044465617917,-0.007418258633557707
1773790264159257900,21.8042578125,0.048047699332237244,0.006757789997407235,0.009369447500258683
1773790264179221800,21.8242216796875,0.03921908071041107,-0.0027391877352580195,0.0032238208847120402
1773790264199185000,21.844184814453126,0.034878421157598496,0.00848282654583745,-0.0014848682628944515
1773790264219148800,21.864148681640625,0.052234629628062246,-0.0006518663462309632,-0.006645612026937305
1773790264239112000,21.88411181640625,0.03816869487464428,0.00474674272135162,-0.00021082973908632992
1773790264259075800,21.904075927734375,0.041757659277319906,0.007083161481519345,-0.0006809132025577128
1773790264279039000,21.9240390625,0.045351884377002716,-0.008308935279410798,0.005004402424860745
1773790264299003000,21.9440029296875,0.03712298521399498,0.003242004424551851,-0.0034342852976173162
1773790264318966000,21.963966064453125,0.05268471148312091,-0.0011565076685525128,0.013065361142437905
1773790264338930000,21.983929931640624,0.04190963496863842,-0.005468293038741103,-0.0017052330153062938
1773790264358892800,22.003892822265627,0.05148644160926342,-0.009967865484557114,-0.0018584508156403899
1773790264378857000,22.02385693359375,0.048344636452198025,-0.013724162977887316,0.0005096848214976489
1773790264398819800,22.04381982421875,0.03517535827755928,-0.0026820081942903924,-0.00242572930958122
1773790264418784000,22.063783935546876,0.0426554848998785,-0.011073221494129393,-0.000957775648869574
1773790264438746600,22.08374658203125,0.04998538939654827,-0.004984606312424876,0.0014017200240865348
1773790264458710800,22.103710693359375,0.044449382579326624,0.0008303211931044642,0.005429788230080157
1773790264478673700,22.123673583984374,0.03412321887612343,-0.004179738792868738,0.0010142185438424347
1773790264498637600,22.143637451171877,0.050883215019106864,-0.005428760179373784,0.008450816551689059
1773790264518600700,22.1636005859375,0.041156770774722094,0.0019684503860502444,0.010697079374827443
1773790264538564600,22.183564697265624,0.043401919353008266,0.0069541602404118745,0.0021209559430368243
1773790264558527700,22.20352783203125,0.04549743032753467,0.007573892153264023,0.0070446578145027154
1773790264578491600,22.22349169921875,0.03801613466143608,-0.00007951753339170864,-0.013038874994311481
1773790264598455600,22.24345556640625,0.026791560813784598,-0.012064784106524893,0.0054469585605897005
1773790264618418700,22.263418701171876,0.03891103767454624,-0.006896621366895851,0.006413465505186468
1773790264638382600,22.283382568359375,0.03666705814003944,-0.009313235217437613,-0.0012468034570105374
1773790264658345700,22.303345703125,0.03172726365029812,-0.005919272226231987,0.012929386737849562
1773790264678309600,22.3233095703125,0.04803893150389194,0.0005116589029015813,-0.004518719533458352
1773790264698272800,22.343272705078125,0.03606733868122101,-0.008708161446778103,0.010791114333830773
1773790264718236700,22.363236572265624,0.04205108926594257,0.0016187634477726532,0.009697802671790122
1773790264738199800,22.38319970703125,0.042349195429682726,-0.010510475328122265,0.015291896351799368
1773790264758163700,22.403163818359374,0.037860651838779444,-0.0028816247029069928,0.008250033282581717
1773790264778126600,22.423126708984373,0.03441957147419453,-0.004700982192241645,0.01269720368348062
1773790264798090800,22.4430908203125,0.03082826898396015,0.0022930050236544047,0.000859813433419913
1773790264818053600,22.4630537109375,0.04549100058674812,0.0025843944657681275,-0.00037221257956698535
1773790264838017800,22.483017822265627,0.042647886115312575,-0.005422039319286705,-0.0015828670109622179
1773790264857980700,22.502980712890626,0.04668751689493656,0.0024221953496016795,0.00039336496545001865
1773790264877944800,22.52294482421875,0.04444412188231945,0.002624366858197027,0.007680763760954141
1773790264897907700,22.54290771484375,0.043994040027260775,0.0062156841898075065,0.008472334263753146
1773790264917871600,22.56287158203125,0.035762802776694295,-0.001489617788659234,0.006298533888626843
1773790264937834800,22.582834716796874,0.03292085734903812,-0.006003607204306172,0.008168620343133808
1773790264957798700,22.602798583984374,0.039355274310708045,-0.0019676192689883462,0.006091704471223056
1773790264977761800,22.62276171875,0.040702012744545935,-0.005419937552101328,0.010890702250786125
1773790264997725700,22.6427255859375,0.03950257382690906,-0.0032399885661012376,0.006959098422899842
1773790265017689600,22.662689697265623,0.045187633726000785,-0.00137838024769444,-0.0016476941417902706
1773790265037652700,22.68265283203125,0.03516249879598617,-0.005276015019786427,0.01689706652611494
1773790265057616600,22.70261669921875,0.03262041309773922,0.00035187500663796527,-0.0011800948963500558
1773790265077579800,22.722579833984376,0.03501519927978516,0.006916468282503774,0.0026763613360933957
1773790265097543700,22.742543701171876,0.03785772922933101,-0.0053027563254174305,0.01736786237563938
1773790265117506800,22.7625068359375,0.03845569512248039,-0.006923469416270382,0.001406432731822133
1773790265137470700,22.782470703125,0.04009995519816875,0.0002129999335778848,-0.00014803016856312752
1773790265157433900,22.802433837890625,0.03785656018555164,-0.008163912201975472,0.016259152215067296
1773790265177397800,22.822397705078124,0.0384551106005907,0.0068335580765357005,0.008626812439411878
1773790265197360600,22.842360595703123,0.028128946897387503,-0.001266489971592091,0.0004399988524615764
1773790265217324800,22.86232470703125,0.04533610228598117,-0.008740302730022813,0.00649043973153457
1773790265237287700,22.88228759765625,0.050424365335702895,0.0037140129857507415,0.0004822670916095376
1773790265257251800,22.902251953125,0.04728372922241687,-0.0036943966822946092,-0.00020869258092716335
1773790265277214700,22.922214599609376,0.0414484471976757,-0.002479608071420807,-0.0051715574190020555
1773790265297178600,22.9421787109375,0.03561082708537578,-0.00045230952420624815,0.0038838556960225103
1773790265317141800,22.962141845703126,0.03097147684693336,-0.00531306309030042,0.007529865781869739
1773790265337105700,22.982105712890625,0.044587914267182345,0.008012217355158646,0.005314893146138638
1773790265357068800,23.00206884765625,0.03680734339356422,-0.005941889912594343,0.010678648668993264
1773790265377032700,23.02203271484375,0.04428980810344219,-0.006156906061386689,-0.004617814260069281
1773790265396995800,23.041995849609375,0.0472825601786375,0.00135895331448919,0.009747085173614323
1773790265416959700,23.061959716796874,0.03695522743165493,0.0013466939097095745,0.008362626811582594
1773790265436923400,23.08192333984375,0.041593993148207664,-0.008239818990888307,0.007178513327240944
1773790265456886500,23.101886474609376,0.04039572327435016,-0.01001662511328468,0.0005037117384374142
1773790265476850400,23.121850341796875,0.04084580512940884,0.001892304993475409,0.012565978519245981
1773790265496813600,23.1418134765625,0.03949906669557094,-0.008768327243864768,0.011217358655575662
1773790265516777500,23.161777587890626,0.04997369895875454,-0.00446720911275188,0.0037415063495747744
1773790265536740600,23.18174072265625,0.0427905094563961,-0.0003764289574362919,0.005853383937012404
1773790265556704500,23.20170458984375,0.039349429091811175,0.003010164719710883,0.01584101813454181
1773790265576667600,23.221667724609375,0.035309798312187196,0.000802882271443741,-0.006939480406977236
1773790265596631600,23.241631591796875,0.042940147060155864,-0.002856292757183837,0.0024183679870329795
1773790265616594400,23.261594482421874,0.026628479206562042,0.009038306716596707,0.007113649663794785
1773790265636558600,23.28155859375,0.040247254714369775,0.000974338339192036,0.004773680675216019
1773790265656521500,23.301521484375,0.038002106136083603,0.006115013994040782,0.002422514439187944
1773790265676485600,23.321485595703123,0.032165655067563054,-0.0006909515383209508,0.01216726152524352
1773790265696448500,23.341448486328126,0.03815057469606399,-0.001455929149250005,0.003088558866176754
1773790265716412700,23.36141259765625,0.03515723809897899,0.0007040529771362344,0.0028034400481730696
1773790265736375600,23.38137548828125,0.04458499165773391,0.003362933384113421,0.014590780611429363
1773790265756339500,23.40133935546875,0.03351122445762157,-0.004263975874942844,0.012994926254730671
1773790265776303600,23.4213037109375,0.040244332104921336,-0.0039604360550816635,0.005828012033738196
1773790265796266500,23.4412666015625,0.03545592878460884,0.0011982730133793665,0.002397800123039633
1773790265816230700,23.461230712890625,0.04203998335003853,0.0007370036148480722,-0.0040472843631170685
1773790265836193500,23.481193603515624,0.050718964368104934,-0.0016985161509743192,-0.0035859869943000375
1773790265856157400,23.501157470703124,0.04727788400352001,0.00042506150688095655,0.0019059797517955303
1773790265876120600,23.52112060546875,0.027972879552841185,0.00384537914305838,0.0125083848468028
1773790265896084500,23.54108447265625,0.03590367255210876,0.0058797416501533,0.008611669669207185
1773790265916047600,23.561047607421877,0.036353754407167434,-0.0062487650463241146,0.01017385921832174
1773790265936011500,23.581011474609376,0.047725627771019935,-0.010542062343051656,-0.0013138773438520729
1773790265955974700,23.600974609375,0.03186521081626415,-0.0003213257107152458,0.006721234546415507
1773790265975938600,23.6209384765625,0.03785129948854446,-0.00830256661659514,-0.006050678341090679
1773790265995901700,23.640901611328125,0.03755202428102493,-0.006146769401506753,0.0039684652395546435
1773790266015865600,23.660865478515625,0.044134909802675246,-0.009533993837138405,0.006304616569541394
1773790266035828500,23.680828369140624,0.05116846170127391,-0.003374505376309389,0.012677750064339488
