time,seconds_elapsed,z,y,x
1773790242403955500,0.04895556640625,-0.9946136474609375,0.000640869140625,-0.016357421875
1773790242423918300,0.06891845703125,-0.9956512451171875,-0.0002593994140625,-0.0168304443359375
1773790242443882500,0.088882568359375,-0.9957733154296875,-0.0001220703125,-0.0163726806640625
1773790242463846400,0.108846435546875,-0.994293212890625,-0.0008544921875,-0.0175323486328125
1773790242483809500,0.1288095703125,-0.9965667724609375,-0.0004119873046875,-0.01690673828125
1773790242503773400,0.1487734375,-0.996826171875,0.0002899169921875,-0.01654052734375
1773790242523737300,0.1687373046875,-0.995208740234375,-0.000152587890625,-0.0174102783203125
1773790242543700500,0.188700439453125,-0.996246337890625,0.0002288818359375,-0.0169525146484375
1773790242563664400,0.208664306640625,-0.9955596923828125,-0.0003814697265625,-0.017578125
1773790242583628500,0.228628662109375,-0.9951324462890625,-0.0002593994140625,-0.0165252685546875
1773790242603592400,0.248592529296875,-0.995513916015625,-0.0000457763671875,-0.0166473388671875
1773790242623555300,0.268555419921875,-0.99566650390625,0.0010528564453125,-0.0171051025390625
1773790242643519500,0.28851953125,-0.9965057373046875,-0.0003814697265625,-0.0168609619140625
1773790242663483400,0.3084833984375,-0.9951934814453125,-0.0015869140625,-0.01690673828125
1773790242683446500,0.328446533203125,-0.99481201171875,-0.0005340576171875,-0.0171051025390625
1773790242703410400,0.348410400390625,-0.9953155517578125,-0.0006256103515625,-0.0159454345703125
1773790242723374300,0.368374267578125,-0.9969482421875,0.000335693359375,-0.017364501953125
1773790242743337500,0.38833740234375,-0.995758056640625,0.000244140625,-0.016510009765625
1773790242763301400,0.40830126953125,-0.9961090087890625,0.00091552734375,-0.016204833984375
1773790242783265300,0.428265380859375,-0.995025634765625,0.000579833984375,-0.0164642333984375
1773790242803229400,0.4482294921875,-0.994293212890625,0.000732421875,-0.0173797607421875
1773790242823192300,0.4681923828125,-0.9949951171875,0.0002593994140625,-0.017578125
1773790242843156200,0.48815625,-0.99615478515625,-0.0005950927734375,-0.0172882080078125
1773790242863120400,0.508120361328125,-0.9960174560546875,-0.0002593994140625,-0.017486572265625
1773790242883084300,0.528084228515625,-0.9966888427734375,-0.00048828125,-0.01611328125
1773790242903047400,0.54804736328125,-0.995697021484375,-0.0004730224609375,-0.0178985595703125
1773790242923011300,0.56801123046875,-0.996002197265625,0.0006256103515625,-0.017974853515625
1773790242942975200,0.587975341796875,-0.996917724609375,-0.0001373291015625,-0.0167388916015625
1773790242962938400,0.6079384765625,-0.9952239990234375,-0.0005645751953125,-0.0175933837890625
1773790242982902300,0.62790234375,-0.9954071044921875,0.000518798828125,-0.0156097412109375
1773790243002866200,0.6478662109375,-0.9957733154296875,0.000213623046875,-0.0165863037109375
1773790243022829300,0.667829345703125,-0.995330810546875,-0.0001220703125,-0.017059326171875
1773790243042793200,0.687793212890625,-0.995849609375,0.001129150390625,-0.0174713134765625
1773790243062757400,0.70775732421875,-0.9957427978515625,0.0005035400390625,-0.018310546875
1773790243082720300,0.72772021484375,-0.9958648681640625,0.0007171630859375,-0.0170440673828125
1773790243102684200,0.74768408203125,-0.9954833984375,-0.00030517578125,-0.0173797607421875
1773790243122648300,0.7676484375,-0.9973907470703125,0,-0.016632080078125
1773790243142612500,0.787612548828125,-0.995880126953125,0.000457763671875,-0.017974853515625
1773790243162575400,0.807575439453125,-0.99566650390625,-0.0014495849609375,-0.017578125
1773790243182539500,0.82753955078125,-0.9961090087890625,-0.000732421875,-0.0166778564453125
1773790243202503400,0.84750341796875,-0.99700927734375,-0.0004425048828125,-0.0163726806640625
1773790243222466600,0.867466552734375,-0.995758056640625,-0.0004425048828125,-0.017913818359375
1773790243242430500,0.887430419921875,-0.996246337890625,-0.0000152587890625,-0.0164642333984375
1773790243262394400,0.907394287109375,-0.9950408935546875,0.000335693359375,-0.017181396484375
1773790243282357500,0.927357421875,-0.996795654296875,-0.00006103515625,-0.016815185546875
1773790243302321400,0.9473212890625,-0.9959564208984375,0.0000762939453125,-0.01727294921875
1773790243322285300,0.967285400390625,-0.9960479736328125,-0.0002899169921875,-0.017059326171875
1773790243342248400,0.98724853515625,-0.995758056640625,-0.0004119873046875,-0.0181884765625
1773790243362212400,1.00721240234375,-0.9949493408203125,0.00042724609375,-0.016448974609375
1773790243382176500,1.027176513671875,-0.995758056640625,0.0000152587890625,-0.01641845703125
1773790243402139400,1.047139404296875,-0.9945831298828125,0.0003204345703125,-0.0187530517578125
1773790243422107100,1.067107177734375,-0.9964141845703125,-0.000030517578125,-0.0174713134765625
1773790243442071300,1.0870712890625,-0.9945526123046875,0,-0.01708984375
1773790243462035500,1.107035400390625,-0.996002197265625,-0.00079345703125,-0.0174560546875
1773790243481998000,1.126998046875,-0.9956207275390625,0.0003662109375,-0.017547607421875
1773790243501962500,1.14696240234375,-0.9957427978515625,0.00042724609375,-0.01739501953125
1773790243521926400,1.166926513671875,-0.9959564208984375,0.000030517578125,-0.0173797607421875
1773790243541889500,1.1868896484375,-0.9956207275390625,0.000030517578125,-0.0176239013671875
1773790243561853400,1.206853515625,-0.9947052001953125,-0.00079345703125,-0.017425537109375
1773790243581817300,1.2268173828125,-0.9964599609375,0.00018310546875,-0.0175933837890625
1773790243601780500,1.246780517578125,-0.9947509765625,0.00018310546875,-0.017242431640625
1773790243621744400,1.266744384765625,-0.99627685546875,-0.0002899169921875,-0.0161590576171875
1773790243641708300,1.286708251953125,-0.9961395263671875,0.000091552734375,-0.01751708984375
1773790243661671400,1.30667138671875,-0.9951171875,0.0002899169921875,-0.01776123046875
1773790243681635300,1.32663525390625,-0.9947967529296875,-0.0003204345703125,-0.0161285400390625
1773790243701599200,1.34659912109375,-0.9960174560546875,0.00006103515625,-0.01800537109375
1773790243721562400,1.366562255859375,-0.9964447021484375,0.000030517578125,-0.0166168212890625
1773790243741526300,1.3865263671875,-0.9962005615234375,-0.000885009765625,-0.0165252685546875
1773790243761490400,1.406490478515625,-0.9965057373046875,0.0003509521484375,-0.0171356201171875
1773790243781453300,1.426453369140625,-0.9955291748046875,0.0005035400390625,-0.0170440673828125
1773790243801417500,1.44641748046875,-0.9957122802734375,0.0005035400390625,-0.0173797607421875
1773790243821381400,1.46638134765625,-0.99578857421875,0.0004730224609375,-0.0175933837890625
1773790243841344300,1.48634423828125,-0.9951171875,-0.000213623046875,-0.0183563232421875
1773790243861308400,1.506308349609375,-0.9958648681640625,-0.0008544921875,-0.01611328125
1773790243881272300,1.526272216796875,-0.995574951171875,-0.0000152587890625,-0.0174102783203125
1773790243901235500,1.5462353515625,-0.9956817626953125,0,-0.0167083740234375
1773790243921199400,1.566199462890625,-0.9945220947265625,0.000274658203125,-0.0167236328125
1773790243941163300,1.586163330078125,-0.9960174560546875,0.0005950927734375,-0.017120361328125
1773790243961126400,1.60612646484375,-0.996368408203125,-0.0003814697265625,-0.0166778564453125
1773790243981090300,1.62609033203125,-0.9962615966796875,0.000579833984375,-0.0171356201171875
1773790244001054200,1.64605419921875,-0.9950103759765625,0.0008544921875,-0.017974853515625
1773790244021017300,1.666017333984375,-0.99615478515625,-0.0011444091796875,-0.016387939453125
1773790244040981200,1.685981201171875,-0.99517822265625,0.0006103515625,-0.017059326171875
1773790244060945200,1.705945068359375,-0.996002197265625,-0.0001220703125,-0.0177154541015625
1773790244080908300,1.725908203125,-0.995330810546875,-0.0003662109375,-0.017608642578125
1773790244100872200,1.7458720703125,-0.9965362548828125,-0.0003814697265625,-0.0162200927734375
1773790244120836400,1.76583642578125,-0.9954833984375,-0.0002899169921875,-0.0167388916015625
1773790244140800300,1.78580029296875,-0.9956512451171875,0.0011444091796875,-0.01593017578125
1773790244160763100,1.80576318359375,-0.994964599609375,0.0002593994140625,-0.0184173583984375
1773790244180727300,1.825727294921875,-0.9960784912109375,-0.000762939453125,-0.0174560546875
1773790244200691200,1.845691162109375,-0.99566650390625,-0.0005340576171875,-0.0174407958984375
1773790244220654300,1.865654296875,-0.996124267578125,0.0001678466796875,-0.01617431640625
1773790244240618200,1.8856181640625,-0.9958953857421875,0.00067138671875,-0.0169677734375
1773790244260582100,1.90558203125,-0.996063232421875,0.000457763671875,-0.0168914794921875
1773790244280545300,1.925545166015625,-0.9968414306640625,-0.0003814697265625,-0.0179595947265625
1773790244300509200,1.94550927734375,-0.9958953857421875,-0.0005950927734375,-0.017852783203125
1773790244320473000,1.96547314453125,-0.9945220947265625,-0.000885009765625,-0.017913818359375
1773790244340436200,1.985436279296875,-0.9965362548828125,-0.0007171630859375,-0.0167694091796875
1773790244360400100,2.005400146484375,-0.9957733154296875,0,-0.018768310546875
1773790244380364500,2.025364501953125,-0.995758056640625,0.0003204345703125,-0.017578125
1773790244400327200,2.0453271484375,-0.9951019287109375,-0.0010223388671875,-0.016998291015625
1773790244420288300,2.065288330078125,-0.99481201171875,0.000457763671875,-0.0169677734375
1773790244440252400,2.08525244140625,-0.9951934814453125,0.0000152587890625,-0.0175018310546875
1773790244460215300,2.10521533203125,-0.9951019287109375,-0.0002288818359375,-0.017333984375
1773790244480179200,2.12517919921875,-0.9970245361328125,0.0001068115234375,-0.017181396484375
1773790244500143400,2.145143310546875,-0.9962005615234375,0.000030517578125,-0.0168304443359375
1773790244520106200,2.165106201171875,-0.99493408203125,-0.0000152587890625,-0.0172882080078125
1773790244540070400,2.1850703125,-0.996124267578125,-0.000213623046875,-0.0179901123046875
1773790244560034300,2.205034423828125,-0.99652099609375,-0.0002593994140625,-0.016845703125
1773790244579997200,2.2249970703125,-0.9955596923828125,-0.00030517578125,-0.0166168212890625
1773790244599961300,2.24496142578125,-0.99615478515625,0.00030517578125,-0.0168914794921875
1773790244619925200,2.26492529296875,-0.995574951171875,0.0003204345703125,-0.016510009765625
1773790244639888400,2.284888427734375,-0.9954376220703125,-0.0002288818359375,-0.017608642578125
1773790244659852300,2.304852294921875,-0.995269775390625,-0.001251220703125,-0.0178680419921875
1773790244679816200,2.324816162109375,-0.995849609375,-0.000091552734375,-0.0166015625
1773790244699779300,2.344779296875,-0.9961700439453125,-0.0011749267578125,-0.0178985595703125
1773790244719743200,2.3647431640625,-0.995697021484375,0.0001068115234375,-0.01678466796875
1773790244739707100,2.38470703125,-0.995330810546875,0.0000457763671875,-0.0170745849609375
1773790244759670300,2.404670166015625,-0.9955291748046875,0.000885009765625,-0.017181396484375
1773790244779634200,2.42463427734375,-0.9960479736328125,0.00079345703125,-0.01873779296875
1773790244799598300,2.444598388671875,-0.995513916015625,-0.000152587890625,-0.016082763671875
1773790244819561200,2.464561279296875,-0.995849609375,0.000640869140625,-0.0175018310546875
1773790244839525000,2.484525146484375,-0.9956817626953125,-0.0002288818359375,-0.0182647705078125
1773790244859489300,2.5044892578125,-0.99560546875,0.0007781982421875,-0.01861572265625
1773790244879452200,2.5244521484375,-0.9967193603515625,-0.0004425048828125,-0.0166015625
1773790244899416300,2.544416259765625,-0.9954071044921875,0.0005645751953125,-0.01629638671875
1773790244919380500,2.56438037109375,-0.9958343505859375,0.0006561279296875,-0.016754150390625
1773790244939343000,2.584343017578125,-0.9964141845703125,0.000030517578125,-0.0172882080078125
1773790244959307300,2.604307373046875,-0.9954681396484375,0.000732421875,-0.017425537109375
1773790244979271400,2.624271484375,-0.99407958984375,0.00048828125,-0.0164947509765625
1773790244999234300,2.644234375,-0.9953765869140625,-0.00048828125,-0.0159759521484375
1773790245019198500,2.664198486328125,-0.99664306640625,-0.0001373291015625,-0.0172119140625
1773790245039162400,2.684162353515625,-0.9960784912109375,-0.0009765625,-0.0165863037109375
1773790245059125500,2.70412548828125,-0.9968414306640625,0.000030517578125,-0.016265869140625
1773790245079089400,2.72408935546875,-0.9960479736328125,-0.00018310546875,-0.0171966552734375
1773790245099053300,2.74405322265625,-0.9952850341796875,0.0003204345703125,-0.0167999267578125
1773790245119016400,2.764016357421875,-0.995086669921875,0.000701904296875,-0.0166168212890625
1773790245138980400,2.78398046875,-0.9958038330078125,-0.0009613037109375,-0.017547607421875
1773790245158944300,2.8039443359375,-0.9958953857421875,-0.0014190673828125,-0.0159454345703125
1773790245178907400,2.823907470703125,-0.9957122802734375,0.000244140625,-0.0176544189453125
1773790245198871300,2.843871337890625,-0.9959869384765625,0.0000152587890625,-0.016143798828125
1773790245218835500,2.86383544921875,-0.9958038330078125,-0.000396728515625,-0.01776123046875
1773790245238798300,2.88379833984375,-0.9962921142578125,-0.00079345703125,-0.0167694091796875
1773790245258762200,2.90376220703125,-0.9955291748046875,0.0010223388671875,-0.0178375244140625
1773790245278725400,2.923725341796875,-0.9961090087890625,0.00018310546875,-0.0166778564453125
1773790245298689300,2.943689208984375,-0.994110107421875,-0.000152587890625,-0.016754150390625
1773790245318653400,2.9636533203125,-0.9959259033203125,0.0012054443359375,-0.0160064697265625
1773790245338616300,2.9836162109375,-0.99688720703125,-0.00140380859375,-0.0157928466796875
1773790245358580200,3.003580322265625,-0.995941162109375,-0.00042724609375,-0.0177459716796875
1773790245378544400,3.02354443359375,-0.9959259033203125,0.0001678466796875,-0.0165252685546875
1773790245398507300,3.04350732421875,-0.99481201171875,-0.0009765625,-0.0169525146484375
1773790245418473200,3.06347314453125,-0.99542236328125,-0.0001220703125,-0.017181396484375
1773790245438437000,3.08343701171875,-0.9960784912109375,-0.0000152587890625,-0.0172882080078125
1773790245458400300,3.103400146484375,-0.9942626953125,-0.0005340576171875,-0.0162353515625
1773790245478364200,3.1233642578125,-0.9954681396484375,-0.000457763671875,-0.016448974609375
1773790245498328300,3.143328369140625,-0.99493408203125,-0.000152587890625,-0.016265869140625
1773790245518291200,3.163291259765625,-0.9957427978515625,0.0004119873046875,-0.0173492431640625
1773790245538255000,3.183255126953125,-0.994171142578125,-0.0001983642578125,-0.0177001953125
1773790245558219300,3.20321923828125,-0.9954071044921875,-0.000335693359375,-0.017669677734375
1773790245578182100,3.22318212890625,-0.9952239990234375,-0.0012054443359375,-0.0171051025390625
1773790245598146300,3.243146240234375,-0.994232177734375,-0.00006103515625,-0.017333984375
1773790245618110500,3.2631103515625,-0.99554443359375,0.0006103515625,-0.0170440673828125
1773790245638073000,3.283072998046875,-0.99627685546875,-0.0015716552734375,-0.01715087890625
1773790245658037500,3.30303759765625,-0.995941162109375,-0.0001373291015625,-0.017730712890625
1773790245678001400,3.32300146484375,-0.996337890625,-0.001129150390625,-0.0182647705078125
1773790245697964500,3.342964599609375,-0.9958953857421875,-0.0003662109375,-0.016387939453125
1773790245717928400,3.362928466796875,-0.9961700439453125,0.000335693359375,-0.0166015625
1773790245737892400,3.382892333984375,-0.99493408203125,0.0014190673828125,-0.0174407958984375
1773790245757855500,3.40285546875,-0.9973602294921875,-0.0003509521484375,-0.0161590576171875
1773790245777819400,3.4228193359375,-0.9941864013671875,-0.000213623046875,-0.017425537109375
1773790245797783300,3.442783203125,-0.995849609375,-0.0004119873046875,-0.0172119140625
1773790245817746400,3.462746337890625,-0.9960479736328125,0.00030517578125,-0.01708984375
1773790245837710300,3.48271044921875,-0.995758056640625,-0.0009307861328125,-0.0169830322265625
1773790245857673500,3.502673583984375,-0.9968109130859375,-0.0001220703125,-0.0179901123046875
1773790245877637400,3.522637451171875,-0.9943389892578125,-0.000030517578125,-0.017822265625
1773790245897601300,3.542601318359375,-0.9957733154296875,-0.0001373291015625,-0.0162200927734375
1773790245917564400,3.562564453125,-0.995086669921875,-0.0008697509765625,-0.018310546875
1773790245937528300,3.5825283203125,-0.9966583251953125,-0.0010223388671875,-0.01690673828125
1773790245957492200,3.6024921875,-0.9956207275390625,-0.0002593994140625,-0.0171966552734375
1773790245977455400,3.622455322265625,-0.9951019287109375,-0.0012054443359375,-0.0172576904296875
1773790245997419300,3.642419189453125,-0.9951324462890625,-0.0010223388671875,-0.017547607421875
1773790246017383400,3.662383544921875,-0.99603271484375,0,-0.01666259765625
1773790246037346300,3.68234619140625,-0.99615478515625,-0.0006866455078125,-0.017486572265625
1773790246057310500,3.702310546875,-0.9954681396484375,0.0006103515625,-0.0175323486328125
1773790246077274400,3.7222744140625,-0.9950408935546875,-0.00079345703125,-0.0178680419921875
1773790246097237200,3.7422373046875,-0.9957275390625,0.0001373291015625,-0.016754150390625
1773790246117201400,3.762201416015625,-0.995574951171875,0.0005950927734375,-0.0163116455078125
1773790246137165300,3.782165283203125,-0.9950408935546875,-0.0003662109375,-0.0181121826171875
1773790246157128400,3.80212841796875,-0.9961090087890625,-0.0006103515625,-0.018035888671875
1773790246177092400,3.82209228515625,-0.99462890625,0.0000762939453125,-0.016021728515625
1773790246197056300,3.84205615234375,-0.9963226318359375,0.0003662109375,-0.016387939453125
1773790246217019400,3.862019287109375,-0.994720458984375,0.000030517578125,-0.01776123046875
1773790246236983300,3.8819833984375,-0.995849609375,-0.0009307861328125,-0.0171661376953125
1773790246256947200,3.901947265625,-0.99652099609375,-0.000701904296875,-0.01715087890625
1773790246276910300,3.921910400390625,-0.9961700439453125,-0.00042724609375,-0.0172882080078125
1773790246296874200,3.941874267578125,-0.9943695068359375,-0.000213623046875,-0.0167236328125
1773790246316837400,3.96183740234375,-0.9955596923828125,-0.0001220703125,-0.018096923828125
1773790246336801300,3.98180126953125,-0.9951629638671875,0.0007476806640625,-0.01824951171875
1773790246356765200,4.00176513671875,-0.994110107421875,-0.0009765625,-0.01824951171875
1773790246376728300,4.021728271484375,-0.9960479736328125,-0.0005035400390625,-0.0175933837890625
1773790246396692200,4.041692138671875,-0.9953460693359375,0.0005035400390625,-0.0164794921875
1773790246416653600,4.061653564453125,-0.9949951171875,0.0005645751953125,-0.017303466796875
1773790246436616700,4.08161669921875,-0.996002197265625,-0.0005035400390625,-0.0175628662109375
1773790246456580600,4.10158056640625,-0.9959259033203125,-0.0003204345703125,-0.0173492431640625
1773790246476544500,4.12154443359375,-0.9964752197265625,-0.0008087158203125,-0.0172882080078125
1773790246496507600,4.141507568359375,-0.9958953857421875,-0.0003204345703125,-0.0171356201171875
1773790246516471600,4.161471435546875,-0.995513916015625,0.0001983642578125,-0.01702880859375
1773790246536435700,4.181435791015625,-0.99560546875,0.0006256103515625,-0.016815185546875
1773790246556398600,4.201398681640625,-0.996673583984375,-0.0003662109375,-0.0174102783203125
1773790246576362500,4.221362548828125,-0.9945068359375,0.0003814697265625,-0.0158843994140625
1773790246596325600,4.24132568359375,-0.9948883056640625,-0.0004425048828125,-0.0163421630859375
1773790246616289500,4.26128955078125,-0.9958953857421875,0.0014495849609375,-0.0172882080078125
1773790246636253700,4.281253662109375,-0.9937896728515625,-0.00018310546875,-0.0162200927734375
1773790246656216600,4.301216552734375,-0.994873046875,0.0001373291015625,-0.0182342529296875
1773790246676180500,4.321180419921875,-0.993682861328125,0.0006103515625,-0.0174560546875
1773790246696144600,4.34114453125,-0.9962615966796875,0.000946044921875,-0.01690673828125
1773790246716107500,4.361107421875,-0.9957275390625,0.00030517578125,-0.0172882080078125
1773790246736071700,4.38107177734375,-0.9954833984375,0,-0.0185699462890625
1773790246756035600,4.40103564453125,-0.995697021484375,0.0000152587890625,-0.0169830322265625
1773790246775998700,4.420998779296875,-0.9963836669921875,0.00018310546875,-0.0166778564453125
1773790246795962600,4.440962646484375,-0.9956817626953125,-0.0001678466796875,-0.0174560546875
1773790246815925500,4.460925537109375,-0.9962005615234375,-0.001251220703125,-0.016754150390625
1773790246835889700,4.4808896484375,-0.9956817626953125,-0.0003509521484375,-0.017822265625
1773790246855853600,4.500853515625,-0.9959259033203125,0.00048828125,-0.016845703125
1773790246875816700,4.520816650390625,-0.9968719482421875,-0.00048828125,-0.0177001953125
1773790246895780600,4.540780517578125,-0.9947662353515625,-0.00018310546875,-0.015899658203125
1773790246915744500,4.56074462890625,-0.9965362548828125,0.0004730224609375,-0.0173187255859375
1773790246935707600,4.580707763671875,-0.99627685546875,-0.0003204345703125,-0.0175628662109375
1773790246955671600,4.600671630859375,-0.99603271484375,0.0012969970703125,-0.0166015625
1773790246975635500,4.620635498046875,-0.9953765869140625,0.000518798828125,-0.016693115234375
1773790246995598600,4.6405986328125,-0.9957733154296875,-0.000091552734375,-0.0175018310546875
1773790247015562500,4.6605625,-0.996063232421875,0.0000152587890625,-0.01849365234375
1773790247035525600,4.680525634765625,-0.995880126953125,-0.000091552734375,-0.0173797607421875
1773790247055489500,4.700489501953125,-0.99700927734375,-0.0007476806640625,-0.0177459716796875
1773790247075453400,4.720453369140625,-0.9961700439453125,0.000396728515625,-0.017486572265625
1773790247095416600,4.74041650390625,-0.995849609375,-0.00103759765625,-0.0168914794921875
1773790247115380500,4.76038037109375,-0.9957122802734375,-0.00042724609375,-0.0178680419921875
1773790247135344400,4.780344482421875,-0.996185302734375,0,-0.016845703125
1773790247155307500,4.8003076171875,-0.9960174560546875,-0.000213623046875,-0.0170745849609375
1773790247175271400,4.820271484375,-0.99560546875,0.0000152587890625,-0.0179901123046875
1773790247195235600,4.840235595703125,-0.996185302734375,-0.0010528564453125,-0.016876220703125
1773790247215198500,4.860198486328125,-0.9960174560546875,-0.0001068115234375,-0.017181396484375
1773790247235162600,4.88016259765625,-0.9945526123046875,0.00006103515625,-0.01739501953125
1773790247255125500,4.90012548828125,-0.9952545166015625,-0.000457763671875,-0.017120361328125
1773790247275088600,4.920088623046875,-0.9949951171875,0.0001983642578125,-0.01751708984375
1773790247295052500,4.940052490234375,-0.9959869384765625,-0.0004425048828125,-0.016876220703125
1773790247315016400,4.960016357421875,-0.9954986572265625,-0.0015411376953125,-0.0172271728515625
1773790247334979600,4.9799794921875,-0.9967193603515625,-0.0003509521484375,-0.0179290771484375
1773790247354943500,4.999943603515625,-0.9940032958984375,-0.000152587890625,-0.0174102783203125
1773790247374906600,5.01990673828125,-0.9964599609375,0.0006103515625,-0.017669677734375
1773790247394870500,5.03987060546875,-0.9947509765625,-0.000701904296875,-0.016448974609375
1773790247414834400,5.05983447265625,-0.99578857421875,-0.0006103515625,-0.01776123046875
1773790247434797600,5.079797607421875,-0.994781494140625,-0.0000762939453125,-0.017547607421875
1773790247454761500,5.099761474609375,-0.9954071044921875,0.0001983642578125,-0.0173797607421875
1773790247474725400,5.119725341796875,-0.995635986328125,-0.0000152587890625,-0.016876220703125
1773790247494688500,5.1396884765625,-0.9956207275390625,-0.0000152587890625,-0.017364501953125
1773790247514652400,5.15965234375,-0.99542236328125,0.0007476806640625,-0.016937255859375
1773790247534615600,5.179615478515625,-0.995574951171875,0.0012054443359375,-0.017791748046875
1773790247554579500,5.199579345703125,-0.997100830078125,-0.0001678466796875,-0.0172271728515625
1773790247574543400,5.21954345703125,-0.995330810546875,-0.000640869140625,-0.0180816650390625
1773790247594506500,5.239506591796875,-0.996978759765625,0.0000457763671875,-0.0171051025390625
1773790247614470400,5.259470458984375,-0.9962615966796875,0.0001220703125,-0.0173492431640625
1773790247634434600,5.2794345703125,-0.9957275390625,-0.00103759765625,-0.0176239013671875
1773790247654397400,5.2993974609375,-0.99493408203125,0.0003662109375,-0.0165557861328125
1773790247674361300,5.319361328125,-0.994293212890625,-0.0001220703125,-0.0166778564453125
1773790247694324500,5.339324462890625,-0.9953765869140625,-0.0014495849609375,-0.0174560546875
1773790247714288400,5.359288330078125,-0.9962921142578125,0.0001983642578125,-0.017242431640625
1773790247734252500,5.37925244140625,-0.995849609375,0.0000152587890625,-0.01806640625
1773790247754215400,5.39921533203125,-0.9947357177734375,0.000274658203125,-0.0179290771484375
1773790247774179600,5.4191796875,-0.9947967529296875,-0.00006103515625,-0.0166168212890625
1773790247794143500,5.4391435546875,-0.995513916015625,-0.0000152587890625,-0.015960693359375
1773790247814106400,5.4591064453125,-0.994964599609375,0.00030517578125,-0.017364501953125
1773790247834070500,5.479070556640625,-0.995330810546875,-0.0006103515625,-0.017913818359375
1773790247854033400,5.499033447265625,-0.99603271484375,-0.0004119873046875,-0.01678466796875
1773790247873997600,5.51899755859375,-0.9960479736328125,0,-0.0162811279296875
1773790247893961500,5.53896142578125,-0.99639892578125,0.00091552734375,-0.0168609619140625
1773790247913924400,5.55892431640625,-0.9955291748046875,-0.0005035400390625,-0.0168609619140625
1773790247933888500,5.578888427734375,-0.9951934814453125,0.0001068115234375,-0.016265869140625
1773790247953852400,5.598852294921875,-0.9954376220703125,0.000030517578125,-0.0174560546875
1773790247973815600,5.618815673828125,-0.9959259033203125,-0.0004119873046875,-0.01763916015625
1773790247993779500,5.638779541015625,-0.9960479736328125,-0.0000762939453125,-0.0178985595703125
1773790248013743400,5.658743408203125,-0.996307373046875,-0.000823974609375,-0.0174560546875
1773790248033706500,5.67870654296875,-0.9960784912109375,-0.00091552734375,-0.0167694091796875
1773790248053670400,5.69867041015625,-0.99713134765625,-0.0007171630859375,-0.0168609619140625
1773790248073633500,5.718633544921875,-0.9951171875,-0.0001220703125,-0.0175933837890625
1773790248093597400,5.738597412109375,-0.99542236328125,-0.0007171630859375,-0.0175628662109375
1773790248113561300,5.758561279296875,-0.99676513671875,0.000030517578125,-0.01788330078125
1773790248133524500,5.7785244140625,-0.9969940185546875,-0.0000762939453125,-0.0165557861328125
1773790248153488400,5.79848828125,-0.996429443359375,-0.0001373291015625,-0.016754150390625
1773790248173451500,5.818451416015625,-0.996063232421875,-0.0000152587890625,-0.01708984375
1773790248193415400,5.83841552734375,-0.9953765869140625,-0.000823974609375,-0.0173187255859375
1773790248213379300,5.85837939453125,-0.9951934814453125,-0.000335693359375,-0.0168609619140625
1773790248233342500,5.878342529296875,-0.9951324462890625,-0.000396728515625,-0.0171356201171875
1773790248253306400,5.898306396484375,-0.9951324462890625,0.0001220703125,-0.016998291015625
1773790248273270300,5.918270263671875,-0.995697021484375,-0.0001068115234375,-0.017303466796875
1773790248293233400,5.9382333984375,-0.9958038330078125,0.0005035400390625,-0.0167083740234375
1773790248313197300,5.958197265625,-0.9954681396484375,0.000091552734375,-0.0171661376953125
1773790248333160400,5.978160400390625,-0.99566650390625,-0.000152587890625,-0.0158538818359375
1773790248353124400,5.998124267578125,-0.9969024658203125,0.0002899169921875,-0.0167694091796875
1773790248373088300,6.018088134765625,-0.9965362548828125,-0.0000457763671875,-0.016387939453125
1773790248393051400,6.038051513671875,-0.9972381591796875,0.0001068115234375,-0.0166473388671875
1773790248413015000,6.05801513671875,-0.99420166015625,-0.0001068115234375,-0.017547607421875
1773790248432979200,6.077979248046875,-0.995269775390625,-0.0008544921875,-0.017059326171875
1773790248452942000,6.097942138671875,-0.9945068359375,-0.000274658203125,-0.0159912109375
1773790248472906200,6.11790625,-0.9949493408203125,-0.0009765625,-0.01690673828125
1773790248492869000,6.137869140625,-0.9969024658203125,0.0000457763671875,-0.0172576904296875
1773790248512833000,6.1578330078125,-0.995330810546875,0.0002288818359375,-0.0168304443359375
1773790248532797200,6.177797119140625,-0.99664306640625,-0.0001068115234375,-0.0176239013671875
1773790248552760000,6.197760009765625,-0.9969024658203125,-0.000213623046875,-0.0171356201171875
1773790248572724200,6.21772412109375,-0.994537353515625,0.000213623046875,-0.017669677734375
1773790248592687000,6.23768701171875,-0.9967193603515625,-0.00030517578125,-0.0175933837890625
1773790248612651000,6.257651123046875,-0.995269775390625,0.000244140625,-0.017486572265625
1773790248632615200,6.277615234375,-0.996856689453125,0.000030517578125,-0.0164337158203125
1773790248652578000,6.297578125,-0.99627685546875,0.0002288818359375,-0.018096923828125
1773790248672542200,6.317542236328125,-0.9961700439453125,0.0008544921875,-0.01666259765625
1773790248692506000,6.337506103515625,-0.9947357177734375,-0.0003662109375,-0.0157318115234375
1773790248712469000,6.357468994140625,-0.9951171875,0.0001678466796875,-0.0174713134765625
1773790248732433200,6.37743310546875,-0.995697021484375,-0.0005340576171875,-0.0172119140625
1773790248752396000,6.39739599609375,-0.994842529296875,0.0002899169921875,-0.016876220703125
1773790248772360200,6.417360107421875,-0.997222900390625,-0.000885009765625,-0.0167083740234375
1773790248792324000,6.437323974609375,-0.9948272705078125,0.0013580322265625,-0.01611328125
1773790248812287000,6.457286865234375,-0.9956817626953125,-0.000732421875,-0.01739501953125
1773790248832251100,6.477251220703125,-0.9974517822265625,0.0012969970703125,-0.0178985595703125
1773790248852214000,6.497214111328125,-0.99658203125,0.000396728515625,-0.0173492431640625
1773790248872178200,6.51717822265625,-0.9956817626953125,0.00048828125,-0.0169219970703125
1773790248892142000,6.53714208984375,-0.9965057373046875,-0.0002288818359375,-0.0162353515625
1773790248912105000,6.55710498046875,-0.9954071044921875,0.00006103515625,-0.015350341796875
1773790248932069000,6.577069091796875,-0.99658203125,-0.0004119873046875,-0.0172119140625
1773790248952033000,6.597032958984375,-0.9963226318359375,-0.00048828125,-0.0164794921875
1773790248971996200,6.61699609375,-0.9948272705078125,-0.0003204345703125,-0.016448974609375
1773790248991960000,6.6369599609375,-0.9963226318359375,-0.000518798828125,-0.0171966552734375
1773790249011923200,6.656923095703125,-0.996551513671875,-0.000885009765625,-0.0165863037109375
1773790249031887000,6.67688720703125,-0.996002197265625,0.000732421875,-0.016998291015625
1773790249051851000,6.69685107421875,-0.995330810546875,0.0005950927734375,-0.017578125
1773790249071814100,6.716814208984375,-0.9962005615234375,0.0006103515625,-0.016815185546875
1773790249091778000,6.736778076171875,-0.99560546875,0.00030517578125,-0.01678466796875
1773790249111741200,6.7567412109375,-0.996002197265625,0.000244140625,-0.016571044921875
1773790249131705000,6.776705078125,-0.9951629638671875,-0.0008087158203125,-0.016845703125
1773790249151669000,6.7966689453125,-0.996002197265625,0.000213623046875,-0.0170745849609375
1773790249171632000,6.816632080078125,-0.9957275390625,-0.0005645751953125,-0.0171356201171875
1773790249191596000,6.836595947265625,-0.994659423828125,-0.0000457763671875,-0.017242431640625
1773790249211559200,6.85655908203125,-0.995086669921875,0.0005645751953125,-0.0167694091796875
1773790249231523000,6.876523193359375,-0.9952545166015625,0.000579833984375,-0.0164031982421875
1773790249251487000,6.896487060546875,-0.9956207275390625,-0.0007171630859375,-0.017059326171875
1773790249271450000,6.9164501953125,-0.9957275390625,-0.0008087158203125,-0.0174560546875
1773790249291414000,6.9364140625,-0.9961700439453125,-0.0010833740234375,-0.017578125
1773790249311378000,6.9563779296875,-0.994903564453125,-0.000640869140625,-0.0163726806640625
1773790249331341000,6.976341064453125,-0.995880126953125,0.0004119873046875,-0.0161895751953125
1773790249351305000,6.996304931640625,-0.996978759765625,0.000030517578125,-0.017608642578125
1773790249371268000,7.01626806640625,-0.9967498779296875,0.00006103515625,-0.0160675048828125
1773790249391232000,7.03623193359375,-0.995819091796875,-0.0005340576171875,-0.01605224609375
1773790249411196400,7.056196533203125,-0.9962615966796875,0.000946044921875,-0.017181396484375
1773790249431159600,7.07615966796875,-0.9963226318359375,-0.0001068115234375,-0.01861572265625
1773790249451123500,7.09612353515625,-0.9951019287109375,-0.000396728515625,-0.01763916015625
1773790249471086600,7.116086669921875,-0.9964752197265625,-0.0000762939453125,-0.017578125
1773790249491050500,7.136050537109375,-0.99591064453125,-0.00018310546875,-0.0157012939453125
1773790249511014400,7.156014404296875,-0.995269775390625,-0.0000152587890625,-0.01702880859375
1773790249530977500,7.1759775390625,-0.9956512451171875,-0.00042724609375,-0.016448974609375
1773790249550941400,7.19594140625,-0.995025634765625,-0.000274658203125,-0.015472412109375
1773790249570904600,7.215904541015625,-0.9962921142578125,0.0006866455078125,-0.01800537109375
1773790249590868500,7.235868408203125,-0.9954986572265625,-0.00042724609375,-0.017242431640625
1773790249610832400,7.255832275390625,-0.9955902099609375,0.001800537109375,-0.0168914794921875
1773790249630795500,7.27579541015625,-0.9963531494140625,0.000091552734375,-0.0169219970703125
1773790249650759400,7.295759521484375,-0.99566650390625,-0.0006103515625,-0.0168304443359375
1773790249670722600,7.31572265625,-0.9952392578125,-0.0011749267578125,-0.0166015625
1773790249690686500,7.3356865234375,-0.995391845703125,0.00042724609375,-0.017425537109375
1773790249710650400,7.355650390625,-0.996673583984375,0.0005035400390625,-0.0166168212890625
1773790249730613500,7.375613525390625,-0.9952239990234375,0.0016021728515625,-0.0172882080078125
1773790249750577400,7.395577392578125,-0.9957733154296875,-0.0003662109375,-0.017486572265625
1773790249770540500,7.41554052734375,-0.99627685546875,-0.0000152587890625,-0.0168914794921875
1773790249790504400,7.43550439453125,-0.9954833984375,-0.0001983642578125,-0.017974853515625
1773790249810468400,7.45546826171875,-0.9942169189453125,-0.001373291015625,-0.0173187255859375
1773790249830431500,7.475431396484375,-0.995941162109375,0.001190185546875,-0.01806640625
1773790249850395400,7.4953955078125,-0.996185302734375,-0.0001068115234375,-0.01568603515625
1773790249870358500,7.515358642578125,-0.9947357177734375,-0.00079345703125,-0.0178680419921875
1773790249890322400,7.535322509765625,-0.9963531494140625,0.0004730224609375,-0.01708984375
1773790249910286300,7.555286376953125,-0.9962921142578125,0.0001373291015625,-0.01654052734375
1773790249930249500,7.57524951171875,-0.9971771240234375,-0.0000457763671875,-0.0164947509765625
1773790249950213400,7.59521337890625,-0.99560546875,0,-0.0172271728515625
1773790249970176500,7.615176513671875,-0.9965057373046875,0.00054931640625,-0.0174102783203125
1773790249990140400,7.635140380859375,-0.995697021484375,0.0000762939453125,-0.0178985595703125
1773790250010104300,7.655104248046875,-0.9960784912109375,0.0003204345703125,-0.0176239013671875
1773790250030067500,7.6750673828125,-0.995513916015625,-0.0002288818359375,-0.0171966552734375
1773790250050031400,7.69503125,-0.9958953857421875,-0.0001220703125,-0.017181396484375
1773790250069995500,7.71499560546875,-0.9955902099609375,0.0002593994140625,-0.01678466796875
1773790250089958400,7.73495849609375,-0.9960479736328125,0.0011444091796875,-0.017669677734375
1773790250109922300,7.75492236328125,-0.9967803955078125,0.0001373291015625,-0.017425537109375
1773790250129885400,7.774885498046875,-0.9952239990234375,-0.000518798828125,-0.0172576904296875
1773790250149849300,7.794849365234375,-0.995758056640625,-0.0005950927734375,-0.0165557861328125
1773790250169812500,7.8148125,-0.9971466064453125,0.000457763671875,-0.0171661376953125
1773790250189776400,7.8347763671875,-0.996490478515625,-0.000823974609375,-0.016937255859375
1773790250209740300,7.854740234375,-0.99578857421875,0.000701904296875,-0.017364501953125
1773790250229703400,7.874703369140625,-0.9961090087890625,-0.0007171630859375,-0.0170440673828125
1773790250249667300,7.894667236328125,-0.99578857421875,-0.000244140625,-0.0167694091796875
1773790250269631500,7.914631591796875,-0.994232177734375,0.0003509521484375,-0.01788330078125
1773790250289594400,7.934594482421875,-0.99554443359375,0.0010528564453125,-0.0160064697265625
1773790250309558300,7.954558349609375,-0.9960174560546875,0.00030517578125,-0.0166473388671875
1773790250329521400,7.974521484375,-0.9963226318359375,-0.000213623046875,-0.01873779296875
1773790250349485300,7.9944853515625,-0.995941162109375,-0.0006561279296875,-0.0173187255859375
1773790250369449500,8.014449462890624,-0.996337890625,0.0004425048828125,-0.0181884765625
1773790250389412400,8.034412353515625,-0.9955902099609375,0.000579833984375,-0.01812744140625
1773790250409376500,8.05437646484375,-0.995635986328125,-0.0000457763671875,-0.017791748046875
1773790250429339600,8.074339599609376,-0.9958343505859375,-0.00006103515625,-0.0177001953125
1773790250449303600,8.094303466796875,-0.99639892578125,0.000244140625,-0.017974853515625
1773790250469266700,8.1142666015625,-0.996307373046875,0.0003204345703125,-0.016998291015625
1773790250489230600,8.134230712890625,-0.9958648681640625,-0.00103759765625,-0.0163726806640625
1773790250509194500,8.154194580078125,-0.996185302734375,-0.000152587890625,-0.016693115234375
1773790250529157600,8.17415771484375,-0.9967498779296875,-0.000457763671875,-0.0167083740234375
1773790250549121500,8.19412158203125,-0.9947509765625,-0.0003204345703125,-0.0164642333984375
1773790250569084700,8.214084716796876,-0.99676513671875,0.000274658203125,-0.0162506103515625
1773790250589048600,8.234048583984375,-0.995452880859375,-0.0003204345703125,-0.016815185546875
1773790250609012500,8.254012451171874,-0.995880126953125,-0.0006866455078125,-0.01727294921875
1773790250628975600,8.2739755859375,-0.996734619140625,0.0003662109375,-0.017242431640625
1773790250648939500,8.293939453125,-0.9947509765625,0.0010833740234375,-0.01629638671875
1773790250668902700,8.313902587890626,-0.9959869384765625,-0.00006103515625,-0.0172882080078125
1773790250688866600,8.333866455078125,-0.995574951171875,0.0001068115234375,-0.0173187255859375
1773790250708830700,8.353830810546874,-0.995758056640625,-0.0002899169921875,-0.016998291015625
1773790250728793600,8.373793701171875,-0.9964447021484375,-0.0003509521484375,-0.01629638671875
1773790250748757500,8.393757568359375,-0.99420166015625,0.0001983642578125,-0.016265869140625
1773790250768720600,8.413720703125,-0.996337890625,-0.0001220703125,-0.01776123046875
1773790250788684500,8.4336845703125,-0.994293212890625,0.000274658203125,-0.0169830322265625
1773790250808648700,8.453648681640624,-0.99700927734375,-0.0001983642578125,-0.0173797607421875
1773790250828611600,8.473611572265625,-0.9962005615234375,0.0006866455078125,-0.0173797607421875
1773790250848575500,8.493575439453124,-0.99505615234375,-0.000213623046875,-0.0169525146484375
1773790250872282600,8.51728271484375,-0.99609375,0.000762939453125,-0.0162353515625
1773790250892246800,8.537246826171875,-0.9951171875,-0.0002288818359375,-0.01678466796875
1773790250912209700,8.557209716796875,-0.9958343505859375,0.000396728515625,-0.016937255859375
1773790250932173800,8.577173828125,-0.9959869384765625,0.000274658203125,-0.0168304443359375
1773790250952137700,8.5971376953125,-0.99609375,-0.000396728515625,-0.016876220703125
1773790250972100600,8.6171005859375,-0.9959564208984375,-0.0004425048828125,-0.017242431640625
1773790250992064800,8.637064697265625,-0.9953460693359375,-0.000579833984375,-0.0160064697265625
1773790251012027600,8.657027587890624,-0.9950103759765625,-0.00103759765625,-0.0166015625
1773790251031991800,8.67699169921875,-0.9966583251953125,0.0003204345703125,-0.017547607421875
1773790251051955700,8.696955810546875,-0.9952392578125,-0.000335693359375,-0.017120361328125
1773790251071918800,8.7169189453125,-0.9959869384765625,-0.00067138671875,-0.0173797607421875
1773790251091882800,8.7368828125,-0.9959869384765625,-0.00103759765625,-0.0166473388671875
1773790251111845600,8.756845703125,-0.995361328125,0.000274658203125,-0.017181396484375
1773790251131809800,8.776809814453125,-0.9957275390625,-0.000091552734375,-0.01708984375
1773790251151773700,8.796773681640625,-0.995269775390625,0.000213623046875,-0.01678466796875
1773790251171736800,8.81673681640625,-0.996307373046875,0.0010528564453125,-0.016387939453125
1773790251191700700,8.83670068359375,-0.99609375,-0.0006866455078125,-0.017333984375
1773790251211663600,8.85666357421875,-0.9952392578125,0.0001068115234375,-0.0181732177734375
1773790251231627800,8.876627685546875,-0.9957427978515625,0.000946044921875,-0.017333984375
1773790251251590700,8.896590576171874,-0.99517822265625,-0.0000762939453125,-0.0174407958984375
1773790251271553800,8.9165537109375,-0.99481201171875,0.0001678466796875,-0.016693115234375
1773790251291517700,8.936517578125,-0.9954071044921875,0.0007476806640625,-0.016387939453125
1773790251311480800,8.956480712890626,-0.9962158203125,0.000335693359375,-0.0173492431640625
1773790251331444700,8.97644482421875,-0.995269775390625,0.0000457763671875,-0.017120361328125
1773790251351408600,8.99640869140625,-0.9947052001953125,0.0003662109375,-0.01666259765625
1773790251371371800,9.016371826171875,-0.995758056640625,-0.000152587890625,-0.018035888671875
1773790251391335700,9.036335693359375,-0.99591064453125,-0.0005035400390625,-0.017791748046875
1773790251411299000,9.056299072265626,-0.9952850341796875,0.00042724609375,-0.0166015625
1773790251431263000,9.076262939453125,-0.9964752197265625,-0.0003204345703125,-0.0173492431640625
1773790251451226000,9.09622607421875,-0.9955291748046875,-0.0000762939453125,-0.0178985595703125
1773790251471190000,9.11618994140625,-0.9954376220703125,-0.00042724609375,-0.0177001953125
1773790251491154000,9.13615380859375,-0.996551513671875,0.0008392333984375,-0.0167388916015625
1773790251511117000,9.156116943359375,-0.9964447021484375,-0.00048828125,-0.0166473388671875
1773790251531081000,9.1760810546875,-0.9956817626953125,0.0001678466796875,-0.016815185546875
1773790251551044000,9.196044189453126,-0.9947967529296875,-0.00048828125,-0.0175323486328125
1773790251571008000,9.216008056640625,-0.9948272705078125,-0.001190185546875,-0.0175018310546875
1773790251590972000,9.235971923828124,-0.99676513671875,0.0002899169921875,-0.017364501953125
1773790251610935000,9.25593505859375,-0.99591064453125,-0.0006256103515625,-0.0175628662109375
1773790251630899000,9.27589892578125,-0.9956512451171875,-0.0001068115234375,-0.0166473388671875
1773790251650862000,9.295862060546876,-0.9956207275390625,-0.0001068115234375,-0.0178680419921875
1773790251670826000,9.315825927734375,-0.9954071044921875,-0.00042724609375,-0.0173797607421875
1773790251690788900,9.335788818359376,-0.995147705078125,-0.0002593994140625,-0.0172271728515625
1773790251710753000,9.3557529296875,-0.9956207275390625,0.000030517578125,-0.0187835693359375
1773790251730717000,9.375717041015625,-0.995513916015625,-0.0002899169921875,-0.0171661376953125
1773790251750680000,9.39568017578125,-0.9945068359375,-0.000732421875,-0.0177459716796875
1773790251770644000,9.41564404296875,-0.995452880859375,-0.0000457763671875,-0.016632080078125
1773790251790606800,9.43560693359375,-0.9955596923828125,-0.0008087158203125,-0.018524169921875
1773790251810571000,9.455571044921875,-0.9947357177734375,0.00042724609375,-0.016876220703125
1773790251830535000,9.475534912109374,-0.9950714111328125,-0.0001678466796875,-0.017791748046875
1773790251850498000,9.495498046875,-0.9955291748046875,0.000030517578125,-0.0179443359375
1773790251870462000,9.5154619140625,-0.9962158203125,0.0002593994140625,-0.016937255859375
1773790251890425000,9.535425048828126,-0.9958038330078125,-0.000762939453125,-0.0169677734375
1773790251910389000,9.555388916015625,-0.9957427978515625,0.000091552734375,-0.0171966552734375
1773790251930351900,9.575351806640626,-0.9956512451171875,0.000701904296875,-0.01715087890625
1773790251950316000,9.59531591796875,-0.9959564208984375,0.0001678466796875,-0.0167694091796875
1773790251970280000,9.615280029296875,-0.9940032958984375,-0.0009765625,-0.01641845703125
1773790251990243000,9.6352431640625,-0.9964599609375,-0.0001983642578125,-0.0174713134765625
1773790252010207000,9.65520703125,-0.99737548828125,0.000823974609375,-0.016876220703125
1773790252030169900,9.675169921875,-0.995819091796875,-0.0003509521484375,-0.0166168212890625
1773790252050134000,9.695134033203125,-0.9955902099609375,-0.0001373291015625,-0.0175933837890625
1773790252070097000,9.715096923828124,-0.9963836669921875,-0.00103759765625,-0.015960693359375
1773790252090061000,9.73506103515625,-0.9955596923828125,0.00006103515625,-0.0180816650390625
1773790252110025000,9.75502490234375,-0.996734619140625,-0.0003204345703125,-0.017120361328125
1773790252129987800,9.77498779296875,-0.995880126953125,-0.0001373291015625,-0.016510009765625
1773790252149952000,9.794951904296875,-0.995147705078125,-0.0001983642578125,-0.018768310546875
1773790252169915000,9.814914794921876,-0.9964447021484375,-0.0000152587890625,-0.0169677734375
1773790252189879000,9.834879150390625,-0.99505615234375,0.0001068115234375,-0.0164031982421875
1773790252209843000,9.854843017578125,-0.9951019287109375,0.0002593994140625,-0.0168914794921875
1773790252229805800,9.874805908203125,-0.994049072265625,0,-0.018157958984375
1773790252249770000,9.89477001953125,-0.99542236328125,-0.000732421875,-0.0168914794921875
1773790252269732900,9.91473291015625,-0.995880126953125,-0.0003204345703125,-0.0167236328125
1773790252289697000,9.934697021484375,-0.9968414306640625,-0.0009307861328125,-0.01715087890625
1773790252309660000,9.954659912109374,-0.9951019287109375,-0.000030517578125,-0.0174102783203125
1773790252329624000,9.9746240234375,-0.994659423828125,0.0005645751953125,-0.0167388916015625
1773790252349588000,9.994587890625,-0.99603271484375,-0.0013885498046875,-0.0169830322265625
1773790252369550800,10.01455078125,-0.995147705078125,0.0004119873046875,-0.0180511474609375
1773790252389515000,10.034514892578125,-0.9949951171875,-0.000396728515625,-0.0190277099609375
1773790252409477600,10.0544775390625,-0.99517822265625,0.0000152587890625,-0.01751708984375
1773790252429442000,10.074442138671875,-0.996185302734375,-0.0001068115234375,-0.0170135498046875
1773790252449404700,10.09440478515625,-0.99493408203125,-0.0003204345703125,-0.01739501953125
1773790252469368600,10.11436865234375,-0.996063232421875,0.0007781982421875,-0.0164947509765625
1773790252489333000,10.1343330078125,-0.9947967529296875,0.0001678466796875,-0.017822265625
1773790252509295600,10.154295654296876,-0.9959564208984375,-0.000030517578125,-0.0184173583984375
1773790252529260000,10.174260009765625,-0.9972686767578125,0.0009765625,-0.0173492431640625
1773790252549222700,10.19422265625,-0.994873046875,0.0010223388671875,-0.0160369873046875
1773790252569186800,10.214186767578125,-0.9947052001953125,-0.000030517578125,-0.018157958984375
1773790252589149700,10.234149658203124,-0.996002197265625,0.000823974609375,-0.017333984375
1773790252609113600,10.254113525390625,-0.99560546875,-0.00079345703125,-0.01605224609375
1773790252629078000,10.274078125,-0.994781494140625,-0.0002593994140625,-0.0175933837890625
1773790252649040600,10.29404052734375,-0.995880126953125,-0.0000152587890625,-0.0168304443359375
1773790252669004800,10.3140048828125,-0.9954986572265625,-0.00079345703125,-0.0171356201171875
1773790252688967700,10.3339677734375,-0.9965972900390625,-0.000579833984375,-0.016143798828125
1773790252708931800,10.353931884765625,-0.996337890625,0.0006103515625,-0.0166778564453125
1773790252728894700,10.373894775390625,-0.9965667724609375,-0.0005340576171875,-0.0172576904296875
1773790252748859000,10.39385888671875,-0.99615478515625,0.000335693359375,-0.0168914794921875
1773790252768822800,10.41382275390625,-0.99578857421875,-0.0001373291015625,-0.0180511474609375
1773790252788785700,10.43378564453125,-0.9958953857421875,0.0000762939453125,-0.0164794921875
1773790252808749800,10.453749755859375,-0.9966278076171875,-0.000213623046875,-0.01812744140625
1773790252828712700,10.473712646484374,-0.99462890625,-0.0002288818359375,-0.0175018310546875
1773790252848676900,10.4936767578125,-0.9959259033203125,-0.000274658203125,-0.017974853515625
1773790252868641000,10.51364111328125,-0.996185302734375,0.000152587890625,-0.01702880859375
1773790252888604000,10.53360400390625,-0.996734619140625,-0.000823974609375,-0.0177154541015625
1773790252908567800,10.55356787109375,-0.9960479736328125,0.0002593994140625,-0.01727294921875
1773790252928530700,10.57353076171875,-0.9954681396484375,-0.000213623046875,-0.016998291015625
1773790252948494800,10.593494873046875,-0.99542236328125,-0.0013427734375,-0.0172882080078125
1773790252968457700,10.613457763671875,-0.9965667724609375,0.00042724609375,-0.0172882080078125
1773790252988422000,10.633421875,-0.9954681396484375,0.00030517578125,-0.016448974609375
1773790253008384800,10.653384765625,-0.995941162109375,-0.001129150390625,-0.0179443359375
1773790253028349000,10.673348876953124,-0.995330810546875,0.0000762939453125,-0.01702880859375
1773790253048312800,10.693312744140625,-0.9949951171875,-0.00079345703125,-0.0171356201171875
1773790253068276000,10.71327587890625,-0.9955902099609375,-0.00018310546875,-0.017242431640625
1773790253088239900,10.733239990234376,-0.9953765869140625,-0.0007171630859375,-0.0157318115234375
1773790253108202800,10.75320263671875,-0.9956207275390625,-0.0008392333984375,-0.0163421630859375
1773790253128167000,10.7731669921875,-0.9958038330078125,-0.0000457763671875,-0.0170440673828125
1773790253148129800,10.7931298828125,-0.9957733154296875,-0.00079345703125,-0.0164642333984375
1773790253168094000,10.813093994140624,-0.995513916015625,-0.0001678466796875,-0.01702880859375
1773790253188057900,10.833057861328125,-0.9945831298828125,0.000152587890625,-0.01617431640625
1773790253208021000,10.85302099609375,-0.996063232421875,0.000030517578125,-0.0175628662109375
1773790253227985000,10.87298486328125,-0.9946441650390625,-0.0001068115234375,-0.0171966552734375
1773790253247947800,10.89294775390625,-0.9962005615234375,-0.000701904296875,-0.01666259765625
1773790253267912000,10.912911865234374,-0.99554443359375,-0.000091552734375,-0.016387939453125
1773790253287874800,10.932874755859375,-0.9952239990234375,0.000030517578125,-0.0168304443359375
1773790253307839000,10.9528388671875,-0.996307373046875,0.0003662109375,-0.0169830322265625
1773790253327803000,10.972802978515626,-0.9962615966796875,-0.0004425048828125,-0.0162506103515625
1773790253347766000,10.99276611328125,-0.9954376220703125,-0.000030517578125,-0.01776123046875
1773790253367730000,11.01272998046875,-0.9951629638671875,-0.0000457763671875,-0.0169525146484375
1773790253387693000,11.032693115234375,-0.9954376220703125,0.00042724609375,-0.0177154541015625
1773790253407657000,11.052656982421874,-0.99542236328125,0.0004730224609375,-0.0155029296875
1773790253427619600,11.07261962890625,-0.995574951171875,-0.000579833984375,-0.0177154541015625
1773790253447583500,11.09258349609375,-0.99725341796875,-0.0004425048828125,-0.0174407958984375
1773790253467547400,11.11254736328125,-0.995513916015625,0.00115966796875,-0.017791748046875
1773790253487510500,11.132510498046875,-0.9956207275390625,-0.0011749267578125,-0.0170745849609375
1773790253507474400,11.152474365234376,-0.9945526123046875,-0.0003509521484375,-0.0157470703125
1773790253527437600,11.1724375,-0.9964447021484375,-0.00018310546875,-0.0175628662109375
1773790253547401500,11.1924013671875,-0.995880126953125,-0.00091552734375,-0.017791748046875
1773790253567364400,11.2123642578125,-0.995208740234375,-0.001190185546875,-0.0172882080078125
1773790253587328500,11.23232861328125,-0.99444580078125,-0.00054931640625,-0.0165252685546875
1773790253607292400,11.25229248046875,-0.9959259033203125,0.0001983642578125,-0.018218994140625
1773790253627255600,11.272255615234375,-0.9956817626953125,-0.0006561279296875,-0.0172271728515625
1773790253647219500,11.292219482421874,-0.9959869384765625,0.000457763671875,-0.016448974609375
1773790253667182300,11.312182373046875,-0.99481201171875,0.000213623046875,-0.01751708984375
1773790253687146500,11.332146484375,-0.99615478515625,-0.001129150390625,-0.0159912109375
1773790253707109400,11.352109375,-0.9951934814453125,-0.00006103515625,-0.01580810546875
1773790253727073500,11.372073486328125,-0.995574951171875,-0.0007171630859375,-0.0172576904296875
1773790253747036400,11.392036376953126,-0.9949951171875,0.0002899169921875,-0.0157623291015625
1773790253767000300,11.412000244140625,-0.9974365234375,-0.0006256103515625,-0.0168304443359375
1773790253786964500,11.431964599609374,-0.99517822265625,-0.00067138671875,-0.014892578125
1773790253806927400,11.45192724609375,-0.995880126953125,-0.0004730224609375,-0.0184478759765625
1773790253826891500,11.4718916015625,-0.995941162109375,-0.0001068115234375,-0.0177459716796875
1773790253846854400,11.4918544921875,-0.9944000244140625,-0.000457763671875,-0.0169525146484375
1773790253866818300,11.511818359375,-0.9962158203125,-0.0003814697265625,-0.0176849365234375
1773790253886781400,11.531781494140626,-0.9961395263671875,-0.0010986328125,-0.0167694091796875
1773790253906745300,11.551745361328125,-0.995025634765625,-0.00030517578125,-0.0178375244140625
1773790253926708500,11.57170849609375,-0.9957275390625,-0.000762939453125,-0.017974853515625
1773790253946672400,11.59167236328125,-0.9949188232421875,0.0003204345703125,-0.0165557861328125
1773790253966636500,11.611636474609375,-0.9947662353515625,0.0000762939453125,-0.017822265625
1773790253986599400,11.631599365234376,-0.9959259033203125,0.000030517578125,-0.0165863037109375
1773790254006563300,11.651563232421875,-0.996337890625,0.0000152587890625,-0.016357421875
1773790254026526500,11.6715263671875,-0.9960174560546875,-0.00189208984375,-0.0178070068359375
1773790254046490400,11.691490478515625,-0.9954986572265625,-0.0004119873046875,-0.0174102783203125
1773790254066453500,11.71145361328125,-0.9959259033203125,0.000152587890625,-0.016998291015625
1773790254086417400,11.73141748046875,-0.9957427978515625,-0.0003204345703125,-0.017333984375
1773790254106381300,11.75138134765625,-0.9970855712890625,0.0008087158203125,-0.017120361328125
1773790254126344400,11.771344482421876,-0.99560546875,-0.0001373291015625,-0.01654052734375
1773790254146308400,11.791308349609375,-0.9949951171875,0.000152587890625,-0.0168914794921875
1773790254166271500,11.811271484375,-0.9959869384765625,-0.0001068115234375,-0.016754150390625
1773790254186235400,11.8312353515625,-0.9962005615234375,-0.001129150390625,-0.0166168212890625
1773790254206198500,11.851198486328125,-0.9951629638671875,-0.000152587890625,-0.01666259765625
1773790254226162400,11.871162353515626,-0.9954681396484375,-0.0007476806640625,-0.017059326171875
1773790254246125600,11.89112548828125,-0.9948577880859375,-0.00115966796875,-0.01727294921875
1773790254266089500,11.91108935546875,-0.9953765869140625,-0.000213623046875,-0.017333984375
1773790254286053400,11.931053466796875,-0.9943695068359375,0.0007781982421875,-0.017303466796875
1773790254306016500,11.9510166015625,-0.9954681396484375,-0.00006103515625,-0.017822265625
1773790254325980400,11.97098046875,-0.9954986572265625,0.0011749267578125,-0.016265869140625
1773790254345943600,11.990943603515625,-0.9954681396484375,-0.0001068115234375,-0.0177001953125
1773790254365907500,12.010907470703126,-0.99615478515625,0.000518798828125,-0.01824951171875
1773790254385870300,12.030870361328125,-0.996063232421875,-0.0015411376953125,-0.015899658203125
1773790254405834500,12.05083447265625,-0.9967803955078125,0.000640869140625,-0.017303466796875
1773790254425797400,12.07079736328125,-0.99462890625,0.0001068115234375,-0.0169677734375
1773790254445761500,12.090761474609375,-0.99456787109375,-0.0010223388671875,-0.0175323486328125
1773790254465725400,12.110725341796876,-0.9956512451171875,0.00115966796875,-0.0172882080078125
1773790254485688300,12.130688232421875,-0.995880126953125,-0.0000762939453125,-0.01702880859375
1773790254505652500,12.150652587890624,-0.9942626953125,0.0002288818359375,-0.0170440673828125
1773790254525615400,12.170615478515625,-0.996307373046875,0.0001983642578125,-0.0182342529296875
1773790254545579500,12.19057958984375,-0.9945831298828125,0.0003204345703125,-0.016448974609375
1773790254565542400,12.21054248046875,-0.9955596923828125,0.000152587890625,-0.0175018310546875
1773790254585506600,12.230506591796875,-0.9957427978515625,-0.00042724609375,-0.016876220703125
1773790254605469400,12.250469482421876,-0.9952392578125,0.00030517578125,-0.016998291015625
1773790254625433300,12.270433349609375,-0.995574951171875,-0.0000152587890625,-0.017181396484375
1773790254645397500,12.2903974609375,-0.9957427978515625,0.0009613037109375,-0.0167083740234375
1773790254665360400,12.3103603515625,-0.9957733154296875,-0.001708984375,-0.0164642333984375
1773790254685324500,12.330324462890625,-0.99658203125,-0.0010986328125,-0.01605224609375
1773790254705287400,12.350287353515625,-0.996063232421875,-0.000701904296875,-0.0173187255859375
1773790254725251300,12.370251220703125,-0.9962310791015625,0.000946044921875,-0.01666259765625
1773790254745214500,12.39021435546875,-0.9954681396484375,-0.000030517578125,-0.0171966552734375
1773790254765178400,12.410178466796875,-0.995819091796875,0.0016632080078125,-0.017333984375
1773790254785141500,12.4301416015625,-0.9964447021484375,-0.000579833984375,-0.0186004638671875
1773790254805105400,12.45010546875,-0.9952239990234375,0.0001983642578125,-0.0172576904296875
1773790254825068500,12.470068603515625,-0.9966583251953125,-0.000244140625,-0.017120361328125
1773790254845032400,12.490032470703126,-0.994354248046875,-0.000762939453125,-0.0172576904296875
1773790254864996400,12.509996337890625,-0.994354248046875,0.0000152587890625,-0.0177459716796875
1773790254884960500,12.52996044921875,-0.9966278076171875,-0.0008392333984375,-0.0169830322265625
1773790254904924400,12.54992431640625,-0.995574951171875,-0.0004425048828125,-0.017578125
1773790254924887300,12.56988720703125,-0.9955596923828125,0.0002593994140625,-0.01690673828125
1773790254944851500,12.5898515625,-0.9965057373046875,0.000640869140625,-0.0177154541015625
1773790254964814300,12.609814453125,-0.9964141845703125,-0.0001678466796875,-0.0178375244140625
1773790254984778500,12.629778564453124,-0.99578857421875,0.0001373291015625,-0.0171051025390625
1773790255004741400,12.649741455078125,-0.996978759765625,-0.0001983642578125,-0.01690673828125
1773790255024705500,12.66970556640625,-0.9953765869140625,0.0005340576171875,-0.01678466796875
1773790255044668400,12.68966845703125,-0.99591064453125,-0.00103759765625,-0.0174560546875
1773790255064632300,12.70963232421875,-0.9954833984375,0.0000152587890625,-0.0174102783203125
1773790255084595500,12.729595458984376,-0.9947052001953125,-0.0000457763671875,-0.0164642333984375
1773790255104559400,12.749559326171875,-0.9956817626953125,0.000274658203125,-0.0166168212890625
1773790255124523500,12.7695234375,-0.9957427978515625,-0.00091552734375,-0.0174102783203125
1773790255144486400,12.789486328125,-0.995391845703125,0.0000762939453125,-0.017242431640625
1773790255164450300,12.8094501953125,-0.9958038330078125,0.0007781982421875,-0.0172882080078125
1773790255184413400,12.829413330078125,-0.9946746826171875,0.0001373291015625,-0.0169219970703125
1773790255204377300,12.84937744140625,-0.9972076416015625,0.0010528564453125,-0.016082763671875
1773790255224340500,12.869340576171876,-0.9963226318359375,-0.00103759765625,-0.0179290771484375
1773790255244304400,12.889304443359375,-0.995574951171875,0.0003662109375,-0.016845703125
1773790255264267500,12.909267578125,-0.99609375,-0.00054931640625,-0.0174713134765625
1773790255284231400,12.9292314453125,-0.9950103759765625,-0.0003204345703125,-0.0169219970703125
1773790255304194600,12.949194580078125,-0.9954986572265625,0.000244140625,-0.016998291015625
1773790255324158500,12.969158447265626,-0.9958038330078125,0.000885009765625,-0.0177459716796875
1773790255344121300,12.989121337890625,-0.994842529296875,-0.0013885498046875,-0.0151214599609375
1773790255364085500,13.00908544921875,-0.9959869384765625,0.000762939453125,-0.017181396484375
1773790255384048400,13.02904833984375,-0.99505615234375,-0.000518798828125,-0.016387939453125
1773790255404012500,13.049012451171874,-0.9950408935546875,0.0011138916015625,-0.0163116455078125
1773790255423976000,13.068975830078125,-0.9951629638671875,0.0004425048828125,-0.0164642333984375
1773790255443940000,13.088940185546875,-0.995849609375,-0.001617431640625,-0.0164642333984375
1773790255463904300,13.108904296875,-0.9964141845703125,0.0000457763671875,-0.0162353515625
1773790255483867100,13.1288671875,-0.99639892578125,0.00042724609375,-0.0173187255859375
1773790255503831000,13.1488310546875,-0.9947052001953125,0.000457763671875,-0.0178680419921875
1773790255523794200,13.168794189453125,-0.9951934814453125,-0.00048828125,-0.017120361328125
1773790255543758000,13.188758056640625,-0.9959259033203125,0.000213623046875,-0.0164947509765625
1773790255563721200,13.20872119140625,-0.9954986572265625,-0.000885009765625,-0.0158538818359375
1773790255583685000,13.22868505859375,-0.99627685546875,0.0000457763671875,-0.0175933837890625
1773790255603648000,13.24864794921875,-0.99652099609375,0.00048828125,-0.0170745849609375
1773790255623612200,13.268612060546875,-0.996917724609375,-0.0003662109375,-0.0177001953125
1773790255643575000,13.288574951171874,-0.9958953857421875,0.0003662109375,-0.0171966552734375
1773790255663539200,13.308539306640625,-0.9958343505859375,-0.00048828125,-0.0160064697265625
1773790255683503000,13.328503173828125,-0.995391845703125,-0.00054931640625,-0.0166168212890625
1773790255703466200,13.34846630859375,-0.99456787109375,-0.0003814697265625,-0.0167083740234375
1773790255723430100,13.36843017578125,-0.9948883056640625,0.0001220703125,-0.0172882080078125
1773790255743393000,13.38839306640625,-0.9956817626953125,-0.0004425048828125,-0.0164642333984375
1773790255763357200,13.408357177734375,-0.9952392578125,0.0002593994140625,-0.0171661376953125
1773790255783320000,13.428320068359374,-0.9971466064453125,0.0006561279296875,-0.0174560546875
1773790255803284200,13.4482841796875,-0.995452880859375,0.0008544921875,-0.0168304443359375
1773790255823246800,13.468246826171875,-0.9951171875,-0.0004119873046875,-0.01885986328125
1773790255843211300,13.488211181640626,-0.996368408203125,0.00048828125,-0.0167999267578125
1773790255863174000,13.508173828125,-0.9954986572265625,0.000152587890625,-0.0178375244140625
1773790255883138300,13.52813818359375,-0.9962615966796875,0.0001068115234375,-0.0172271728515625
1773790255903101000,13.548100830078125,-0.9965057373046875,-0.0006103515625,-0.01715087890625
1773790255923064800,13.56806494140625,-0.9959869384765625,-0.00042724609375,-0.0165557861328125
1773790255943029200,13.588029296875,-0.9951171875,0.0002899169921875,-0.0168609619140625
1773790255962991900,13.607991943359375,-0.9946746826171875,-0.0007781982421875,-0.01739501953125
1773790255982956300,13.627956298828124,-0.9955291748046875,-0.000335693359375,-0.0177459716796875
1773790256002919000,13.6479189453125,-0.9957733154296875,-0.00018310546875,-0.0167999267578125
1773790256022883000,13.667883056640624,-0.995086669921875,0.000244140625,-0.01715087890625
1773790256042846000,13.687845947265625,-0.9963531494140625,-0.000213623046875,-0.0176849365234375
1773790256062809900,13.707809814453125,-0.9955291748046875,0.0001983642578125,-0.01715087890625
1773790256082773000,13.72777294921875,-0.9969635009765625,0.0007171630859375,-0.0159759521484375
1773790256102737000,13.74773681640625,-0.99542236328125,-0.000030517578125,-0.016143798828125
1773790256122700000,13.767699951171876,-0.995635986328125,0.0001983642578125,-0.0174560546875
1773790256142664000,13.787663818359375,-0.99652099609375,0.000091552734375,-0.0168914794921875
1773790256162627000,13.807626953125,-0.995269775390625,0.000244140625,-0.0167999267578125
1773790256182591000,13.827591064453125,-0.9961090087890625,-0.0006866455078125,-0.0181427001953125
1773790256202555100,13.84755517578125,-0.9951934814453125,-0.0004425048828125,-0.0175018310546875
1773790256222518000,13.86751806640625,-0.996063232421875,-0.000518798828125,-0.0169830322265625
1773790256242482000,13.88748193359375,-0.9965667724609375,0.0000457763671875,-0.0157623291015625
1773790256262445000,13.907445068359374,-0.9953765869140625,-0.00042724609375,-0.017364501953125
1773790256282409000,13.927408935546875,-0.996246337890625,0.0005035400390625,-0.016571044921875
1773790256302372000,13.9473720703125,-0.9956207275390625,-0.000152587890625,-0.01678466796875
1773790256322336000,13.9673359375,-0.995391845703125,-0.0005950927734375,-0.0168914794921875
1773790256342299000,13.987298828125,-0.9946441650390625,0.0002593994140625,-0.0166015625
1773790256362263000,14.007262939453126,-0.995513916015625,-0.0009613037109375,-0.0172882080078125
1773790256382226000,14.027225830078125,-0.9960174560546875,0.000244140625,-0.0181732177734375
1773790256402190000,14.047190185546874,-0.99530029296875,-0.0005950927734375,-0.0169219970703125
1773790256422152200,14.067152099609375,-0.9953765869140625,0.0007476806640625,-0.0164031982421875
1773790256442116400,14.087116455078124,-0.995819091796875,-0.000396728515625,-0.017578125
1773790256462080300,14.107080322265626,-0.994720458984375,-0.0013580322265625,-0.01751708984375
1773790256482043400,14.12704345703125,-0.994781494140625,0.000213623046875,-0.0172271728515625
1773790256502007300,14.14700732421875,-0.9965362548828125,0,-0.01641845703125
1773790256521970200,14.16697021484375,-0.9951171875,-0.000457763671875,-0.0175018310546875
1773790256541934300,14.186934326171874,-0.9952392578125,0.0005645751953125,-0.01727294921875
1773790256561897200,14.206897216796875,-0.996368408203125,-0.000213623046875,-0.0159454345703125
1773790256581861400,14.226861328125,-0.995361328125,-0.000732421875,-0.015960693359375
1773790256601824300,14.24682421875,-0.995208740234375,0.000457763671875,-0.0164947509765625
1773790256621788200,14.2667880859375,-0.996551513671875,-0.0003814697265625,-0.016632080078125
1773790256641751300,14.286751220703126,-0.99462890625,0.0005340576171875,-0.0169219970703125
1773790256661715200,14.306715087890625,-0.997039794921875,0.0001678466796875,-0.0164642333984375
1773790256681678300,14.32667822265625,-0.9942169189453125,-0.0011444091796875,-0.017608642578125
1773790256701642200,14.346642333984375,-0.995086669921875,-0.0004119873046875,-0.017181396484375
1773790256721605400,14.36660546875,-0.9954071044921875,0.0002288818359375,-0.016571044921875
1773790256741569300,14.3865693359375,-0.99530029296875,-0.000579833984375,-0.0168609619140625
1773790256761532400,14.406532470703125,-0.9956207275390625,-0.0012969970703125,-0.0169830322265625
1773790256781496300,14.426496337890624,-0.9964599609375,0.0000457763671875,-0.0160675048828125
1773790256801460200,14.446460205078125,-0.9951324462890625,0.000457763671875,-0.0175628662109375
1773790256821423400,14.46642333984375,-0.9953460693359375,-0.000732421875,-0.0178375244140625
1773790256841387300,14.48638720703125,-0.996307373046875,-0.0009765625,-0.0172882080078125
1773790256861350400,14.506350341796875,-0.9962158203125,0.000579833984375,-0.0158843994140625
1773790256881314300,14.526314208984376,-0.995941162109375,0.0000457763671875,-0.017791748046875
1773790256901277200,14.546277099609375,-0.9959564208984375,0.0003662109375,-0.015716552734375
1773790256921241300,14.566241455078124,-0.9965972900390625,-0.000946044921875,-0.0174102783203125
1773790256941204200,14.586204345703125,-0.995574951171875,-0.0002593994140625,-0.016357421875
1773790256961168400,14.60616845703125,-0.99554443359375,0.0003509521484375,-0.0170745849609375
1773790256981131300,14.62613134765625,-0.99700927734375,-0.0004119873046875,-0.0159912109375
1773790257001095200,14.64609521484375,-0.995635986328125,-0.000030517578125,-0.0176849365234375
1773790257021058300,14.666058349609376,-0.9954376220703125,-0.001190185546875,-0.017242431640625
1773790257041022200,14.686022216796875,-0.9955902099609375,0.000274658203125,-0.0173492431640625
1773790257060985300,14.7059853515625,-0.996002197265625,-0.000244140625,-0.0160369873046875
1773790257080949200,14.72594921875,-0.9963531494140625,-0.001434326171875,-0.0161590576171875
1773790257100912400,14.745912353515624,-0.99603271484375,-0.0020751953125,-0.016265869140625
1773790257120876300,14.765876220703126,-0.9964447021484375,-0.0009307861328125,-0.0159759521484375
1773790257140840200,14.785840087890625,-0.99578857421875,-0.0000762939453125,-0.016571044921875
1773790257160803300,14.80580322265625,-0.9957427978515625,0.00018310546875,-0.0168609619140625
1773790257180767200,14.825767333984375,-0.9954681396484375,0.000885009765625,-0.0166778564453125
1773790257200730400,14.84573046875,-0.996337890625,-0.00006103515625,-0.016754150390625
1773790257220694300,14.8656943359375,-0.99578857421875,-0.000732421875,-0.017608642578125
1773790257240657400,14.885657470703125,-0.996490478515625,-0.0011749267578125,-0.017578125
1773790257260621300,14.905621337890626,-0.9962921142578125,0.000640869140625,-0.01806640625
1773790257280584400,14.92558447265625,-0.99566650390625,0.0000762939453125,-0.0168609619140625
1773790257300548400,14.94554833984375,-0.9949188232421875,0.0002899169921875,-0.0179901123046875
1773790257320511200,14.96551123046875,-0.9961700439453125,0.0005340576171875,-0.017608642578125
1773790257340475400,14.985475341796874,-0.994720458984375,0.0010528564453125,-0.0163116455078125
1773790257360438300,15.005438232421875,-0.9956207275390625,0.000091552734375,-0.01727294921875
1773790257380402400,15.02540234375,-0.9962921142578125,-0.0001220703125,-0.0173492431640625
1773790257400365300,15.045365234375,-0.995391845703125,-0.0003204345703125,-0.016937255859375
1773790257420329500,15.06532958984375,-0.995941162109375,0.0000152587890625,-0.0167388916015625
1773790257440292600,15.085292724609374,-0.9949951171875,0.0001068115234375,-0.016845703125
1773790257460256500,15.105256591796875,-0.9956512451171875,0.0001373291015625,-0.0171051025390625
1773790257480219600,15.1252197265625,-0.994903564453125,0.0000152587890625,-0.0173187255859375
1773790257500183600,15.14518359375,-0.995269775390625,0.001068115234375,-0.0170745849609375
1773790257520147500,15.1651474609375,-0.995697021484375,0.000152587890625,-0.0172882080078125
1773790257540110600,15.185110595703126,-0.99554443359375,-0.000823974609375,-0.01654052734375
1773790257560074500,15.205074462890625,-0.9968719482421875,0.0007171630859375,-0.0166168212890625
1773790257580037600,15.22503759765625,-0.9958648681640625,0.00018310546875,-0.0170135498046875
1773790257600001500,15.24500146484375,-0.9966888427734375,-0.0004730224609375,-0.0184326171875
1773790257619964700,15.264964599609375,-0.9958343505859375,-0.000762939453125,-0.0172119140625
1773790257639928600,15.284928466796876,-0.995452880859375,-0.000335693359375,-0.0164642333984375
1773790257659891700,15.3048916015625,-0.9961395263671875,-0.00030517578125,-0.017578125
1773790257679855600,15.324855712890624,-0.9944305419921875,0.0001983642578125,-0.0168609619140625
1773790257699818500,15.344818603515625,-0.9969940185546875,0.00030517578125,-0.017852783203125
1773790257719782700,15.36478271484375,-0.99639892578125,-0.0009002685546875,-0.0166015625
1773790257739745500,15.38474560546875,-0.9942474365234375,-0.000946044921875,-0.015899658203125
1773790257759709700,15.404709716796875,-0.9963226318359375,0.00048828125,-0.0172119140625
1773790257779672600,15.424672607421876,-0.99627685546875,0.000396728515625,-0.0172882080078125
1773790257799636500,15.444636474609375,-0.995941162109375,0.0003662109375,-0.0168304443359375
1773790257819599600,15.464599609375,-0.9951934814453125,0.0006256103515625,-0.0165557861328125
1773790257839563500,15.4845634765625,-0.9954986572265625,-0.0002593994140625,-0.0179443359375
1773790257859526700,15.504526611328124,-0.995513916015625,-0.0000152587890625,-0.017486572265625
1773790257879490600,15.524490478515625,-0.9953155517578125,0.0003509521484375,-0.01654052734375
1773790257899453700,15.54445361328125,-0.99359130859375,-0.000701904296875,-0.0166473388671875
1773790257919417600,15.56441748046875,-0.995697021484375,0.000152587890625,-0.01708984375
1773790257939380700,15.584380615234375,-0.994537353515625,-0.000701904296875,-0.01727294921875
1773790257959344600,15.6043447265625,-0.9957275390625,-0.00018310546875,-0.0173797607421875
1773790257979307800,15.624307861328125,-0.9967498779296875,0.0002899169921875,-0.0168304443359375
1773790257999271700,15.644271728515625,-0.994659423828125,-0.00091552734375,-0.0167236328125
1773790258019235600,15.664235595703126,-0.995819091796875,-0.0007476806640625,-0.0161590576171875
1773790258039198700,15.68419873046875,-0.9960784912109375,-0.0011138916015625,-0.01715087890625
1773790258059162600,15.70416259765625,-0.9954681396484375,0.000701904296875,-0.0172119140625
1773790258079125800,15.724125732421875,-0.995208740234375,0.0001373291015625,-0.0160675048828125
1773790258099089700,15.744089599609374,-0.9957122802734375,0.0000152587890625,-0.0172271728515625
1773790258119052500,15.764052490234375,-0.9960784912109375,-0.00006103515625,-0.0171051025390625
1773790258139016700,15.7840166015625,-0.99554443359375,0.0002593994140625,-0.01763916015625
1773790258158979600,15.8039794921875,-0.9961395263671875,-0.0005340576171875,-0.0169525146484375
1773790258178943700,15.82394384765625,-0.996185302734375,-0.0004119873046875,-0.0176849365234375
1773790258198906600,15.84390673828125,-0.99578857421875,0.0011138916015625,-0.017669677734375
1773790258218870500,15.86387060546875,-0.9960784912109375,-0.0005340576171875,-0.01629638671875
1773790258238833700,15.883833740234374,-0.995269775390625,0.0009918212890625,-0.0175323486328125
1773790258258797600,15.903797607421875,-0.996490478515625,0.000335693359375,-0.0164642333984375
1773790258278760700,15.9237607421875,-0.9967041015625,-0.00042724609375,-0.01654052734375
1773790258298724600,15.943724609375,-0.9954986572265625,-0.0002593994140625,-0.0162506103515625
1773790258318687700,15.963687744140625,-0.997528076171875,0.00054931640625,-0.016510009765625
1773790258338651600,15.983651611328124,-0.9954833984375,0.000213623046875,-0.0174713134765625
1773790258358614500,16.003614501953123,-0.99627685546875,-0.0004730224609375,-0.0176239013671875
1773790258378578700,16.02357861328125,-0.9955291748046875,-0.000274658203125,-0.017822265625
1773790258398541600,16.04354150390625,-0.9962921142578125,-0.000213623046875,-0.01690673828125
1773790258418505700,16.063505615234376,-0.9948272705078125,-0.00006103515625,-0.01904296875
1773790258438468600,16.083468505859376,-0.9965362548828125,-0.0004730224609375,-0.0159912109375
1773790258458432800,16.103432861328123,-0.9954681396484375,0.0009765625,-0.0164947509765625
1773790258478395600,16.123395751953126,-0.9951324462890625,0.000701904296875,-0.0167999267578125
1773790258498359800,16.14335986328125,-0.995513916015625,0.000823974609375,-0.0171051025390625
1773790258518322700,16.16332275390625,-0.995697021484375,-0.0009307861328125,-0.017120361328125
1773790258538286600,16.18328662109375,-0.9950714111328125,0.000701904296875,-0.01690673828125
1773790258558249700,16.203249755859375,-0.9962921142578125,0.000579833984375,-0.0163116455078125
1773790258578213600,16.223213623046874,-0.9960784912109375,-0.0006103515625,-0.0175628662109375
1773790258598176800,16.2431767578125,-0.99688720703125,0.000732421875,-0.0163726806640625
1773790258618140700,16.263140625,-0.995208740234375,-0.000823974609375,-0.0170135498046875
1773790258638103800,16.283103759765623,-0.995849609375,0.000396728515625,-0.01715087890625
1773790258658067700,16.303067626953126,-0.9960174560546875,0,-0.016571044921875
1773790258678030800,16.32303076171875,-0.99652099609375,-0.0001983642578125,-0.017913818359375
1773790258697994800,16.342994873046877,-0.995330810546875,-0.0013427734375,-0.0168304443359375
1773790258717958700,16.362958740234376,-0.99566650390625,0.0003662109375,-0.0162353515625
1773790258737921800,16.382921875,-0.9958343505859375,0.0000152587890625,-0.0169525146484375
1773790258757885700,16.4028857421875,-0.994781494140625,-0.000640869140625,-0.0175323486328125
1773790258777848800,16.422848876953125,-0.9949188232421875,0.0004119873046875,-0.0162200927734375
1773790258797812700,16.442812744140625,-0.9962615966796875,0,-0.017486572265625
1773790258817775600,16.462775634765624,-0.9965057373046875,-0.0001220703125,-0.017333984375
1773790258837739800,16.48273974609375,-0.9966888427734375,0.000244140625,-0.0171356201171875
1773790258857702700,16.50270263671875,-0.99542236328125,-0.0004425048828125,-0.0164794921875
1773790258877666800,16.522666748046873,-0.9960174560546875,0.0006561279296875,-0.016387939453125
1773790258897629700,16.542629638671876,-0.9959716796875,0.0001220703125,-0.0174560546875
1773790258917593600,16.562593505859375,-0.9955596923828125,0.00103759765625,-0.01629638671875
1773790258937556700,16.582556640625,-0.99560546875,0.0003509521484375,-0.0172576904296875
1773790258957520600,16.602520751953126,-0.9964447021484375,0.0000762939453125,-0.017364501953125
1773790258977483800,16.62248388671875,-0.9951171875,-0.0008697509765625,-0.0161590576171875
1773790258997447700,16.64244775390625,-0.994537353515625,-0.0002288818359375,-0.01702880859375
1773790259017410800,16.662410888671875,-0.9959716796875,-0.00067138671875,-0.017364501953125
1773790259037374700,16.682374755859374,-0.996368408203125,-0.000091552734375,-0.0167694091796875
1773790259057337900,16.702337890625,-0.9943695068359375,-0.00042724609375,-0.0154571533203125
1773790259077301800,16.7223017578125,-0.9961090087890625,-0.0010986328125,-0.0164794921875
1773790259097264600,16.7422646484375,-0.994781494140625,-0.000640869140625,-0.01751708984375
1773790259117228800,16.762228759765627,-0.9962158203125,-0.0001220703125,-0.016754150390625
1773790259137191700,16.782191650390626,-0.995574951171875,-0.00018310546875,-0.0170440673828125
1773790259157155800,16.80215576171875,-0.996246337890625,0.0007476806640625,-0.0173187255859375
1773790259177118700,16.82211865234375,-0.995880126953125,-0.0003204345703125,-0.0186767578125
1773790259197083000,16.842082763671876,-0.9959564208984375,0.0006866455078125,-0.0163421630859375
1773790259217045800,16.862045654296875,-0.994781494140625,-0.000579833984375,-0.0169525146484375
1773790259237009700,16.882009765625,-0.995819091796875,-0.00067138671875,-0.01690673828125
1773790259256972800,16.901972900390625,-0.9959869384765625,-0.0004425048828125,-0.0176544189453125
1773790259276935700,16.921935791015624,-0.997589111328125,-0.0001678466796875,-0.0161590576171875
1773790259296899800,16.94189990234375,-0.9947052001953125,-0.0010833740234375,-0.017364501953125
1773790259316862500,16.961862548828126,-0.996612548828125,-0.0010528564453125,-0.0176849365234375
1773790259336827000,16.981826904296874,-0.994964599609375,-0.0004425048828125,-0.016754150390625
1773790259356789500,17.00178955078125,-0.99676513671875,-0.0008392333984375,-0.0164337158203125
1773790259376753700,17.021753662109376,-0.995452880859375,0.0001220703125,-0.0166168212890625
1773790259396716500,17.041716552734375,-0.9952392578125,0.0010223388671875,-0.016937255859375
1773790259416680400,17.061680419921874,-0.99591064453125,-0.001220703125,-0.0167236328125
1773790259436643300,17.081643310546873,-0.995849609375,-0.00091552734375,-0.0165252685546875
1773790259456607200,17.101607177734376,-0.995452880859375,0.0000762939453125,-0.017852783203125
1773790259476570400,17.1215703125,-0.995208740234375,-0.0005950927734375,-0.016998291015625
1773790259496534300,17.1415341796875,-0.9945220947265625,0.0005645751953125,-0.0169830322265625
1773790259516497400,17.161497314453126,-0.996185302734375,0.0003662109375,-0.017059326171875
1773790259536461300,17.18146142578125,-0.99627685546875,0.0006866455078125,-0.016754150390625
1773790259556424400,17.201424560546876,-0.995330810546875,0.0004730224609375,-0.017578125
1773790259576388400,17.221388427734375,-0.996185302734375,-0.000030517578125,-0.0178680419921875
1773790259596351500,17.2413515625,-0.9958648681640625,-0.00115966796875,-0.0163421630859375
1773790259616315400,17.2613154296875,-0.9953155517578125,-0.0004119873046875,-0.0170135498046875
1773790259636278300,17.2812783203125,-0.9955291748046875,0.0001068115234375,-0.016204833984375
1773790259656242400,17.301242431640624,-0.9955902099609375,-0.000274658203125,-0.0172119140625
1773790259676205300,17.321205322265627,-0.99591064453125,-0.0001373291015625,-0.0166473388671875
1773790259696169500,17.34116943359375,-0.9965667724609375,-0.0001220703125,-0.0175933837890625
1773790259716132400,17.36113232421875,-0.99627685546875,0.00048828125,-0.0177154541015625
1773790259736096300,17.38109619140625,-0.995452880859375,0.0004425048828125,-0.016204833984375
1773790259756059400,17.401059326171875,-0.995086669921875,0.00018310546875,-0.016387939453125
1773790259776023300,17.421023193359375,-0.9954071044921875,0.0001678466796875,-0.0176239013671875
1773790259795986400,17.440986328125,-0.995330810546875,0.0000762939453125,-0.0181884765625
1773790259815950300,17.460950439453125,-0.996429443359375,0.0007476806640625,-0.016876220703125
1773790259835913500,17.48091357421875,-0.996246337890625,0.0001068115234375,-0.016510009765625
1773790259855877400,17.50087744140625,-0.993804931640625,0.0003204345703125,-0.016571044921875
1773790259875840500,17.520840576171874,-0.9949798583984375,0.0003509521484375,-0.0172119140625
1773790259895804400,17.540804443359374,-0.994903564453125,-0.0003814697265625,-0.0169830322265625
1773790259915767600,17.560767578125,-0.995635986328125,-0.0007476806640625,-0.0165863037109375
1773790259935731500,17.5807314453125,-0.9966278076171875,0.0003204345703125,-0.0167999267578125
1773790259955694300,17.6006943359375,-0.996063232421875,-0.0005340576171875,-0.0182952880859375
1773790259975658500,17.620658447265626,-0.9964447021484375,-0.000152587890625,-0.0166778564453125
1773790259995621400,17.640621337890625,-0.9947509765625,-0.0003662109375,-0.0169677734375
1773790260015585500,17.66058544921875,-0.9959716796875,0.0001678466796875,-0.017242431640625
1773790260035548400,17.68054833984375,-0.994598388671875,0.0001068115234375,-0.0174407958984375
1773790260055512300,17.70051220703125,-0.99554443359375,-0.001556396484375,-0.0176849365234375
1773790260075475500,17.720475341796874,-0.994659423828125,0.0005340576171875,-0.0174560546875
1773790260095439400,17.740439453125,-0.9965972900390625,-0.0003662109375,-0.016845703125
1773790260115402500,17.760402587890624,-0.9964141845703125,-0.00048828125,-0.0169830322265625
1773790260135366400,17.780366455078124,-0.99560546875,0.00079345703125,-0.01727294921875
1773790260155329500,17.80032958984375,-0.99615478515625,0.000244140625,-0.01800537109375
1773790260175293400,17.82029345703125,-0.9957733154296875,0.0004119873046875,-0.0178985595703125
1773790260195256300,17.84025634765625,-0.9949493408203125,-0.0000762939453125,-0.017059326171875
1773790260215220500,17.860220458984376,-0.996063232421875,-0.0000457763671875,-0.0176849365234375
1773790260235183400,17.880183349609375,-0.9958953857421875,-0.000946044921875,-0.016754150390625
1773790260255147500,17.9001474609375,-0.9939727783203125,0.00030517578125,-0.0167388916015625
1773790260275110100,17.920110107421873,-0.9962158203125,-0.00006103515625,-0.01708984375
1773790260295074600,17.940074462890625,-0.9962615966796875,0.0007171630859375,-0.0166168212890625
1773790260315037200,17.960037109375,-0.995452880859375,0.0001678466796875,-0.01776123046875
1773790260335001300,17.98000146484375,-0.99639892578125,0.000457763671875,-0.0169525146484375
1773790260354964200,17.999964111328126,-0.99639892578125,0.0002593994140625,-0.017120361328125
1773790260374927400,18.01992724609375,-0.99639892578125,-0.0010833740234375,-0.0161590576171875
1773790260394891300,18.039891357421876,-0.9959869384765625,-0.0007476806640625,-0.0178375244140625
1773790260414854400,18.0598544921875,-0.995361328125,-0.0000762939453125,-0.0185546875
1773790260434818800,18.07981884765625,-0.994903564453125,-0.00067138671875,-0.018585205078125
1773790260454781700,18.09978173828125,-0.9959716796875,-0.0006256103515625,-0.017578125
1773790260474745900,18.119745849609377,-0.995391845703125,-0.001495361328125,-0.0172882080078125
1773790260494708700,18.139708740234376,-0.9963226318359375,-0.00054931640625,-0.0177154541015625
1773790260514672600,18.159672607421875,-0.9954986572265625,-0.00048828125,-0.01739501953125
1773790260534635800,18.1796357421875,-0.99542236328125,-0.0007476806640625,-0.0177764892578125
1773790260554599700,18.199599609375,-0.994232177734375,-0.0001373291015625,-0.0170745849609375
1773790260574562800,18.219562744140624,-0.9946441650390625,0.0010223388671875,-0.016815185546875
1773790260594526700,18.239526611328124,-0.9953155517578125,-0.0005035400390625,-0.0167999267578125
1773790260614489900,18.25948974609375,-0.9958343505859375,-0.000274658203125,-0.016845703125
1773790260634453800,18.279453857421874,-0.9953460693359375,0.0008392333984375,-0.0169677734375
1773790260654417000,18.2994169921875,-0.9951629638671875,0.0003814697265625,-0.0170135498046875
1773790260674380800,18.319380859375,-0.9960174560546875,0.0011138916015625,-0.017608642578125
1773790260694343700,18.33934375,-0.9952392578125,-0.00048828125,-0.01666259765625
1773790260714307800,18.359307861328126,-0.9963226318359375,-0.0002593994140625,-0.0172882080078125
1773790260734270700,18.379270751953126,-0.9951629638671875,0.000091552734375,-0.0164794921875
1773790260754235000,18.39923486328125,-0.9962310791015625,-0.0002288818359375,-0.017120361328125
1773790260774197800,18.41919775390625,-0.9952239990234375,-0.0001983642578125,-0.0174407958984375
1773790260794162000,18.439161865234375,-0.99615478515625,0.000030517578125,-0.0171661376953125
1773790260814124800,18.459124755859374,-0.996124267578125,0.00006103515625,-0.0170135498046875
1773790260834088700,18.479088623046874,-0.9944915771484375,0.000640869140625,-0.016754150390625
1773790260854051800,18.4990517578125,-0.99652099609375,-0.000091552734375,-0.0173187255859375
1773790260874015700,18.519015625,-0.9957427978515625,-0.00091552734375,-0.0166015625
1773790260893979000,18.538978759765627,-0.9954986572265625,-0.000396728515625,-0.016937255859375
1773790260913942800,18.55894287109375,-0.99542236328125,-0.000732421875,-0.0171661376953125
1773790260933906000,18.578906005859373,-0.994873046875,-0.0000152587890625,-0.0167999267578125
1773790260953869800,18.598869873046876,-0.9954681396484375,-0.0005950927734375,-0.0161285400390625
1773790260973833000,18.6188330078125,-0.9953155517578125,-0.001129150390625,-0.017974853515625
1773790260993796900,18.638796875,-0.9956207275390625,0,-0.0163421630859375
1773790261013759500,18.658759521484374,-0.9947509765625,-0.000152587890625,-0.016265869140625
1773790261033724000,18.678723876953125,-0.9945068359375,0.000091552734375,-0.017120361328125
1773790261053686500,18.6986865234375,-0.9950714111328125,0.0008392333984375,-0.016448974609375
1773790261073651000,18.71865087890625,-0.996734619140625,-0.000823974609375,-0.01690673828125
1773790261093613600,18.738613525390626,-0.9958038330078125,0.000274658203125,-0.017578125
1773790261113577700,18.75857763671875,-0.996124267578125,0,-0.0167388916015625
1773790261133540600,18.77854052734375,-0.9955291748046875,0.0000762939453125,-0.0164642333984375
1773790261153504500,18.79850439453125,-0.99615478515625,-0.0004119873046875,-0.0179290771484375
1773790261173467600,18.818467529296875,-0.9950408935546875,0.00103759765625,-0.016387939453125
1773790261193431600,18.838431640625,-0.99688720703125,0.0002288818359375,-0.0171356201171875
1773790261213394700,18.858394775390625,-0.9971466064453125,0.00048828125,-0.0166015625
1773790261233357600,18.878357666015624,-0.996124267578125,0.0001373291015625,-0.0164947509765625
1773790261253321700,18.89832177734375,-0.995513916015625,-0.0003814697265625,-0.0172119140625
1773790261273284600,18.91828466796875,-0.9956207275390625,0.00018310546875,-0.0177459716796875
1773790261293248800,18.938248779296874,-0.99578857421875,-0.0004730224609375,-0.0164031982421875
1773790261313211600,18.958211669921877,-0.996490478515625,0.000885009765625,-0.0159149169921875
1773790261333175600,18.978175537109376,-0.9945220947265625,0.0005035400390625,-0.0172119140625
1773790261353138700,18.998138671875,-0.995697021484375,0.0007171630859375,-0.0171051025390625
1773790261373102600,19.0181025390625,-0.99566650390625,0.00030517578125,-0.0175628662109375
1773790261393065700,19.038065673828125,-0.997161865234375,-0.0003662109375,-0.01629638671875
1773790261413029600,19.058029541015625,-0.9950408935546875,0.0001220703125,-0.0184173583984375
1773790261432992500,19.077992431640624,-0.99664306640625,0.000030517578125,-0.0165252685546875
1773790261452956400,19.097956298828127,-0.995361328125,0.0006103515625,-0.0176239013671875
1773790261472919600,19.11791943359375,-0.9962615966796875,0.000030517578125,-0.0177001953125
1773790261492883500,19.137883544921873,-0.9951629638671875,0.00091552734375,-0.0159759521484375
1773790261512846600,19.1578466796875,-0.99591064453125,-0.0005035400390625,-0.0184478759765625
1773790261532810500,19.177810546875,-0.996002197265625,-0.00042724609375,-0.0168304443359375
1773790261552773000,19.197773193359374,-0.9954833984375,-0.0000762939453125,-0.0165863037109375
1773790261572737500,19.217737548828126,-0.9955596923828125,-0.0007476806640625,-0.017425537109375
1773790261592700200,19.2377001953125,-0.9971466064453125,0.00103759765625,-0.0170745849609375
1773790261612664600,19.25766455078125,-0.996002197265625,0.0006103515625,-0.01788330078125
1773790261632627200,19.277627197265623,-0.994415283203125,-0.0006103515625,-0.016998291015625
1773790261652591400,19.29759130859375,-0.99603271484375,-0.0000152587890625,-0.01702880859375
1773790261672554200,19.31755419921875,-0.995513916015625,-0.0009307861328125,-0.0168609619140625
1773790261692518100,19.33751806640625,-0.994903564453125,0.0001373291015625,-0.0175323486328125
1773790261712481300,19.357481201171876,-0.9949188232421875,-0.0005035400390625,-0.0162506103515625
1773790261732445200,19.377445068359375,-0.99566650390625,-0.00018310546875,-0.0167388916015625
1773790261752408300,19.397408203125,-0.9945526123046875,-0.0002593994140625,-0.016937255859375
1773790261772372200,19.417372314453125,-0.994598388671875,-0.001434326171875,-0.0163726806640625
1773790261792335400,19.43733544921875,-0.9960784912109375,-0.001007080078125,-0.0166168212890625
1773790261812298200,19.45729833984375,-0.9952392578125,0.0008087158203125,-0.01727294921875
1773790261832262400,19.477262451171875,-0.9959869384765625,-0.0008697509765625,-0.0177154541015625
1773790261852225300,19.497225341796874,-0.99591064453125,-0.0005950927734375,-0.0160369873046875
1773790261872189200,19.517189208984377,-0.99609375,0.001434326171875,-0.0167999267578125
1773790261892152300,19.53715234375,-0.9958038330078125,-0.0001373291015625,-0.0165557861328125
1773790261912116200,19.5571162109375,-0.99554443359375,0.0004425048828125,-0.0162353515625
1773790261932079400,19.577079345703126,-0.994476318359375,-0.0003204345703125,-0.0176239013671875
1773790261952043300,19.597043212890625,-0.9937896728515625,-0.00115966796875,-0.0168914794921875
1773790261972006400,19.61700634765625,-0.9953155517578125,0.0008544921875,-0.0165863037109375
1773790261991970300,19.63697021484375,-0.996734619140625,-0.000762939453125,-0.016937255859375
1773790262011933400,19.656933349609375,-0.996063232421875,-0.0006103515625,-0.0168304443359375
1773790262031897300,19.6768974609375,-0.995452880859375,0.00103759765625,-0.0169830322265625
1773790262051860200,19.696860107421877,-0.9959716796875,-0.0005645751953125,-0.017974853515625
1773790262071824400,19.716824462890624,-0.9947967529296875,0.000335693359375,-0.01702880859375
1773790262091787300,19.736787353515624,-0.996429443359375,0.0006103515625,-0.0177459716796875
1773790262111751400,19.75675146484375,-0.9954681396484375,-0.000457763671875,-0.0167999267578125
1773790262131714300,19.77671435546875,-0.9953155517578125,-0.000823974609375,-0.0176239013671875
1773790262151678200,19.79667822265625,-0.9958648681640625,-0.0005645751953125,-0.01739501953125
1773790262171641300,19.816641357421876,-0.995880126953125,-0.000213623046875,-0.0166778564453125
1773790262191605200,19.836605224609375,-0.9961700439453125,-0.0005340576171875,-0.0186004638671875
1773790262211568400,19.856568359375,-0.9958343505859375,-0.000030517578125,-0.0161590576171875
1773790262231532300,19.8765322265625,-0.9956817626953125,-0.000396728515625,-0.01763916015625
1773790262251495400,19.896495361328125,-0.99639892578125,-0.0000457763671875,-0.01727294921875
1773790262271458300,19.916458251953124,-0.995635986328125,-0.000213623046875,-0.017242431640625
1773790262291422500,19.93642236328125,-0.9962005615234375,0.00048828125,-0.0176544189453125
1773790262311385300,19.95638525390625,-0.9962158203125,0.000091552734375,-0.0183563232421875
1773790262331349200,19.976349365234373,-0.9969482421875,-0.00067138671875,-0.017913818359375
1773790262351312400,19.9963125,-0.9959716796875,-0.00054931640625,-0.017303466796875
1773790262371276300,20.0162763671875,-0.9962158203125,0.00079345703125,-0.0169830322265625
1773790262391239400,20.036239501953126,-0.99627685546875,0.0006103515625,-0.0158233642578125
1773790262411203300,20.056203369140626,-0.99609375,0.0004425048828125,-0.0168609619140625
1773790262431167200,20.076167236328125,-0.9971160888671875,0.0001220703125,-0.016387939453125
1773790262451131100,20.096131103515624,-0.995697021484375,-0.0004425048828125,-0.017852783203125
1773790262471094000,20.116093994140623,-0.9970550537109375,0.0005340576171875,-0.017730712890625
1773790262491058200,20.13605810546875,-0.9958038330078125,-0.0011138916015625,-0.0172576904296875
1773790262511021000,20.15602099609375,-0.9965972900390625,-0.0006561279296875,-0.0166015625
1773790262530985200,20.175985107421877,-0.9949951171875,0.00146484375,-0.0166473388671875
1773790262550948000,20.195947998046876,-0.9965362548828125,0.00079345703125,-0.017059326171875
1773790262570912000,20.215912109375,-0.99530029296875,-0.0008392333984375,-0.01690673828125
1773790262590875100,20.235875244140626,-0.9964752197265625,-0.0003662109375,-0.016265869140625
1773790262610839000,20.255839111328125,-0.996368408203125,-0.0006561279296875,-0.0172119140625
1773790262630802200,20.27580224609375,-0.99566650390625,-0.00067138671875,-0.0174102783203125
1773790262650766000,20.29576611328125,-0.9949798583984375,0.0008087158203125,-0.0174713134765625
1773790262670729200,20.315729248046875,-0.996124267578125,-0.0004425048828125,-0.0172882080078125
1773790262690693000,20.335693115234374,-0.995269775390625,-0.0003204345703125,-0.01629638671875
1773790262710656300,20.35565625,-0.9959716796875,0.000701904296875,-0.016326904296875
1773790262730620200,20.3756201171875,-0.9952850341796875,0.0010223388671875,-0.0164642333984375
1773790262750583300,20.395583251953123,-0.9961395263671875,-0.000579833984375,-0.016876220703125
1773790262770547200,20.415547119140626,-0.996490478515625,-0.0009613037109375,-0.0172576904296875
1773790262790510000,20.435510009765625,-0.9960174560546875,0.00115966796875,-0.0176849365234375
1773790262810473000,20.455472900390625,-0.9945526123046875,0.00054931640625,-0.0173797607421875
1773790262830436900,20.475436767578124,-0.99591064453125,0.0003204345703125,-0.01727294921875
1773790262850400000,20.49539990234375,-0.9956207275390625,0.0009765625,-0.0177001953125
1773790262870364000,20.515364013671874,-0.9960784912109375,-0.000579833984375,-0.017242431640625
1773790262890327000,20.5353271484375,-0.9953155517578125,-0.0001068115234375,-0.0169830322265625
1773790262910291000,20.555291015625,-0.997467041015625,0.000640869140625,-0.0173187255859375
1773790262930254000,20.575254150390624,-0.9940338134765625,0.0003662109375,-0.017059326171875
1773790262950218000,20.595218017578127,-0.995880126953125,0.0000152587890625,-0.017242431640625
1773790262970180900,20.615180908203126,-0.995086669921875,0.001068115234375,-0.017364501953125
1773790262990145000,20.63514501953125,-0.99627685546875,-0.000885009765625,-0.017791748046875
1773790263010108000,20.65510791015625,-0.994384765625,-0.0001983642578125,-0.017181396484375
1773790263030072000,20.675072021484375,-0.9951324462890625,-0.0000457763671875,-0.0169830322265625
1773790263050035000,20.695034912109374,-0.9944610595703125,-0.00006103515625,-0.0164642333984375
1773790263069999000,20.7149990234375,-0.9947662353515625,0.000091552734375,-0.015655517578125
1773790263089962000,20.7349619140625,-0.9951171875,-0.0008392333984375,-0.01727294921875
1773790263109926000,20.75492578125,-0.995361328125,0.0003204345703125,-0.016082763671875
1773790263129889000,20.774888916015627,-0.994720458984375,-0.0007476806640625,-0.0172576904296875
1773790263149853000,20.79485302734375,-0.99609375,0.000823974609375,-0.0164337158203125
1773790263169816000,20.814816162109373,-0.9960479736328125,0.0001373291015625,-0.01690673828125
1773790263189780000,20.834780029296876,-0.996002197265625,0.000335693359375,-0.01751708984375
1773790263209743000,20.8547431640625,-0.995635986328125,0.000579833984375,-0.017303466796875
1773790263229707000,20.87470703125,-0.9957427978515625,-0.000274658203125,-0.0185699462890625
1773790263249670100,20.894670166015626,-0.9955902099609375,0.000091552734375,-0.0160369873046875
1773790263269634000,20.914634033203125,-0.995269775390625,0.000030517578125,-0.0176544189453125
1773790263289597000,20.934596923828124,-0.99566650390625,0.000274658203125,-0.0175018310546875
1773790263309561000,20.95456103515625,-0.9944915771484375,-0.00067138671875,-0.0171966552734375
1773790263329524000,20.97452392578125,-0.9956207275390625,0.0002593994140625,-0.01751708984375
1773790263349488000,20.994488037109374,-0.99432373046875,-0.000244140625,-0.017303466796875
1773790263369451000,21.014450927734377,-0.9951019287109375,-0.0011138916015625,-0.01812744140625
1773790263389415000,21.034414794921876,-0.99517822265625,0.000518798828125,-0.0166168212890625
1773790263409378000,21.0543779296875,-0.9953155517578125,0.00030517578125,-0.0171356201171875
1773790263429342000,21.074342041015626,-0.9964752197265625,0.00030517578125,-0.01708984375
1773790263449306000,21.09430615234375,-0.99493408203125,0.0001373291015625,-0.0161895751953125
1773790263469269000,21.11426904296875,-0.9963226318359375,0.000274658203125,-0.0171356201171875
1773790263489232100,21.134232177734376,-0.9951934814453125,-0.0000762939453125,-0.0167694091796875
1773790263509196000,21.154196044921875,-0.9953155517578125,-0.000823974609375,-0.0169677734375
1773790263529160000,21.174159912109374,-0.996429443359375,-0.0004730224609375,-0.0171966552734375
1773790263549123000,21.194123046875,-0.9957122802734375,0.000091552734375,-0.0174102783203125
1773790263569087000,21.2140869140625,-0.9961700439453125,0.0000457763671875,-0.017303466796875
1773790263589050000,21.234050048828124,-0.9969024658203125,-0.00048828125,-0.016510009765625
1773790263609014000,21.254013916015627,-0.996826171875,-0.000244140625,-0.01751708984375
1773790263628977200,21.27397705078125,-0.99432373046875,-0.000823974609375,-0.0177001953125
1773790263648941000,21.293941162109373,-0.995391845703125,0.00067138671875,-0.0179901123046875
1773790263668904200,21.313904296875,-0.9958038330078125,-0.00042724609375,-0.0169677734375
1773790263688868000,21.3338681640625,-0.9962005615234375,0.000823974609375,-0.0160980224609375
1773790263708831000,21.3538310546875,-0.99560546875,-0.0003662109375,-0.01739501953125
1773790263728795100,21.373795166015626,-0.995880126953125,0.0000457763671875,-0.01708984375
1773790263748758000,21.393758056640625,-0.995513916015625,-0.00006103515625,-0.017974853515625
1773790263768722200,21.41372216796875,-0.9959869384765625,0.000946044921875,-0.01568603515625
1773790263788685000,21.43368505859375,-0.9949493408203125,-0.0003204345703125,-0.016632080078125
1773790263808649000,21.45364892578125,-0.9959869384765625,0.0010528564453125,-0.0173187255859375
1773790263828612000,21.473612060546873,-0.9957122802734375,0.0003509521484375,-0.0168914794921875
1773790263848576000,21.493575927734376,-0.99566650390625,-0.000274658203125,-0.016571044921875
1773790263868539100,21.5135390625,-0.9948272705078125,-0.0005035400390625,-0.01800537109375
1773790263888503000,21.5335029296875,-0.99627685546875,0.0003509521484375,-0.0176239013671875
1773790263908466000,21.5534658203125,-0.9965972900390625,0.0005645751953125,-0.01629638671875
1773790263928430000,21.57343017578125,-0.9956207275390625,0.0004425048828125,-0.01727294921875
1773790263948393000,21.59339306640625,-0.995941162109375,0.0009002685546875,-0.0165557861328125
1773790263968357000,21.613357177734375,-0.9947052001953125,-0.0002593994140625,-0.017791748046875
1773790263988320000,21.633320068359374,-0.994873046875,-0.00018310546875,-0.0166168212890625
1773790264008284200,21.6532841796875,-0.995941162109375,0.0002288818359375,-0.0162353515625
1773790264028246800,21.673246826171876,-0.996185302734375,-0.0006256103515625,-0.0176544189453125
1773790264048211000,21.6932109375,-0.9951629638671875,-0.0002288818359375,-0.017120361328125
1773790264068173800,21.713173828125,-0.99578857421875,-0.0009765625,-0.0179290771484375
1773790264088138000,21.733137939453126,-0.995513916015625,0.0005035400390625,-0.01739501953125
1773790264108100900,21.753100830078125,-0.99530029296875,-0.001007080078125,-0.01580810546875
1773790264128064800,21.773064697265625,-0.99530029296875,0.0004425048828125,-0.016265869140625
1773790264148028000,21.79302783203125,-0.9949493408203125,0.0009002685546875,-0.0172271728515625
1773790264167991800,21.81299169921875,-0.996673583984375,0.0004425048828125,-0.01708984375
1773790264187955000,21.832954833984374,-0.9961395263671875,0.000213623046875,-0.0169219970703125
1773790264207918800,21.8529189453125,-0.9965972900390625,0.0001220703125,-0.0156402587890625
1773790264227882000,21.872882080078124,-0.9957122802734375,-0.000732421875,-0.0167999267578125
1773790264247846000,21.892845947265624,-0.9971160888671875,0.0002593994140625,-0.0177001953125
1773790264267809800,21.912809814453126,-0.9954376220703125,0.000732421875,-0.0170135498046875
1773790264287773000,21.93277294921875,-0.99603271484375,-0.00048828125,-0.0170745849609375
1773790264307736800,21.95273681640625,-0.99627685546875,0.000579833984375,-0.01629638671875
1773790264327700000,21.972699951171876,-0.9960479736328125,0.000152587890625,-0.0189971923828125
1773790264347664000,21.992663818359375,-0.996612548828125,-0.0004119873046875,-0.0176544189453125
1773790264367627000,22.012626953125,-0.995269775390625,0.0012664794921875,-0.0171356201171875
1773790264387591000,22.0325908203125,-0.9959716796875,-0.0001373291015625,-0.0158843994140625
1773790264407553800,22.0525537109375,-0.9964141845703125,0.000701904296875,-0.016937255859375
1773790264427517700,22.072517578125,-0.996185302734375,0.00042724609375,-0.0172271728515625
1773790264447480600,22.09248046875,-0.996551513671875,-0.000335693359375,-0.0171356201171875
1773790264467444700,22.11244482421875,-0.996124267578125,-0.0005340576171875,-0.016876220703125
1773790264487407600,22.13240771484375,-0.9956512451171875,0.000335693359375,-0.0166168212890625
1773790264507371800,22.152371826171876,-0.9945220947265625,0.001251220703125,-0.0169830322265625
1773790264527334700,22.172334716796875,-0.9952850341796875,0.0003509521484375,-0.0160675048828125
1773790264547298600,22.192298583984375,-0.9952239990234375,0.0008392333984375,-0.016815185546875
1773790264567261700,22.21226171875,-0.995361328125,-0.000030517578125,-0.016571044921875
1773790264587225600,22.2322255859375,-0.9965057373046875,-0.0008392333984375,-0.0175933837890625
1773790264607188700,22.252188720703124,-0.9959869384765625,-0.00006103515625,-0.0167236328125
1773790264627152600,22.272152587890623,-0.9963531494140625,0.0000457763671875,-0.016448974609375
1773790264647115800,22.29211572265625,-0.996826171875,-0.00030517578125,-0.0164337158203125
1773790264667079700,22.31207958984375,-0.9954986572265625,-0.0004425048828125,-0.0164794921875
1773790264687042800,22.332042724609376,-0.9947967529296875,-0.0002288818359375,-0.01763916015625
1773790264707006700,22.3520068359375,-0.996551513671875,0,-0.017913818359375
1773790264726969600,22.371969482421875,-0.9958648681640625,0.00042724609375,-0.017242431640625
1773790264746933800,22.391933837890626,-0.9950103759765625,-0.0013427734375,-0.0172576904296875
1773790264766896600,22.411896728515625,-0.9954833984375,-0.0004425048828125,-0.0164642333984375
1773790264786860800,22.43186083984375,-0.9964141845703125,-0.0006103515625,-0.0172576904296875
1773790264806824700,22.45182470703125,-0.996612548828125,0.0000152587890625,-0.016326904296875
1773790264826787600,22.47178759765625,-0.996063232421875,-0.00048828125,-0.0182342529296875
1773790264846751700,22.491751708984374,-0.99554443359375,-0.00006103515625,-0.017486572265625
1773790264866714600,22.511714599609373,-0.99481201171875,-0.0004119873046875,-0.0164642333984375
1773790264886678800,22.5316787109375,-0.9946746826171875,-0.0001678466796875,-0.0173797607421875
1773790264906641700,22.5516416015625,-0.9956512451171875,0.0004425048828125,-0.017181396484375
1773790264926605800,22.571605712890626,-0.9958953857421875,0.000030517578125,-0.0162811279296875
1773790264946568700,22.591568603515626,-0.9942779541015625,0,-0.0171051025390625
1773790264966532600,22.61153271484375,-0.99542236328125,-0.0006561279296875,-0.0165252685546875
1773790264986495700,22.631495849609376,-0.996795654296875,0.0011138916015625,-0.016754150390625
1773790265006459600,22.651459716796875,-0.9948272705078125,0.0004119873046875,-0.017913818359375
1773790265026422800,22.6714228515625,-0.996368408203125,0.000762939453125,-0.01812744140625
1773790265046386700,22.69138671875,-0.9961395263671875,-0.0003204345703125,-0.0166015625
1773790265066349800,22.711349853515625,-0.9950103759765625,-0.0009613037109375,-0.015716552734375
1773790265086313700,22.731313720703124,-0.9953460693359375,-0.00048828125,-0.0166168212890625
1773790265106276900,22.75127685546875,-0.9955902099609375,-0.001068115234375,-0.0167083740234375
1773790265126240800,22.77124072265625,-0.9957122802734375,0.000152587890625,-0.0168914794921875
1773790265146203600,22.79120361328125,-0.9962310791015625,-0.0001220703125,-0.016571044921875
1773790265166167800,22.811167724609376,-0.9958343505859375,0.000091552734375,-0.0159149169921875
1773790265186130700,22.831130615234375,-0.99627685546875,0.0001068115234375,-0.016357421875
1773790265206094800,22.8510947265625,-0.99578857421875,0.000274658203125,-0.0178375244140625
1773790265226058800,22.871058837890626,-0.9942779541015625,-0.000518798828125,-0.0161285400390625
1773790265246021600,22.891021728515625,-0.995941162109375,-0.0009002685546875,-0.0164642333984375
1773790265265985800,22.91098583984375,-0.9960174560546875,-0.0010528564453125,-0.0184173583984375
1773790265285948700,22.93094873046875,-0.995361328125,0.00054931640625,-0.01708984375
1773790265305912800,22.950912841796875,-0.9962005615234375,-0.0013885498046875,-0.0171661376953125
1773790265325875700,22.970875732421874,-0.99554443359375,0.000396728515625,-0.0180511474609375
1773790265345839600,22.990839599609377,-0.9943695068359375,0.0005340576171875,-0.016448974609375
1773790265365802800,23.010802734375,-0.9965057373046875,0.00018310546875,-0.0168304443359375
1773790265385766700,23.0307666015625,-0.9954986572265625,-0.0005950927734375,-0.0172576904296875
1773790265405729800,23.050729736328126,-0.9964599609375,0.0004730224609375,-0.0162353515625
1773790265425693400,23.070693359375,-0.995391845703125,-0.0006103515625,-0.0170440673828125
1773790265445656600,23.090656494140624,-0.9956817626953125,-0.0017547607421875,-0.0178375244140625
1773790265465620500,23.110620361328124,-0.994781494140625,0.0009307861328125,-0.016510009765625
1773790265485583600,23.13058349609375,-0.9960784912109375,0.0004730224609375,-0.0162811279296875
1773790265505547500,23.150547607421874,-0.9962310791015625,-0.0006866455078125,-0.0172576904296875
1773790265525510700,23.1705107421875,-0.99481201171875,-0.0000457763671875,-0.016082763671875
1773790265545474600,23.190474609375,-0.995635986328125,-0.0000457763671875,-0.0169677734375
1773790265565437400,23.2104375,-0.9957122802734375,0.00054931640625,-0.0175323486328125
1773790265585401600,23.230401611328126,-0.99566650390625,0.00091552734375,-0.0167236328125
1773790265605365500,23.250365478515626,-0.9955596923828125,-0.000244140625,-0.01690673828125
1773790265625328600,23.27032861328125,-0.9959564208984375,-0.0001068115234375,-0.016265869140625
1773790265645292500,23.29029248046875,-0.99639892578125,0.0000152587890625,-0.0171051025390625
1773790265665255400,23.31025537109375,-0.995697021484375,-0.000091552734375,-0.0166015625
1773790265685219600,23.330219482421874,-0.99468994140625,0.00079345703125,-0.01708984375
1773790265705182500,23.350182373046874,-0.9950103759765625,0.0000762939453125,-0.0165252685546875
1773790265725146600,23.370146728515625,-0.9956817626953125,-0.0013275146484375,-0.0173187255859375
1773790265745109500,23.390109619140624,-0.9960784912109375,0.0003814697265625,-0.0168914794921875
1773790265765073700,23.41007373046875,-0.9961700439453125,0.0008087158203125,-0.0164642333984375
1773790265785036500,23.43003662109375,-0.9966278076171875,0.0009002685546875,-0.016693115234375
1773790265805000400,23.45000048828125,-0.995452880859375,-0.0001983642578125,-0.0162353515625
1773790265824963600,23.469963623046876,-0.9965057373046875,0.0003814697265625,-0.0166778564453125
1773790265844927500,23.489927490234376,-0.9952545166015625,0.000030517578125,-0.01715087890625
1773790265864890600,23.509890625,-0.995086669921875,-0.0008087158203125,-0.01702880859375
1773790265884854500,23.5298544921875,-0.9964447021484375,-0.0005035400390625,-0.0159912109375
1773790265904817700,23.549817626953125,-0.9959259033203125,-0.000732421875,-0.0168304443359375
1773790265924781600,23.569781494140624,-0.9952239990234375,0.0002899169921875,-0.01702880859375
1773790265944745500,23.589745361328124,-0.9954071044921875,-0.0002593994140625,-0.017791748046875
1773790265964708600,23.60970849609375,-0.995697021484375,0.0003509521484375,-0.0167999267578125
1773790265984672500,23.629672607421874,-0.9951171875,-0.0004119873046875,-0.016754150390625
1773790266004635600,23.6496357421875,-0.9955291748046875,0.000335693359375,-0.0179443359375
1773790266024599600,23.669599609375,-0.9956207275390625,0.000152587890625,-0.0170135498046875
1773790266044562700,23.689562744140623,-0.99603271484375,-0.00018310546875,-0.01605224609375
1773790266064526600,23.709526611328126,-0.99456787109375,-0.0009307861328125,-0.01788330078125
1773790266084489500,23.729489501953125,-0.996063232421875,-0.00067138671875,-0.016021728515625
1773790266104453600,23.74945361328125,-0.99560546875,-0.000579833984375,-0.0179595947265625
1773790266124416500,23.76941650390625,-0.995758056640625,-0.0011749267578125,-0.018157958984375
1773790266144380700,23.789380615234375,-0.9963226318359375,0.0003662109375,-0.0167694091796875
1773790266164343600,23.809343505859374,-0.99462890625,-0.000152587890625,-0.016998291015625
1773790266184307500,23.829307373046873,-0.9958038330078125,-0.0001220703125,-0.017333984375
1773790266204270600,23.8492705078125,-0.99676513671875,0.0001373291015625,-0.0172119140625
1773790266224234500,23.869234375,-0.9967193603515625,-0.000244140625,-0.0176544189453125
1773790266244197600,23.88919775390625,-0.9966583251953125,-0.0007171630859375,-0.01702880859375
1773790266264161500,23.90916162109375,-0.9960174560546875,0.000213623046875,-0.0173797607421875
1773790266284124700,23.929124755859377,-0.995513916015625,-0.0012664794921875,-0.017578125
1773790266304088600,23.949088623046876,-0.9956207275390625,-0.0009918212890625,-0.016998291015625
1773790266324052500,23.969052490234375,-0.9954071044921875,-0.000518798828125,-0.0168609619140625
1773790266344015600,23.989015625,-0.9949798583984375,-0.0002899169921875,-0.016845703125
1773790266363979500,24.0089794921875,-0.996673583984375,0.0003509521484375,-0.0179290771484375
1773790266383942700,24.028942626953125,-0.9946136474609375,-0.0008392333984375,-0.0177001953125
1773790266403906600,24.048906494140624,-0.99560546875,-0.0008544921875,-0.018035888671875
1773790266423869200,24.068869140625,-0.9952545166015625,0.0001678466796875,-0.0172271728515625
1773790266443833000,24.0888330078125,-0.9953460693359375,-0.000244140625,-0.0177154541015625
1773790266463796200,24.108796142578125,-0.9956512451171875,0.000244140625,-0.017730712890625
1773790266483760000,24.128760009765625,-0.9960174560546875,0.0003814697265625,-0.01678466796875
1773790266503723300,24.14872314453125,-0.9951934814453125,-0.0005035400390625,-0.017303466796875
1773790266523687200,24.168687255859375,-0.99609375,-0.0001373291015625,-0.0163116455078125
1773790266543650000,24.188650146484374,-0.995086669921875,-0.00030517578125,-0.017333984375
1773790266563614200,24.2086142578125,-0.996246337890625,0.001068115234375,-0.0169830322265625
1773790266583577000,24.2285771484375,-0.9967498779296875,-0.0005950927734375,-0.0167999267578125
1773790266603541200,24.248541259765624,-0.995147705078125,0.0005950927734375,-0.0176544189453125
1773790266623505200,24.268505126953126,-0.9964599609375,0.0002593994140625,-0.0188751220703125
1773790266643468000,24.288468017578126,-0.9953155517578125,-0.0000762939453125,-0.0160980224609375
1773790266663432200,24.30843212890625,-0.9970855712890625,0.0013275146484375,-0.017791748046875
1773790266683395000,24.32839501953125,-0.9965972900390625,0.0007171630859375,-0.0186004638671875
1773790266703359200,24.348359130859375,-0.9951629638671875,-0.000274658203125,-0.018402099609375
1773790266723322000,24.368322021484374,-0.996185302734375,-0.000457763671875,-0.016693115234375
1773790266743286000,24.3882861328125,-0.995513916015625,0.0004425048828125,-0.017425537109375
1773790266763249200,24.408249267578125,-0.9947052001953125,0.0003204345703125,-0.0159759521484375
1773790266783213000,24.428213134765624,-0.9964599609375,0.000274658203125,-0.0181884765625
1773790266803176200,24.44817626953125,-0.995330810546875,-0.0005645751953125,-0.0175018310546875
1773790266823140000,24.46814013671875,-0.993804931640625,0.0005035400390625,-0.0181884765625
1773790266843103200,24.488103271484373,-0.9950103759765625,0.000274658203125,-0.016204833984375
1773790266863067100,24.508067138671876,-0.995208740234375,-0.000701904296875,-0.0164031982421875
1773790266883030300,24.5280302734375,-0.9953765869140625,-0.0005340576171875,-0.0162200927734375
1773790266902994200,24.547994140625,-0.9953765869140625,-0.000335693359375,-0.0181732177734375
1773790266922958000,24.5679580078125,-0.99627685546875,-0.00006103515625,-0.01678466796875
1773790266942921200,24.587921142578125,-0.9952545166015625,-0.00030517578125,-0.01715087890625
1773790266962885000,24.607885009765624,-0.9960784912109375,-0.0006103515625,-0.0166168212890625
1773790266982848300,24.62784814453125,-0.9960479736328125,0.0011444091796875,-0.016357421875
1773790267002812200,24.647812255859375,-0.9962310791015625,0.000579833984375,-0.01727294921875
1773790267022775300,24.667775390625,-0.9965362548828125,0.000885009765625,-0.016571044921875
1773790267042739200,24.6877392578125,-0.996551513671875,-0.0004730224609375,-0.016571044921875
1773790267062702000,24.7077021484375,-0.995452880859375,-0.0002593994140625,-0.016693115234375
1773790267082666200,24.727666259765623,-0.9941558837890625,-0.0011138916015625,-0.0172119140625
1773790267102629000,24.747629150390626,-0.9968109130859375,-0.00006103515625,-0.016143798828125
1773790267122593300,24.76759326171875,-0.995208740234375,0.0007171630859375,-0.0173797607421875
1773790267142556200,24.78755615234375,-0.9954681396484375,-0.0003509521484375,-0.0169525146484375
1773790267162520000,24.80752001953125,-0.9950714111328125,-0.0006256103515625,-0.0176849365234375
1773790267182483200,24.827483154296875,-0.9953460693359375,-0.00030517578125,-0.0169830322265625
1773790267202447000,24.847447021484374,-0.996337890625,0.0006561279296875,-0.01739501953125
1773790267222411300,24.867411376953125,-0.9962615966796875,-0.0013427734375,-0.0171661376953125
1773790267242374100,24.8873740234375,-0.9961395263671875,0.00103759765625,-0.017425537109375
1773790267262338000,24.907338134765624,-0.995086669921875,0.000091552734375,-0.0176849365234375
1773790267282301200,24.92730126953125,-0.9962615966796875,0.001007080078125,-0.0168609619140625
1773790267302265000,24.94726513671875,-0.9965057373046875,0.000885009765625,-0.016326904296875
1773790267322228200,24.967228271484377,-0.9969482421875,-0.000213623046875,-0.0166778564453125
1773790267342192000,24.987192138671876,-0.9951019287109375,0.0006866455078125,-0.0174713134765625
1773790267362155300,25.0071552734375,-0.9957122802734375,-0.0004425048828125,-0.0167083740234375
1773790267382119200,25.027119140625,-0.99615478515625,0.0000457763671875,-0.01751708984375
1773790267402082300,25.047082275390625,-0.9949798583984375,0.000030517578125,-0.0167999267578125
1773790267422046200,25.067046142578125,-0.99517822265625,-0.00006103515625,-0.0170135498046875
1773790267442009300,25.08700927734375,-0.9956817626953125,0.000274658203125,-0.0179290771484375
1773790267461973800,25.106973876953123,-0.9943084716796875,0.000946044921875,-0.016815185546875
1773790267481936400,25.126936279296874,-0.9962921142578125,0.000213623046875,-0.01788330078125
1773790267501900800,25.14690087890625,-0.995513916015625,-0.000518798828125,-0.0169219970703125
1773790267521864700,25.16686474609375,-0.9945831298828125,-0.0001373291015625,-0.01776123046875
1773790267541827600,25.18682763671875,-0.9962005615234375,0.0010223388671875,-0.0160675048828125
1773790267561791700,25.206791748046875,-0.994781494140625,0.0001373291015625,-0.0157623291015625
1773790267581754400,25.22675439453125,-0.9957122802734375,0.0003662109375,-0.016326904296875
1773790267601718800,25.24671875,-0.9955291748046875,0.000274658203125,-0.0160064697265625
1773790267621681400,25.266681396484376,-0.996795654296875,-0.00048828125,-0.016845703125
1773790267641645600,25.2866455078125,-0.996337890625,0.0002288818359375,-0.01763916015625
1773790267661608400,25.3066083984375,-0.995330810546875,-0.0003814697265625,-0.0171051025390625
1773790267681572600,25.326572509765626,-0.9964447021484375,-0.00018310546875,-0.0166778564453125
1773790267701535500,25.346535400390625,-0.996185302734375,-0.00018310546875,-0.017730712890625
1773790267721499400,25.36649951171875,-0.9967193603515625,-0.0009307861328125,-0.0159454345703125
1773790267741462500,25.386462646484375,-0.995880126953125,0.000030517578125,-0.01751708984375
1773790267761426400,25.406426513671875,-0.9965362548828125,-0.000335693359375,-0.016693115234375
1773790267781389600,25.4263896484375,-0.99725341796875,-0.000244140625,-0.0177001953125
1773790267801353500,25.446353515625,-0.9953460693359375,-0.0008697509765625,-0.0162353515625
1773790267821317600,25.466317626953124,-0.99481201171875,-0.000244140625,-0.015838623046875
1773790267841280500,25.486280517578123,-0.99615478515625,-0.000274658203125,-0.0166168212890625
1773790267861244700,25.50624462890625,-0.9952850341796875,-0.00067138671875,-0.0174102783203125
