time,seconds_elapsed,z,y,x
1773790242412688100,0.057688232421875,-0.00007950610597617924,-0.000525317620486021,-0.0004883799701929092
1773790242432652300,0.07765234375,0.0007103784009814262,-0.00043764524161815643,-0.0010718428529798985
1773790242452616400,0.097616455078125,-0.0003324360877741128,0.00032111373730003834,-0.00011439435184001923
1773790242472580400,0.117580322265625,-0.0007757312851026654,0.00016095233149826527,-0.0012418366968631744
1773790242492543500,0.13754345703125,-0.0010229396866634488,-0.0003650928847491741,0.00034830253571271896
1773790242512507400,0.15750732421875,0.0005029831081628799,-0.0002558354754000902,-0.0004904097877442837
1773790242532471300,0.17747119140625,-0.00009284791303798556,-0.000405837781727314,-0.0018125912174582481
1773790242552434400,0.197434326171875,-0.0000022161402739584446,-0.0009353940840810537,-0.0000342237763106823
1773790242572398300,0.2173984375,0.00038044987013563514,-0.00010785809718072414,0.0004026326350867748
1773790242592362500,0.237362548828125,-0.0005323095247149467,-0.0009111636318266392,-0.00030194874852895737
1773790242612325400,0.257325439453125,-0.00033985343179665506,-0.0008221378084272146,-0.00020419852808117867
1773790242632289500,0.27728955078125,0.0008340886561200023,0.0006869521457701921,-0.00041476963087916374
1773790242652253400,0.29725341796875,-0.0007992143509909511,0.0007170422468334436,0.00037872930988669395
1773790242672217300,0.31721728515625,-0.0003983560891356319,0.0003537200391292572,-0.00014460692182183266
1773790242692180500,0.337180419921875,0.0009304510895162821,0.0014406150439754128,0.0006636190228164196
1773790242712144400,0.357144287109375,0.0003968068049289286,0.00027487962506711483,-0.0007934183813631535
1773790242732108300,0.3771083984375,-0.0001845173246692866,0.000023357104510068893,-0.0009677703492343426
1773790242752071400,0.397071533203125,0.00018418360559735447,-0.0005484898574650288,-0.0005486505106091499
1773790242772035300,0.417035400390625,0.0006402070866897702,-0.0002382015809416771,0.00025354791432619095
1773790242791999200,0.436999267578125,0.00021414301590994,0.0008150788489729166,-0.0007218536920845509
1773790242811962400,0.45696240234375,-0.00030249194242060184,0.0009123878553509712,0.0013959812931716442
1773790242831926300,0.47692626953125,0.00035686398041434586,0.000026253052055835724,-0.0006350111216306686
1773790242851890400,0.496890380859375,0.00023951070033945143,0.00043939007446169853,-0.0001616138033568859
1773790242874349300,0.519349365234375,-0.0016502882353961468,-0.0003914262633770704,-0.0008222414180636406
1773790242894313200,0.539313232421875,0.0011548276524990797,-0.00045655202120542526,-0.000749602448195219
1773790242914277400,0.55927734375,0.0008507968159392476,0.00007872353307902813,-0.0003393278457224369
1773790242934241300,0.5792412109375,0.00007296842522919178,-0.00021970062516629696,-0.0004514213651418686
1773790242954204400,0.599204345703125,-0.00039313483284786344,-0.00026338989846408367,0.0004809773527085781
1773790242974168300,0.619168212890625,0.0008932956261560321,0.0004498062189668417,0.00046910950914025307
1773790242994132200,0.63913232421875,0.0005258695455268025,0.00031380471773445606,-0.0015359092503786087
1773790243014095400,0.659095458984375,0.001325744902715087,0.0006896252743899822,0.0008414755575358868
1773790243034059300,0.679059326171875,0.0005415081977844238,-0.0009205802343785763,-0.0008294582366943359
1773790243054023200,0.699023193359375,-0.0006047339993529022,-0.00006649619899690151,0.0005886582657694817
1773790243073986300,0.718986328125,-0.000004207046004012227,-0.001122326124459505,-0.00004714261740446091
1773790243093950200,0.7389501953125,-0.00048773089656606317,-0.00029912940226495266,-0.00044661713764071465
1773790243113914400,0.758914306640625,-0.0006966438959352672,0.0007274632807821035,0.0007195575162768364
1773790243133877200,0.778877197265625,0.0009866207838058472,0.0006082942709326744,-0.00040362123399972916
1773790243153841200,0.798841064453125,-0.0014139552367851138,-0.00038181315176188946,-0.000006888061761856079
1773790243173805300,0.818805419921875,0.0005834101466462016,-0.0007406049408018589,0.00017813313752412796
1773790243193768200,0.838768310546875,0.0009815795347094536,0.0008662135805934668,0.000730413943529129
1773790243213732400,0.858732421875,-0.0002117666881531477,-0.00005179853178560734,-0.0011756373569369316
1773790243233696500,0.878696533203125,0.0006821653805673122,0.0006779036484658718,0.00019079772755503654
1773790243253659100,0.8986591796875,-0.00029042584355920553,-0.0005739517509937286,0.0005653449334204197
1773790243273622300,0.918622314453125,0.00010475683666300029,-0.00029859249480068684,0.0009185834787786007
1773790243293586200,0.938586181640625,0.00008833402534946799,-0.00004967581480741501,0.00003636721521615982
1773790243313550300,0.95855029296875,0.0007119720103219151,-0.0001699856948107481,0.0004897383041679859
1773790243333513200,0.97851318359375,-0.00009153690189123154,-0.0005999058485031128,-0.0008794441819190979
1773790243353477000,0.99847705078125,0.0007284902967512608,-0.0011083309073001146,-0.00005858438089489937
1773790243373441500,1.018441650390625,-0.0005032290937379003,0.00038117379881441593,-0.0006179907359182835
1773790243393405400,1.038405517578125,-0.0007510374998673797,-0.00013091741129755974,-0.00003946153447031975
1773790243413372200,1.0583720703125,-0.0002482334093656391,-0.0008649765513837337,-0.0005822204984724522
1773790243433336300,1.07833642578125,-0.00028937309980392456,-0.00038750749081373215,0.0011225552298128605
1773790243453300200,1.09830029296875,-0.0009165852679871023,0.0003595843445509672,0.00067091453820467
1773790243473263400,1.118263427734375,0.00011888078006450087,0.00106292893178761,-0.0001599108800292015
1773790243493227300,1.138227294921875,-0.0007216715603135526,0.001995084574446082,0.0003572050482034683
1773790243513191200,1.158191162109375,-0.0006137334858067334,-0.0004985686391592026,0.001084843184798956
1773790243533154300,1.178154296875,0.002907874295488,-0.0000950782559812069,-0.0005571944639086723
1773790243553118200,1.1981181640625,0.0009430200443603098,-0.000743016367778182,0.001078220084309578
1773790243573082000,1.21808203125,-0.0005691807600669563,-0.0004039113409817219,0.0001670517958700657
1773790243593045200,1.238045166015625,0.0012875334359705448,-0.001263187499716878,0.0009570620022714138
1773790243613009200,1.258009033203125,0.0005349722923710942,-0.00008114124648272991,-0.0008563967421650887
1773790243632973300,1.277973388671875,-0.0004764460027217865,0.0006691718008369207,-0.0011369353160262108
1773790243652936200,1.297936279296875,-0.0010977642377838492,-0.0002308916300535202,-0.0009663933888077736
1773790243672900000,1.317900146484375,0.00003354140790179372,-0.0001225029118359089,-0.00006764428690075874
1773790243692864500,1.337864501953125,0.0005785137764178216,-0.0002258045133203268,0.0004528407007455826
1773790243712827100,1.3578271484375,-0.0005003671394661069,-0.0005966611206531525,-0.00104874512180686
1773790243732791300,1.377791259765625,-0.0018468421185389161,-0.0008662689942866564,0.0008362815715372562
1773790243752755500,1.39775537109375,-0.0005422657704912126,-0.00004735938273370266,-0.0007161651737987995
1773790243772718300,1.41771826171875,-0.00035252730594947934,0.0014340957859531045,0.00038828328251838684
1773790243792682500,1.4376826171875,0.0013122223317623138,0.0005338438786566257,-0.00032217102125287056
1773790243812646400,1.457646484375,0.0006735953502357006,0.0006387594621628523,0.00002055428922176361
1773790243832609500,1.477609619140625,0.00017010336159728467,-0.000639881007373333,-0.0010687028989195824
1773790243852573400,1.497573486328125,0.0006543829222209752,-0.00041355867870151997,-0.0014764484949409962
1773790243872537300,1.517537353515625,0.00015790495672263205,-0.00028325081802904606,-0.0008369139395654202
1773790243892501200,1.537501220703125,0.0008840643567964435,-0.0006054956465959549,0.0003391602076590061
1773790243912464400,1.55746435546875,0.0010224678553640842,-0.0019365146290510893,-0.0005462635308504105
1773790243932428300,1.57742822265625,0.000271454977337271,-0.00045528565533459187,-0.0011646375060081482
1773790243952392400,1.597392333984375,0.0005861757090315223,-0.0002041165716946125,-0.0005478835664689541
1773790243972355300,1.617355224609375,0.00014336957246996462,0.0005527904722839594,0.0016525429673492908
1773790243992319200,1.6373193359375,-0.000053801079047843814,0.00017370074056088924,0.0003502168692648411
1773790244012283400,1.657283447265625,0.00044428196270018816,0.0006156356539577246,-0.0008642636239528656
1773790244032246300,1.677246337890625,0.0007530958391726017,0.0005877946969121695,-0.00006630830466747284
1773790244052210400,1.69721044921875,-0.0000158044567797333,0.00026466953568160534,-0.000635447446256876
1773790244072174300,1.71717431640625,-0.0006629853160120547,0.0013232612982392311,-0.0008298764005303383
1773790244092137200,1.73713720703125,0.001049558399245143,-0.0013647538144141436,-0.0005889367312192917
1773790244112101400,1.757101318359375,-0.001306335674598813,0.00007106410339474678,0.0012581758201122284
1773790244132065300,1.777065185546875,-0.0012202486395835876,0.001105169067159295,-0.0005731480196118355
1773790244152028400,1.7970283203125,0.0005651653045788407,0.0003362924326211214,0.00009601982310414314
1773790244171992300,1.816992431640625,0.0009665521210990846,-0.00016738218255341053,0.00012411130592226982
1773790244191956200,1.836956298828125,-0.00030676618916913867,-0.000722524244338274,-0.0006155548617243767
1773790244211919400,1.85691943359375,-0.0015866218600422144,0.000015816884115338326,-0.0006458703428506851
1773790244231883300,1.87688330078125,0.00026271777460351586,-0.0005803029052913189,0.00024759629741311073
1773790244251847200,1.89684716796875,-0.0006368407048285007,-0.0003708628937602043,-0.00022320589050650597
1773790244271810300,1.916810302734375,0.00001315897679887712,0.00025347271002829075,-0.0003050328232347965
1773790244291774200,1.936774169921875,-0.00021785657736472785,0.0006369377952069044,0.00012906407937407494
1773790244311738400,1.95673828125,0.0008147831540554762,0.0005333595909178257,-0.0005506915040314198
1773790244331701200,1.976701171875,0.00034333462826907635,-0.0005808952264487743,0.0008596098050475121
1773790244351665200,1.9966650390625,-0.0011985095916315913,0.000608739210292697,0.000134320929646492
1773790244371629300,2.01662939453125,-0.0004111441667191684,-0.00033091241493821144,0.00014185020700097084
1773790244391592200,2.03659228515625,-0.0005523328436538577,-0.0009027293417602777,0.00037725362926721573
1773790244411553300,2.05655322265625,-0.0005515783559530973,-0.0009600985795259476,-0.0018124300986528397
1773790244431517400,2.076517333984375,0.0007098959758877754,-0.000526967691257596,0.0008137323893606663
1773790244451480300,2.096480224609375,-0.00017927770386449993,0.00044975848868489265,-0.000360170379281044
1773790244471444500,2.116444580078125,0.00030123686883598566,0.00018694158643484116,0.0006693187169730663
1773790244491408400,2.136408447265625,-0.0011239151936024427,0.0009655479807406664,-0.0005112406797707081
1773790244511371300,2.156371337890625,0.00019141111988574266,0.00004453747533261776,-0.0012859795242547989
1773790244531335400,2.17633544921875,-0.00010093770106323063,0.0002851816825568676,-0.0006852596998214722
1773790244551299300,2.19629931640625,0.00024556537391617894,-0.00029891147278249264,-0.00011612242087721825
1773790244571262500,2.216262451171875,-0.00044291868107393384,-0.0002419091761112213,-0.0012333216145634651
1773790244591226400,2.236226318359375,-0.000021374609787017107,0.000800842884927988,-0.000694014597684145
1773790244611190300,2.256190185546875,-0.0002176739799324423,-0.0003191721625626087,-0.001123205292969942
1773790244631153400,2.2761533203125,-0.0002355290052946657,-0.0008691772818565369,-0.0004636109806597233
1773790244651117300,2.296117431640625,-0.0008435504278168082,0.0001819557510316372,-0.0008300933986902237
1773790244671081200,2.316081298828125,0.00038015638710930943,0.0006542399059981108,0.0016051784623414278
1773790244691044400,2.33604443359375,-0.0015357276424765587,0.000027585076168179512,-0.0013752132654190063
1773790244711008300,2.35600830078125,-0.00006954660057090223,0.00017303903587162495,0.00022737635299563408
1773790244730972400,2.375972412109375,0.0004597808583639562,0.0010398209560662508,-0.0001271180808544159
1773790244750935300,2.395935302734375,-0.000991097535006702,-0.00023353821597993374,0.0008170120418071747
1773790244770899200,2.415899169921875,0.00038439419586211443,0.00021340022794902325,0.00003658421337604523
1773790244790863400,2.43586328125,0.00022183811233844608,0.0006070970557630062,0.00000936770811676979
1773790244810826200,2.455826171875,0.0008049822063185275,0.0005976648535579443,-0.0009381882846355438
1773790244830790400,2.475790283203125,-0.00021109782392159104,-0.0007151761092245579,-0.000490337610244751
1773790244850754300,2.49575439453125,0.0006936461431905627,0.0007953639142215252,-0.0005767326802015305
1773790244870717200,2.51571728515625,-0.00022099498892202973,0.0008430660236626863,-0.0009944550693035126
1773790244890681300,2.535681396484375,-0.00037877121940255165,0.0006171469576656818,0.001213075127452612
1773790244910645200,2.555645263671875,-0.00013255153317004442,0.00001535261981189251,0.00038360850885510445
1773790244930608400,2.5756083984375,0.0009360759286209941,0.0011227743234485388,-0.00006871391087770462
1773790244950572300,2.595572265625,-0.0006984613137319684,0.00089214276522398,-0.0015274216420948505
1773790244970536200,2.6155361328125,-0.00021470419596880674,-0.00002343091182410717,-0.0009946059435606003
1773790244990499300,2.635499267578125,0.0010224021971225739,-0.00017254147678613663,0.00004779687151312828
1773790245010463200,2.655463134765625,-0.001361876493319869,-0.0005809457506984472,-0.0004759347066283226
1773790245030427100,2.67542724609375,0.001656272797845304,-0.0014104344882071018,-0.0006512128747999668
1773790245050390300,2.695390380859375,-0.00043717233347706497,0.0000043013133108615875,-0.0008417288772761822
1773790245070354200,2.715354248046875,-0.0009787165326997638,0.0014180302387103438,-0.00042876042425632477
1773790245090318000,2.735318115234375,0.0007974482141435146,-0.000037714140489697456,-0.0009607812389731407
1773790245110281200,2.75528125,-0.0007796676363795996,-0.0003283300902694464,0.0003823786973953247
1773790245130245000,2.7752451171875,0.0015399411786347628,0.00017425254918634892,-0.002202876377850771
1773790245150209500,2.79520947265625,0.00018395385995972902,0.0012415534583851695,0.00042500486597418785
1773790245170172200,2.815172119140625,-0.0003957085427828133,0.00020216801203787327,-0.00039343442767858505
1773790245190136300,2.83513623046875,-0.00026272295508533716,0.00010825390927493572,0.0004770890809595585
1773790245210100500,2.8551005859375,0.0005756260943599045,-0.0004540379159152508,-0.0005678427405655384
1773790245230063000,2.87506298828125,-0.002194441622123122,0.0006731962785124779,-0.0013037431053817272
1773790245250027500,2.895027587890625,0.0007270135683938861,-0.0005387051496654749,-0.00026530539616942406
1773790245269991400,2.914991455078125,0.0003308560117147863,0.0012237676419317722,0.0008119726553559303
1773790245289954300,2.934954345703125,-0.0009002218721434474,0.0019250370096415281,0.00037086382508277893
1773790245309918500,2.95491845703125,-0.0007860296173021197,-0.0006588608957827091,0.0002633389085531235
1773790245329882400,2.97488232421875,-0.0006934136617928743,0.00045972829684615135,0.00019657425582408905
1773790245349845500,2.994845458984375,-0.00032161077251657844,-0.00017969240434467793,0.00037257419899106026
1773790245369809400,3.014809326171875,0.0003355778462719172,-0.00043840333819389343,-0.0001736045815050602
1773790245389772300,3.034772216796875,-0.0008833832107484341,0.000666807871311903,-0.001947394572198391
1773790245409738200,3.05473828125,-0.0007389099919237196,-0.0003437299747020006,-0.0012644934467971325
1773790245429702400,3.074702392578125,-0.0005363859818316996,0.0002076602540910244,0.0002092481590807438
1773790245449666300,3.094666259765625,-0.0009896574774757028,0.0007818632293492556,-0.0007488690316677094
1773790245469629200,3.114629150390625,-0.0006258001085370779,0.00020161760039627552,-0.0000316607765853405
1773790245489593300,3.13459326171875,-0.0004213895881548524,-0.00020961277186870575,0.0005930881015956402
1773790245509556200,3.15455615234375,-0.0002786644035950303,0.00008478201925754547,-0.00035908445715904236
1773790245529520400,3.174520263671875,-0.00025449739769101143,0.0006605612579733133,-0.0005864095874130726
1773790245549484300,3.194484375,0.00032583012944087386,0.00007612071931362152,-0.0006794785149395466
1773790245569447200,3.214447265625,0.00009180547203868628,-0.00009617512114346027,-0.0007851403206586838
1773790245589411300,3.234411376953125,0.000887854490429163,-0.0003277924843132496,0.0012195422314107418
1773790245609375200,3.254375244140625,0.0006398297846317291,-0.0005990313366055489,-0.0004068897105753422
1773790245629338400,3.27433837890625,0.00006227332050912082,0.0009612028952687979,-0.0004465249367058277
1773790245649302300,3.29430224609375,0.0009591639973223209,0.0004207310266792774,-0.0011730273254215717
1773790245669266200,3.31426611328125,-0.001003087731078267,0.00020316406153142452,0.0002288995310664177
1773790245689229300,3.334229248046875,-0.00020201527513563633,-0.0002062227576971054,-0.0007333043031394482
1773790245709193200,3.354193115234375,0.0006719360244460404,0.00122916663531214,-0.00014665396884083748
1773790245729157000,3.3741572265625,0.0010089098941534758,0.0007793433032929897,-0.0004399898461997509
1773790245749120300,3.394120361328125,0.00020227502682246268,0.00045829336158931255,0.0004399949684739113
1773790245769084200,3.414084228515625,0.001370135461911559,-0.0004471696447581053,0.0006843907758593559
1773790245789048300,3.43404833984375,-0.00019371265079826117,0.000020674429833889008,-0.0005014697089791298
1773790245809011200,3.45401123046875,-0.0007803506450727582,0.0002476726658642292,-0.0018645823001861572
1773790245828975000,3.47397509765625,-0.000409228028729558,0.00023342110216617584,-0.0002635284326970577
1773790245848939500,3.493939453125,0.00004909868584945798,0.0012169195106253028,-0.0005527534522116184
1773790245868902100,3.513902099609375,0.000041006627725437284,0.0004660591948777437,-0.0011988100595772266
1773790245888866300,3.5338662109375,0.0002433384652249515,0.0004493438173085451,-0.0014758533798158169
1773790245908830500,3.55383056640625,0.00004637916572391987,-0.0005766302347183228,-0.00036755064502358437
1773790245928793000,3.57379296875,0.0011077316012233496,-0.00012360443361103535,0.00025373511016368866
1773790245948757500,3.593757568359375,0.0013557642232626677,-0.00030979537405073643,-0.0002622460015118122
1773790245968720100,3.61372021484375,0.00033857859671115875,0.00006930297240614891,0.0013783215545117855
1773790245988684300,3.633684326171875,0.0000816825486253947,-0.00020515033975243568,-0.0007002651691436768
1773790246008648400,3.6536484375,-0.00018279621144756675,0.0006456447299569845,0.0003556404262781143
1773790246028611300,3.673611328125,-0.0003867262857966125,-0.0009104227647185326,-0.00038411328569054604
1773790246048575500,3.693575439453125,-0.0008017231593839824,0.00022224104031920433,-0.0006122379563748837
1773790246068539400,3.713539306640625,0.00005714950384572148,-0.00018500583246350288,-0.0009365924634039402
1773790246088502500,3.73350244140625,-0.00015818970859982073,-0.00010196585208177567,0.0012407083995640278
1773790246108466400,3.753466552734375,-0.001165018416941166,-0.0005067694000899792,0.00017000501975417137
1773790246128430300,3.773430419921875,-0.00008303130744025111,-0.00020227464847266674,-0.0000014617107808589935
1773790246148393500,3.7933935546875,-0.00043649389408528805,-0.0002456165384501219,-0.000814689788967371
1773790246168357400,3.813357421875,0.0006406349129974842,0.0001410741824656725,0.0006236173212528229
1773790246188321300,3.8333212890625,-0.00008950926712714136,0.0005032659973949194,-0.0006471532396972179
1773790246208284400,3.853284423828125,-0.0005680730100721121,-0.00006407569162547588,0.0009529818780720234
1773790246228248300,3.873248291015625,0.0005718466127291322,0.00010012928396463394,0.0003794119693338871
1773790246248212200,3.893212158203125,-0.0004891161806881428,0.00015092617832124233,-0.0014722342602908611
1773790246268175400,3.91317529296875,-0.00021463129087351263,0.0019390108063817024,-0.0002865777350962162
1773790246288139300,3.93313916015625,0.0012385898735374212,0.00020425464026629925,-0.0005121747963130474
1773790246308103400,3.953103515625,0.00034927725209854543,0.0006931344978511333,0.0011257207952439785
1773790246328066300,3.97306640625,0.00010945936082862318,0.0003822667058557272,-0.00041079893708229065
1773790246348030200,3.9930302734375,0.0009242180385626853,0.0007105402182787657,-0.00020929938182234764
1773790246367993300,4.012993408203125,-0.0001066866097971797,0.00024113571271300316,-0.00011358829215168953
1773790246387957200,4.032957275390625,-0.0010851509869098663,0.0012326736468821764,-0.000299135223031044
1773790246407918600,4.052918701171875,0.002388072432950139,0.00024221139028668404,-0.0012849834747612476
1773790246427881700,4.0728818359375,0.0009717908687889576,0.0005986921023577452,0.0013073952868580818
1773790246447845600,4.092845703125,0.00037890058592893183,-0.0007360866293311119,0.0001340443268418312
1773790246467809800,4.112809814453125,-0.0005839099176228046,0.00011566001921892166,-0.0007216157391667366
1773790246487772700,4.132772705078125,0.0009856696706265211,-0.0006218468770384789,0.0006903503090143204
1773790246507736600,4.152736572265625,0.0008251742110587656,0.0003839414566755295,-0.0010861479677259922
1773790246527700700,4.17270068359375,-0.001134044723585248,-0.0003642027731984854,0.00023052562028169632
1773790246547663600,4.19266357421875,0.00178283522836864,0.0009723403491079807,-0.0017012832686305046
1773790246567627800,4.212627685546875,-0.00007439684122800827,0.00012286333367228508,-0.0001126001589000225
1773790246587591700,4.232591796875,-0.00033712852746248245,0.0006670255679637194,0.00011087348684668541
1773790246607554600,4.252554443359375,0.00017812623991630971,0.000919268699362874,-0.00027830712497234344
1773790246627518700,4.272518798828125,0.0008875570492818952,-0.00015868106856942177,-0.0004786117933690548
1773790246647481600,4.292481689453125,-0.0005558155244216323,-0.0001550454180687666,0.0011982228606939316
1773790246667445800,4.31244580078125,0.0015765640418976545,0.000015860889106988907,0.00047667277976870537
1773790246687409700,4.33240966796875,0.000690742745064199,0.0004893788136541843,-0.000251606572419405
1773790246707372500,4.35237255859375,0.0010599655797705054,-0.0006890140939503908,-0.0002576606348156929
1773790246727336700,4.372336669921875,-0.00012288152356632054,-0.0006352015770971775,0.00020671216771006584
1773790246747300600,4.392300537109375,0.00020864121324848384,-0.0002507898025214672,0.0007324968464672565
1773790246767263700,4.412263671875,0.0007231696508824825,-0.0010399820748716593,-0.00015342328697443008
1773790246787227600,4.4322275390625,-0.0007765027694404125,0.0002571747172623873,0.00048487354069948196
1773790246807191600,4.452191650390625,0.0007626722799614072,-0.000580040505155921,0.0007476615719497204
1773790246827154700,4.47215478515625,-0.0015198526671156287,-0.0008460171520709991,0.00019347574561834335
1773790246847118600,4.49211865234375,-0.000973536865785718,0.0003220462240278721,-0.0007471046410501003
1773790246867081700,4.512081787109375,0.00007409730460494757,0.0001323050819337368,-0.0003846418112516403
1773790246905762600,4.550762451171875,0.0002731705899350345,0.00016344734467566013,-0.00007801176980137825
1773790246925725700,4.5707255859375,0.000045567547203972936,0.00022623525001108646,-0.0018292348831892014
1773790246945689600,4.590689697265625,0.001663082861341536,-0.0005177443381398916,0.0005256868898868561
1773790246965653800,4.61065380859375,0.0001841493067331612,0.00047448393888771534,0.0003624674864113331
1773790246985616600,4.63061669921875,0.0005172653472982347,-0.00009752647019922733,-0.000036957208067178726
1773790247005580500,4.65058056640625,0.0007928377017378807,-0.0003498957958072424,0.00048241810873150826
1773790247025544700,4.670544677734375,-0.0002616815036162734,0.0002941007260233164,0.00013834424316883087
1773790247045507600,4.690507568359375,0.0011609997600317001,0.00025807577185332775,-0.001683659851551056
1773790247065471700,4.7104716796875,-0.00022907479433342814,0.0007467910181730986,-0.0008544884622097015
1773790247085435600,4.730435546875,-0.0002750319545157254,-0.0005587816704064608,0.0004587974399328232
1773790247105398500,4.7503984375,-0.00020070854225195944,-0.0008722045458853245,-0.00009084213525056839
1773790247125362700,4.77036279296875,0.0014937433879822493,0.0009926653001457453,0.000013566110283136368
1773790247145325600,4.79032568359375,0.0006222276133485138,-0.0002449324820190668,-0.00032194284722208977
1773790247165289700,4.810289794921875,0.0014746771194040775,-0.00014831125736236572,-0.0006428989581763744
1773790247185253600,4.830253662109375,-0.0001919856294989586,-0.00014601321890950203,-0.0005840910598635674
1773790247205216800,4.850216796875,0.0005637657013721764,0.0010158461518585682,0.0005476218648254871
1773790247225180700,4.8701806640625,-0.0010378009174019098,0.0005778074264526367,0.00046417489647865295
1773790247245144600,4.89014453125,-0.00115445745177567,0.0005042029079049826,-0.00031203310936689377
1773790247265106700,4.910106689453125,0.000997493276372552,0.00035142083652317524,0.0014898395165801048
1773790247285070600,4.930070556640625,-0.00008980979328043759,0.0004565315321087837,-0.000031933654099702835
1773790247305034800,4.95003466796875,-0.0010519991628825665,0.0002256601583212614,-0.000551281962543726
1773790247324997600,4.96999755859375,-0.000500004505738616,-0.0007638866081833839,8.060596883296967e-7
1773790247344961500,4.98996142578125,0.0006027782801538706,0.00034086056984961033,0.0004263906739652157
1773790247364925700,5.00992578125,-0.0005028999294154346,0.0005674222484230995,-0.0005915290676057339
1773790247384888600,5.029888671875,-0.0019084095256403089,-0.0004361167084425688,-0.0005227997899055481
1773790247404852500,5.0498525390625,-0.00044837137102149427,-0.0007599920500069857,-0.0007248385809361935
1773790247424815400,5.0698154296875,0.0007766606286168098,0.0003808538895100355,0.0007149446755647659
1773790247444779500,5.089779541015625,0.0003297729999758303,0.0016618544468656182,-0.0007487279362976551
1773790247464743400,5.109743408203125,0.0013295093085616827,-0.001867353217676282,-0.00019378634169697762
1773790247484706300,5.129706298828125,0.0005663695046678185,0.0009144677314907312,0.0019243089482188225
1773790247504670500,5.14967041015625,-0.0005243400810286403,-0.00005486351437866688,-0.0010271761566400528
1773790247524634400,5.16963427734375,-0.0009638011106289923,0.000008799834176898003,-0.0016258521936833858
1773790247544597500,5.189597412109375,-0.0007150544552132487,0.000465526944026351,-0.001832814421504736
1773790247564561400,5.2095615234375,0.00021501362789422274,0.00020864233374595642,-0.00010034255683422089
1773790247584525300,5.229525390625,-0.00019156976486556232,0.000570300268009305,0.0012108716182410717
1773790247604488400,5.249488525390625,-0.0008964233566075563,0.000375247560441494,0.0007264520972967148
1773790247624452400,5.269452392578125,-0.00018058778368867934,-0.00009932322427630424,0.000778022687882185
1773790247644415500,5.28941552734375,0.000032806507078930736,0.001777541358023882,0.0003475649282336235
1773790247664379400,5.30937939453125,2.2258609533309937e-7,-0.0005090378690510988,0.00033367471769452095
1773790247684343300,5.32934326171875,0.0010297177359461784,-0.00113770947791636,0.00023170094937086105
1773790247704306400,5.349306396484375,-0.0005189068615436554,0.00022452184930443764,0.0006123567000031471
1773790247724270300,5.369270263671875,0.0007078655762597919,-0.001187763875350356,0.0008250349201261997
1773790247744234200,5.389234130859375,-0.0005290791159495711,-0.0002196873538196087,0.0005365535616874695
1773790247764197400,5.409197265625,-0.00026048070867545903,-0.0008069360628724098,-0.0003465060144662857
1773790247784161300,5.429161376953125,-0.0002811427984852344,-0.0012689658906310797,-0.00028345221653580666
1773790247804124400,5.44912451171875,0.00011201240704394877,-0.0008865150157362223,0.0012270985171198845
1773790247824088300,5.46908837890625,-0.00133584626019001,-0.00027790525928139687,0.000223605427891016
1773790247844052500,5.489052490234375,-0.0010084910318255424,0.00045248446986079216,-0.000392409972846508
1773790247864015400,5.509015380859375,-0.002173777436837554,0.0006876627448946238,-0.00024159438908100128
1773790247883979300,5.528979248046875,0.0006441588629968464,0.0007056405302137136,0.00022310670465230942
1773790247903943400,5.548943359375,0.0005795828765258193,0.0006683713290840387,-0.0003930567763745785
1773790247923906300,5.56890625,0.0014612487284466624,-0.00006486685015261173,0.0009598736651241779
1773790247943870500,5.588870361328125,0.0006214726599864662,-0.0007938186172395945,-0.00009334692731499672
1773790247963833300,5.608833251953125,-0.0002781588409561664,-0.00037312787026166916,0.00025550602003932
1773790247983797500,5.628797607421875,0.0010861989576369524,0.00003635138273239136,-0.0006599808111786842
1773790248003761400,5.648761474609375,0.0009227816481143236,0.0003095048014074564,-0.0012788521125912666
1773790248023724300,5.668724365234375,-0.00006770051550120115,0.0004308351781219244,0.001095305196940899
1773790248043688400,5.6886884765625,0.00020934436179231852,-0.0002729911357164383,-0.0011035250499844551
1773790248063652600,5.708652587890625,-0.0005928223254159093,-0.0007317494601011276,0.00017932336777448654
1773790248083615500,5.728615478515625,0.00018817270756699145,0.0007063597440719604,-0.00004986859858036041
1773790248103579600,5.74857958984375,0.00010761001612991095,-0.0004621129482984543,-0.0015705800615251064
1773790248123542500,5.76854248046875,-0.0010444017825648189,0.0004380980972200632,0.00027520814910531044
1773790248143506400,5.78850634765625,-0.00022584153339266777,0.0000663327518850565,0.001656071748584509
1773790248163470600,5.808470703125,-0.0003965816868003458,-0.00048017571680247784,0.000788035336881876
1773790248183433500,5.82843359375,0.00031669557210989296,-0.001265734899789095,0.0007289196364581585
1773790248203397600,5.848397705078125,-0.0007147901924327016,-0.0005992606747895479,0.00003090687096118927
1773790248223361500,5.868361572265625,-0.00014499608369078487,-0.0011184182949364185,0.00028338609263300896
1773790248243324400,5.888324462890625,-0.00039496811223216355,0.00039596366696059704,0.0015249461866915226
1773790248263288600,5.90828857421875,0.0001698473934084177,0.00010591582395136356,0.0003831656649708748
1773790248283251500,5.92825146484375,-0.000589200179092586,-0.000004729023203253746,-0.00044576358050107956
1773790248303215600,5.948215576171875,-0.0010546932462602854,0.0005958382971584797,0.00043962569907307625
1773790248323179500,5.968179443359375,-0.0005423019756563008,0.0013788673095405102,0.0007424745708703995
1773790248343142400,5.988142333984375,-0.00003952950646635145,0.0006892443634569645,0.00008430052548646927
1773790248363106600,6.0081064453125,-0.000960797886364162,0.00016076327301561832,-0.00008065393194556236
1773790248383069400,6.0280693359375,0.00038264857721515,-0.0003043913748115301,-0.00008479785174131393
1773790248403033000,6.048033203125,0.0003160014166496694,0.0016646061558276415,-0.0002528415061533451
1773790248422997000,6.0679970703125,-0.0004289712815079838,0.00015503913164138794,0.0016854982823133469
1773790248442960100,6.087960205078125,1.3834505807608366e-7,0.0005520728882402182,0.00012526381760835648
1773790248462924000,6.107924072265625,0.0003644450334832072,0.0005841727834194899,0.000006652437150478363
1773790248482888000,6.127887939453125,-0.00035470284637995064,0.0011133712250739336,0.00006182026118040085
1773790248502851000,6.14785107421875,-0.0007216243539005518,-0.0008126196917146444,-0.0007224292494356632
1773790248522815000,6.16781494140625,-0.0007780069718137383,-0.001116341445595026,-0.000872311182320118
1773790248542778000,6.187778076171875,0.001050987746566534,0.0010958088096231222,-0.0018210848793387413
1773790248562742000,6.207741943359375,0.00015181714843492955,-0.00014721136540174484,-0.0002546338364481926
1773790248582706200,6.2277060546875,0.0013041396159678698,-0.0006228324491530657,0.00048761162906885147
1773790248602669000,6.2476689453125,-0.0002676275325939059,-0.0001673838123679161,0.00007266271859407425
1773790248622633200,6.26763330078125,-0.00089132075663656,-0.001136943232268095,0.00018901098519563675
1773790248642597000,6.28759716796875,0.0007940194918774068,0.000605069799348712,-0.00020025717094540596
1773790248662560000,6.30756005859375,0.00012114401761209592,0.0007420866750180721,0.00034807436168193817
1773790248682524200,6.327524169921875,-0.0006726848660036922,-0.00013524224050343037,-0.0005957754328846931
1773790248702487000,6.347487060546875,-0.0010806319769471884,0.000014224089682102203,-0.00017221318557858467
1773790248722451200,6.367451171875,0.0002691061235964298,0.0007319855503737926,-0.0005410853773355484
1773790248742415000,6.3874150390625,-0.00024296162882819772,-0.0006997138261795044,-0.0006995201110839844
1773790248762378200,6.407378173828125,-0.0008345850510522723,-0.0005221960600465536,-0.0005654813721776009
1773790248782342100,6.427342041015625,0.0011783220106735826,-0.0008201710879802704,0.0005318759940564632
1773790248802305300,6.44730517578125,0.0011911229230463505,-0.00022958964109420776,-0.00042454013600945473
1773790248822269200,6.467269287109375,0.0005025903228670359,0.0001683977898210287,-0.0006473721005022526
1773790248842233000,6.487233154296875,0.002075136872008443,0.00008965982124209404,0.00010269181802868843
1773790248862196200,6.5071962890625,0.0011496955994516611,0.00021466263569891453,-0.0008868607692420483
1773790248882160000,6.52716015625,-0.00034918959136120975,0.0001798020675778389,0.00030478835105895996
1773790248902123300,6.547123291015625,0.0004246904863975942,0.00012939493171870708,-0.000040732789784669876
1773790248922087200,6.567087158203125,-0.0007785219931975007,-0.00023510772734880447,-0.0007867878302931786
1773790248942051000,6.587051025390625,0.0007626288570463657,-0.0002853788901120424,-0.001234669703990221
1773790248962014200,6.60701416015625,-0.00032213469967246056,-0.00020077312365174294,-0.0011996938847005367
1773790248981978000,6.62697802734375,0.0011913463240489364,-0.0009304634295403957,0.0004809950478374958
1773790249001942300,6.6469423828125,0.0010236618109047413,0.0006773741915822029,-0.0002391822636127472
1773790249021905200,6.6669052734375,-0.0001393416605424136,-0.0011142140720039606,-0.0013394765555858612
1773790249041869000,6.686869140625,0.0004126819549128413,-0.0011244032066315413,-0.0008693011477589607
1773790249061832200,6.706832275390625,0.00013830582611262798,-0.0009770195465534925,-0.00014241226017475128
1773790249081796000,6.726796142578125,0.001280163531191647,-0.001358953770250082,-0.000664933118969202
1773790249101760300,6.74676025390625,-0.0006373839569278061,0.00021272804588079453,0.000030132010579109192
1773790249121723100,6.76672314453125,-0.000020040315575897694,-0.0002129008062183857,-0.0005536475218832493
1773790249141687000,6.78668701171875,0.0007978261564858258,0.00009364774450659752,-0.0015621650964021683
1773790249161650200,6.806650146484375,0.0004976296331733465,0.00048319692723453045,0.00030617835000157356
1773790249181614000,6.826614013671875,-0.00034572480944916606,-0.00003697071224451065,0.0001567569561302662
1773790249201578200,6.846578125,0.00014638446737080812,0.0012993296841159463,-0.0004806765355169773
1773790249221541000,6.866541015625,0.0008227516082115471,-0.0012454530224204063,0.0018041864968836308
1773790249241505000,6.886505126953125,0.00046583780203945935,0.00033865030854940414,-0.00003113690763711929
1773790249261469200,6.90646923828125,-0.000234027742408216,-0.0002312192227691412,-0.0004108198918402195
1773790249281432000,6.92643212890625,0.0007467170944437385,0.0007092750165611506,0.0004937448538839817
1773790249301396200,6.946396240234375,0.0005098488763906062,0.0017000599764287472,-0.000025410205125808716
1773790249321359000,6.966359130859375,-0.0012081727618351579,0.0002490354236215353,-0.00034359097480773926
1773790249341323300,6.9863232421875,-0.00023210281506180763,0.00015656603500247002,0.0013665198348462582
1773790249361287200,7.006287109375,-0.00020163727458566427,-0.000235298415645957,0.0006340546533465385
1773790249381250000,7.02625,0.0007331394590437412,-0.0009439573623239994,0.00006853323429822922
1773790249401214200,7.046214111328125,-0.00021208461839705706,0.00044964998960494995,-0.0008296980522572994
1773790249421177300,7.06617724609375,-0.0014516140799969435,-0.0007159586530178785,-0.0002077869139611721
1773790249441141200,7.086141357421875,-0.0005025859572924674,-0.000259938882663846,-0.000929167028516531
1773790249461105700,7.106105712890625,-0.001112522091716528,0.000852988101541996,0.0005276710726320744
1773790249481068300,7.126068359375,0.0014335658634081483,-0.0013046648818999529,0.00005651218816637993
1773790249501032700,7.14603271484375,0.0007591370958834887,-0.000648008193820715,0.00014279643073678017
1773790249520995300,7.165995361328125,-0.0001339443406322971,0.0005179909057915211,-0.0014377343468368053
1773790249540959200,7.185959228515625,-0.0012531430693343282,0.0003007897175848484,0.00036907149478793144
1773790249560923600,7.205923583984375,0.00008562370931031182,-0.0019994545727968216,-0.000671131070703268
1773790249580886300,7.22588623046875,0.00015051221998874098,0.00011981162242591381,0.00006588967517018318
1773790249600850700,7.2458505859375,0.0008063304703682661,0.000056846532970666885,-0.000963354017585516
1773790249620813300,7.265813232421875,-0.0008901112014427781,-0.0006712060421705246,0.00039504608139395714
1773790249640777500,7.285777587890625,0.00008984588930616155,0.0004844716750085354,-0.0006989366374909878
1773790249660741600,7.30574169921875,0.000023637418053112924,-0.0006787350866943598,-0.0001695253886282444
1773790249680704500,7.32570458984375,-0.0010749020148068666,-0.0016275346279144287,-0.0011641019955277443
1773790249700668700,7.345668701171875,0.000494243809953332,0.0012464727042242885,-0.00046828342601656914
1773790249720631300,7.36563134765625,-0.0007036152528598905,0.0008590985089540482,0.0015249727293848991
1773790249740595500,7.385595458984375,-0.0019169816514477134,0.0010105478577315807,-0.0011944705620408058
1773790249760559600,7.4055595703125,0.0006354229990392923,-0.0011568756308406591,-0.0015723961405456066
1773790249780522500,7.4255224609375,-0.0007078662747517228,-0.0007453907746821642,0.0005040029063820839
1773790249800486700,7.445486572265625,0.0005443552508950233,0.000013025244697928429,-0.000006192829459905624
1773790249820449500,7.465449462890625,-0.002024585148319602,-0.0008734448347240686,0.00040366826578974724
1773790249840413700,7.48541357421875,0.0004563614202197641,-0.00015117484144866467,0.00003327010199427605
1773790249860377600,7.505377685546875,0.00048791017616167665,0.0004868449177592993,-0.00028284452855587006
1773790249880340500,7.525340576171875,0.0001463215594412759,-0.00047441525384783745,-0.0024244296364486217
1773790249900304600,7.5453046875,-0.0012202641228213906,-0.0004868297837674618,-0.00043450435623526573
1773790249920267500,7.565267578125,-0.000307150388834998,0.00015018857084214687,-0.0004850635305047035
1773790249940231700,7.585231689453125,-0.0008891964098438621,0.0014901008689776063,-0.00009195785969495773
1773790249960195600,7.605195556640625,-0.0007994251791387796,-0.000340363010764122,-0.001027379184961319
1773790249980158500,7.625158447265625,0.00012890076322946697,0.0007590083405375481,0.00028815027326345444
1773790250000122600,7.64512255859375,-0.0007430721307173371,-0.00011335243470966816,0.0012917784042656422
1773790250020085500,7.66508544921875,-0.0007311135996133089,0.0016867158701643348,0.00016668811440467834
1773790250040049700,7.685049560546875,-0.000728372426237911,-0.0008702077902853489,0.00043779658153653145
1773790250060013600,7.705013671875,-0.00039954716339707375,0.00008522788994014263,-0.00016378145664930344
1773790250079976400,7.7249765625,-0.00032752237166278064,0.00011469586752355099,-0.000054945703595876694
1773790250099940600,7.744940673828125,0.0003314878267701715,0.0006284809205681086,-0.0006320392712950706
1773790250119903500,7.764903564453125,-0.000017637794371694326,0.00019989418797194958,-0.0001334846019744873
1773790250139867600,7.78486767578125,0.0012942380271852016,-0.00020139501430094242,-0.001165107823908329
1773790250159831600,7.80483154296875,0.00046754017239436507,-0.0006441930308938026,0.0003697485662996769
1773790250179794400,7.82479443359375,-0.00039442075649276376,0.0000050691887736320496,-0.000005280598998069763
1773790250199758600,7.844758544921875,-0.0009479379514232278,-0.0002793138846755028,0.0008770674467086792
1773790250219722500,7.864722412109375,0.000004522386007010937,-0.0008379067294299603,-0.0007528699934482574
1773790250239685600,7.884685546875,0.0003137664753012359,0.0004908395931124687,-0.0005895253270864487
1773790250259649500,7.9046494140625,-0.001163742272183299,0.0007100992370396852,0.0002034418284893036
1773790250279612400,7.9246123046875,0.000024803419364616275,0.0014346371171995997,0.0010944786481559277
1773790250299576600,7.94457666015625,-0.00044816939043812454,0.00026703556068241596,-0.000218996312469244
1773790250319539500,7.96453955078125,0.00039620877942070365,-0.0000051497481763362885,0.0006863987073302269
1773790250339503600,7.984503662109375,-0.0006181798526085913,-0.0007427232339978218,0.000033806078135967255
1773790250359467500,8.004467529296875,-0.00015958017320372164,0.0006793502252548933,0.00035322224721312523
1773790250379430700,8.0244306640625,-0.00032736867433413863,-0.00006504892371594906,-0.0005668029189109802
1773790250399394600,8.04439453125,0.0001090591395040974,-0.0007976419292390347,-0.0007458655163645744
1773790250419357700,8.064357666015624,-0.0006115945288911462,0.00034508085809648037,0.00039379624649882317
1773790250439321900,8.08432177734375,-0.0003161514177918434,-0.00026241783052682877,0.000991553533822298
1773790250459285800,8.10428564453125,0.0005139257409609854,0.001285106292925775,-0.0004566567949950695
1773790250479248600,8.12424853515625,0.0005463441484607756,0.001177460653707385,-0.00033638346940279007
1773790250499212800,8.144212890625,0.0008516016532666981,0.0006171066779643297,-0.0018349098972976208
1773790250519175700,8.16417578125,-0.00016648904420435429,0.000047605251893401146,0.00012226030230522156
1773790250539139800,8.184139892578125,0.001463270396925509,-0.0010166156571358442,-0.0009584431536495686
1773790250559103700,8.204103759765625,0.0007150052697397768,0.0005505974404513836,0.0007199286483228207
1773790250579067000,8.22406689453125,0.00024907998158596456,-0.0003219032660126686,-0.00009404914453625679
1773790250599030800,8.24403076171875,-0.0010606778087094426,-0.00039261835627257824,-0.0004172888584434986
1773790250618993700,8.26399365234375,-0.0011711231200024486,-0.00006614066660404205,0.0008718431927263737
1773790250638957800,8.283957763671875,0.00032809522235766053,0.00024350476451218128,-0.0003487374633550644
1773790250658921700,8.303921630859374,-0.00029971980256959796,-0.0005105251912027597,0.0012970124371349812
1773790250678884900,8.323884765625,-0.00028811561060138047,0.00045982073061168194,-0.000298092607408762
1773790250698848800,8.343848876953125,0.00014045565330889076,0.0003541454207152128,-0.0005921470001339912
1773790250718811600,8.363811767578126,-0.00017446195124648511,-0.0008817848283797503,-0.00022993003949522972
1773790250738775800,8.38377587890625,-0.00016798591241240501,-0.0002825914416462183,0.0016851583495736122
1773790250758739700,8.40373974609375,0.00009237907943315804,0.0015813015634194016,0.0009185788221657276
1773790250778702800,8.423702880859375,-0.0009390339837409556,-0.00038645812310278416,-0.0005823671817779541
1773790250798666800,8.443666748046875,-0.00010996425407938659,-0.00011504394933581352,-0.00001179426908493042
1773790250818629600,8.463629638671875,0.001354040578007698,-0.0010985862463712692,-0.0005288152024149895
1773790250838593800,8.48359375,-0.0009051040979102254,0.00029594707302749157,-0.0002831663005053997
1773790250858557700,8.5035576171875,-0.001038360525853932,-0.0008391854353249073,0.00014917226508259773
1773790250897237800,8.54223779296875,0.00041803420754149556,0.0007810341194272041,0.00035343924537301064
1773790250917201000,8.562200927734375,-0.00022149656433612108,0.0004208437167108059,0.0004269625060260296
1773790250937164800,8.582164794921875,-0.00004225445445626974,0.0003739660605788231,-0.001413813792169094
1773790250957128700,8.602128662109376,0.000031709918403066695,0.0009941169992089272,-0.00042173033580183983
1773790250977091800,8.622091796875,0.0005181825836189091,0.0009996879380196333,-0.0016601001843810081
1773790250997055700,8.6420556640625,-0.0008254675776697695,0.000039845239371061325,0.0018600774928927422
1773790251017019000,8.662018798828125,0.00002950322232209146,-0.00029742391780018806,-0.0015436280518770218
1773790251036982800,8.681982666015625,0.0007713683298788965,-0.0021833169739693403,-0.00047217169776558876
1773790251056946700,8.70194677734375,-0.0008082457352429628,-0.0012870696373283863,0.002163636963814497
1773790251076909800,8.721909912109375,0.0017288035014644265,-0.0005787399131804705,-0.0002793939784169197
1773790251096873700,8.741873779296874,0.0005450223106890917,0.0009092725813388824,-0.0004953672178089619
1773790251116836900,8.7618369140625,-0.0002170850057154894,0.00034799310378730297,0.000011358875781297684
1773790251136800800,8.78180078125,-0.0009958534501492977,0.00007829349488019943,-0.0010052192956209183
1773790251156764000,8.801763916015625,0.00018114308477379382,0.0007138256914913654,-0.0006496654823422432
1773790251176727800,8.821727783203125,-0.00033948919735848904,0.0001600452233105898,-0.00039441976696252823
1773790251196691700,8.841691650390626,0.00031538051553070545,0.0014625582844018936,-0.001027270220220089
1773790251216654800,8.86165478515625,0.001004903926514089,0.0003086493816226721,-0.0010741017758846283
1773790251236618800,8.88161865234375,-0.0011917559895664454,0.0007384039927273989,0.00029013678431510925
1773790251256582000,8.901581787109375,0.0004851071280427277,0.0008772588334977627,0.00015395553782582283
1773790251276544500,8.92154443359375,-0.0003927757788915187,0.00006322585977613926,0.0005774544551968575
1773790251296508700,8.9415087890625,-0.0005461547407321632,0.0006325594149529934,0.0006531211547553539
1773790251316471600,8.961471435546875,-0.0005461994442157447,0.0003986919764429331,-0.0001123952679336071
1773790251336435700,8.981435791015626,-0.00013048021355643868,-0.0006306297145783901,-0.0014425842091441154
1773790251356398600,9.001398681640625,-0.0006932031828910112,0.000048457179218530655,0.0006072171963751316
1773790251376362800,9.02136279296875,-0.00013891009439248592,0.0003479849547147751,0.0011350754648447037
1773790251396326700,9.04132666015625,-0.0009526865324005485,-0.0005094767548143864,-0.00009577814489603043
1773790251416290000,9.0612900390625,-0.00005324181984178722,0.0006090162787586451,-0.0009754355996847153
1773790251436254000,9.08125390625,-0.001157756894826889,-0.00009376066736876965,-0.00013066083192825317
1773790251456217000,9.101217041015625,-0.000541016343049705,-0.00023628771305084229,0.0011512655764818192
1773790251476181000,9.121180908203126,0.0006006495095789433,-0.0005782535299658775,0.0005867881700396538
1773790251496145000,9.141144775390625,0.0011563657317310572,0.0007565515115857124,0.0006206119433045387
1773790251516108000,9.16110791015625,0.00038697305717505515,-0.0004146744031459093,-0.00011399667710065842
1773790251536072000,9.181072021484376,-0.00022878804884385318,-0.00026040803641080856,0.0011079846881330013
1773790251556035000,9.20103515625,0.0009539685561321676,0.0011882438557222486,-0.0008781654760241508
1773790251575999000,9.2209990234375,0.00022718682885169983,-0.001703839749097824,0.0004951008595526218
1773790251595962000,9.240962158203125,0.0008690005633980036,0.0019963402301073074,0.0005913581699132919
1773790251615926000,9.260926025390624,0.0007043746882118285,-0.0001973356120288372,-0.000019476749002933502
1773790251635890000,9.280889892578125,0.0006410349742509425,0.0001515345647931099,-0.00043230224400758743
1773790251655853000,9.30085302734375,-0.00014954943617340177,0.0002482940908521414,0.0005191224627196789
1773790251675817000,9.32081689453125,0.00024270621361210942,-0.0007610972970724106,0.00016414234414696693
1773790251695780000,9.340780029296875,-0.0009243142558261752,-0.00040028756484389305,0.000532777514308691
1773790251715744000,9.360743896484376,-0.0004051600699312985,-0.0013109028805047274,-0.0003836769610643387
1773790251735708000,9.3807080078125,0.0015882996376603842,0.0005111258942633867,-0.0005705845542252064
1773790251755671000,9.400671142578124,0.0005981670692563057,0.0009557398734614253,-0.0014738989993929863
1773790251775635000,9.420635009765626,-0.0008024390554055572,0.001343772280961275,-0.0005803816020488739
1773790251795598000,9.44059814453125,-0.0008232715772464871,-0.00031432416290044785,0.0007539624348282814
1773790251815562000,9.46056201171875,-0.0011535268276929855,0.0004485594108700752,0.0004582279361784458
1773790251835525000,9.480525146484375,0.0003276536299381405,-0.00022626807913184166,-0.00030904263257980347
1773790251855489000,9.500489013671874,0.001239636680111289,-0.00008034170605242252,-0.0007940237410366535
1773790251875453000,9.520452880859375,-0.00008421906386502087,0.0003858718555420637,-0.00027483468875288963
1773790251895416000,9.540416015625,-0.000459618226159364,0.00014710240066051483,0.0009191925637423992
1773790251915380000,9.5603798828125,0.00016983808018267155,0.0013715695822611451,0.0009836112149059772
1773790251935343000,9.580343017578125,-0.0010169491870328784,-0.0005816512275487185,-0.0016146311536431313
1773790251955307000,9.60030712890625,-0.0005882013356313109,0.00002180878072977066,-0.0015869480557739735
1773790251975271000,9.62027099609375,-0.0012918621068820357,0.000494818203151226,-0.001099160872399807
1773790251995234000,9.640234130859374,-0.00006329859024845064,-0.00041872356086969376,-0.00011900253593921661
1773790252015198000,9.660197998046876,-0.002454583765938878,0.0009134222054854035,0.000745612196624279
1773790252035161000,9.6801611328125,0.0006086842622607946,-0.0003026381600648165,-0.0011747232638299465
1773790252055125000,9.700125,0.000013066950486972928,-0.00018388335593044758,-0.0007830075919628143
1773790252075088100,9.720088134765625,-0.00040407126653008163,-0.0008951029740273952,0.0008355770260095596
1773790252095052000,9.740052001953124,0.0016241208650171757,0.0006359494291245937,0.0011282977648079395
1773790252115016000,9.760015869140625,0.001049713813699782,0.0004653718788176775,-0.00009206030517816544
1773790252134979000,9.77997900390625,0.00107974698767066,0.00046733557246625423,0.0005755545571446419
1773790252154943000,9.79994287109375,-0.00040145256207324564,-0.0015163524076342583,0.0005896221846342087
1773790252174906000,9.819906005859375,-0.00022076856112107635,-0.0001981114037334919,0.000464586541056633
1773790252194870000,9.8398701171875,-0.000218865810893476,0.0003171272110193968,-0.0014599035494029522
1773790252214833000,9.8598330078125,-0.0013955658068880439,-0.00018544308841228485,0.0004271306097507477
1773790252234797000,9.879797119140624,0.0005387472920119762,-0.0012934929691255093,0.00037510693073272705
1773790252254761000,9.899760986328126,-0.0003204516542609781,-0.00035082618705928326,-0.00017123762518167496
1773790252274724000,9.91972412109375,-0.00006590064731426537,-0.0013279656413942575,-0.0005555036477744579
1773790252294688000,9.93968798828125,-0.00023457632050849497,-0.0003685150295495987,-0.0007216529920697212
1773790252314651100,9.959651123046875,0.0012678024359047413,-0.0012496276758611202,0.0007047434337437153
1773790252334615000,9.979614990234374,0.001484394888393581,-0.0015351353213191032,0.00030441535636782646
1773790252354578000,9.999577880859375,0.00010746349289547652,0.00022233324125409126,-0.0007005855441093445
1773790252374542000,10.0195419921875,-0.0008482031407766044,0.0004422964993864298,-0.0003220643848180771
1773790252394506000,10.039506103515626,0.0002833039907272905,-0.0008544200100004673,-0.0005311472341418266
1773790252414468900,10.05946875,0.00006077336729504168,0.0004082922823727131,-0.0006952779367566109
1773790252434432800,10.079432861328126,-0.0014210130320861936,0.0008295765146613121,-0.0002102116122841835
1773790252454395600,10.099395751953125,-0.0017071274342015386,0.0011793418088927865,0.0004215482622385025
1773790252474359800,10.11935986328125,0.0018125418573617935,0.0003659131471067667,0.00009894417598843575
1773790252494323700,10.13932373046875,0.0007130979211069643,-0.0007637478411197662,0.00006173783913254738
1773790252514286800,10.159286865234375,0.0007357344729825854,-0.0002393547911196947,0.0010822340846061707
1773790252534250800,10.179250732421876,0.0003656822082120925,-0.0018055627588182688,-0.0005228514783084393
1773790252554214000,10.1992138671875,-0.00019927116227336228,-0.0003785437438637018,0.0008472241461277008
1773790252574177800,10.219177734375,-0.0015953544061630964,-0.0013160908129066229,-0.002363343257457018
1773790252594140700,10.239140625,-0.00008088798495009542,0.00020099454559385777,-0.0011310800909996033
1773790252614104800,10.259104736328124,0.000597915321122855,0.00035866163671016693,-0.0007760641165077686
1773790252634068700,10.27906884765625,0.0009982914198189974,-0.0002696432638913393,0.00013336027041077614
1773790252654032000,10.299031982421875,0.0019566186238080263,-0.0005213187541812658,-0.0006170012056827545
1773790252673995800,10.318995849609376,-0.0003542878257576376,0.000009148381650447845,-0.0010713147930800915
1773790252693958700,10.338958740234375,0.00012157150194980204,0.0006541765760630369,-0.0007233484648168087
1773790252713922800,10.3589228515625,-0.0006969603709876537,0.00010256818495690823,-0.00029158592224121094
1773790252733885700,10.3788857421875,-0.00007908063707873225,0.0022607611026614904,-0.0007696682587265968
1773790252753849900,10.398849853515625,0.0002189699880545959,-0.0009111643303185701,0.00029932567849755287
1773790252773813800,10.418813720703126,0.00013104375102557242,-0.0006979026366025209,0.00031365547329187393
1773790252793776600,10.438776611328125,0.00037315418012440205,0.000008066883310675621,-0.0005487180314958096
1773790252813740800,10.45874072265625,-0.000269067328190431,-0.0002804670948535204,-0.0001598922535777092
1773790252833703700,10.47870361328125,-0.0007166352588683367,0.0010245995363220572,-0.0011897161602973938
1773790252853667800,10.498667724609374,0.00007366741192527115,-0.0002710842527449131,-0.0013762321323156357
1773790252873630700,10.518630615234375,0.0003318002272862941,-0.00016567553393542767,-0.0015080389566719532
1773790252893594600,10.5385947265625,-0.0007705154130235314,0.00027623469941318035,0.00019379286095499992
1773790252913558800,10.558558837890626,-0.000516233267262578,0.00037746713496744633,-0.0006546517834067345
1773790252933521700,10.578521728515625,0.0004929015412926674,0.0006986015941947699,0.0006380234844982624
1773790252953485800,10.59848583984375,-0.000920381338801235,0.0001160474494099617,-0.0014743376523256302
1773790252973448700,10.61844873046875,0.0013316937256604433,0.0008833303581923246,-0.0008595879189670086
1773790252993412600,10.63841259765625,0.000017147191101685166,-0.00151465879753232,-0.0012576039880514145
1773790253013375700,10.658375732421876,0.0004669424961321056,-0.00021344423294067383,-0.000654757022857666
1773790253033339600,10.678339599609375,-0.00022396488930098712,-0.0001659994013607502,-0.0010511945001780987
1773790253053302800,10.698302734375,-0.0003152347053401172,0.0003148175310343504,-0.0002557472325861454
1773790253073266700,10.7182666015625,0.0008026961586438119,0.0013699992559850216,0.00029502110555768013
1773790253093230800,10.73823095703125,-0.0004967062268406153,0.0007133220788091421,-0.0014501879923045635
1773790253113193700,10.75819384765625,0.0006005037575960159,-0.001540676923468709,-0.001328825019299984
1773790253133157600,10.77815771484375,-0.0007026846287772059,0.00001959758810698986,-0.000023591332137584686
1773790253153120800,10.798120849609376,0.0010711126960814,-0.0011444047559052706,-0.00034109456464648247
1773790253173084700,10.818084716796875,0.00016476059681735933,0.0006792217027395964,0.0005049938336014748
1773790253193047800,10.8380478515625,-0.00005124142626300454,-0.0002669082023203373,0.0007837875746190548
1773790253213011700,10.85801171875,-0.0007517063058912754,-0.00030304049141705036,-0.0012255320325493813
1773790253232975600,10.8779755859375,-0.0003933112893719226,-0.0001153736375272274,0.00043573323637247086
1773790253252938800,10.897938720703126,-0.0005321921198628843,0.000690460205078125,0.0006912234239280224
1773790253272902700,10.917902587890625,0.0009367243037559092,-0.00026478804647922516,0.000008681323379278183
1773790253292865800,10.93786572265625,0.0010707385372370481,0.0005719410255551338,0.0004644137807190418
1773790253312829700,10.95782958984375,0.00042842753464356065,0.0006865141913294792,-0.0007489915005862713
1773790253332792800,10.977792724609374,0.00048691369011066854,-0.00000924011692404747,0.00007050437852740288
1773790253352756700,10.9977568359375,0.00029888804419897497,0.001097442931495607,-0.0010437117889523506
1773790253372720600,11.017720703125,0.0006199181079864502,-0.00020458688959479332,-0.00047291349619627
1773790253392683800,11.037683837890626,-0.00006121068145148456,-0.0003789875190705061,0.0005919993855059147
1773790253412647400,11.0576474609375,-0.00019000573956873268,-0.00013907207176089287,-0.0007834727875888348
1773790253432610600,11.077610595703124,0.00006428105552913621,0.000576770631596446,-0.0008919914253056049
1773790253452574500,11.097574462890625,0.000047755274863447994,0.00008673430420458317,-0.00012784544378519058
1773790253472537600,11.11753759765625,0.00035316002322360873,0.00012149917893111706,-0.0010337908752262592
1773790253492501500,11.13750146484375,0.0005020145326852798,0.00035121431574225426,-0.00029525160789489746
1773790253512465400,11.15746533203125,0.0011470252647995949,-0.0010772496461868286,0.000009902287274599075
1773790253532428500,11.177428466796876,0.00030337326461449265,-0.0002627940848469734,0.00018078787252306938
1773790253552392400,11.197392333984375,0.0015486248303204775,0.0006949673406779766,-0.0007204408757388592
1773790253572355600,11.21735546875,0.0005023035919293761,0.0001177438534796238,-0.0007180981338024139
1773790253592319500,11.237319580078125,-0.0012585744261741638,-0.0007969958242028952,0.0010296902619302273
1773790253612282600,11.25728271484375,-0.0014499479439109564,-0.00019224290736019611,-0.0013233604840934277
1773790253632246500,11.27724658203125,-0.0012571100378409028,-0.00014098640531301498,0.0018479214049875736
1773790253652210400,11.29721044921875,-0.0001855655573308468,0.0007349797524511814,0.00009085657075047493
1773790253672173600,11.317173583984374,0.00018089578952640295,-0.0002271828707307577,-0.0002293987199664116
1773790253692137500,11.337137451171875,-0.00038098933873698115,0.0005134770181030035,0.000024869106709957123
1773790253712100600,11.3571005859375,-0.0005380462971515954,-0.000050747301429510117,0.0003503249026834965
1773790253732064500,11.377064453125,-0.0005315414164215326,-0.0002766277175396681,0.0002452190965414047
1773790253752027400,11.39702734375,0.00025107510737143457,0.0004830700345337391,-0.0018378281965851784
1773790253771991600,11.416991455078126,-0.0008552779909223318,0.0004539045039564371,0.0010189474560320377
1773790253791954400,11.436954345703125,-0.002041237661615014,-0.0009165937080979347,-0.0009243586100637913
1773790253811918600,11.456918701171874,-0.0008384047541767359,0.0003499069716781378,0.0005698292516171932
1773790253831882500,11.476882568359375,-0.0003022107412107289,0.0002642120234668255,-0.0007869689725339413
1773790253851845400,11.496845458984374,-0.0011527506867423654,0.0008482371922582388,-0.0001829131506383419
1773790253871809500,11.5168095703125,-0.0009678404312580824,0.00007900339551270008,0.0001192786730825901
1773790253891772400,11.5367724609375,-0.0016483697108924389,0.00009520375169813633,0.0010764128528535366
1773790253911736600,11.556736572265624,0.000826451403554529,0.0009670183062553406,0.0006585191003978252
1773790253931699500,11.576699462890625,-0.0008093877695500851,0.00033271079882979393,-0.0003398400731384754
1773790253951663600,11.59666357421875,0.000024798340746201575,-0.0008565573953092098,0.0007908926345407963
1773790253971626500,11.61662646484375,0.0011029148008674383,0.00007403269410133362,0.0008662394247949123
1773790253991590400,11.63659033203125,-0.0005673485575243831,0.0003636095207184553,-0.0001653549261391163
1773790254011554600,11.656554443359376,-0.001148722949437797,0.0008780267089605331,0.0006327512674033642
1773790254031517400,11.676517333984375,0.0007780545274727046,-0.0003928516525775194,0.0004073735326528549
1773790254051481600,11.696481689453124,-0.0006994069553911686,-0.00026974501088261604,0.0006493851542472839
1773790254071444500,11.716444580078125,-0.00046422117156907916,0.0006306362338364124,-0.0003932388499379158
1773790254091408400,11.736408447265624,-0.0008682620245963335,-0.00004952307790517807,0.0012297644279897213
1773790254111371500,11.75637158203125,-0.00007284892490133643,-0.0009872757364064455,0.0013247644528746605
1773790254131335400,11.77633544921875,0.0007930173305794597,-0.00015541072934865952,-0.000562367495149374
1773790254151299600,11.796299560546874,0.00030694864108227193,0.00021105469204485416,-0.000595292542129755
1773790254171262500,11.816262451171875,0.00009286313434131444,-0.00009034527465701103,0.0008392781019210815
1773790254191226400,11.836226318359374,-0.0000827756302896887,0.0001904936507344246,-0.0005964357405900955
1773790254211189500,11.856189453125,-0.000012488046195358038,0.002159956842660904,-0.00028768647462129593
1773790254231153400,11.8761533203125,-0.0008816425688564777,0.00014230445958673954,0.00001907581463456154
1773790254251116500,11.896116455078126,-0.00026135655934922397,-0.00018586823716759682,0.0009555290453135967
1773790254271080400,11.91608056640625,0.0004765562480315566,-0.0013932099100202322,0.00003492087125778198
1773790254291043600,11.936043701171876,-0.0003603435179684311,-0.0007235764060169458,-0.00010045431554317474
1773790254311007500,11.956007568359375,-0.00015033481759019196,-0.00031639053486287594,0.00010017817839980125
1773790254330971400,11.975971435546874,0.0002721796918194741,0.0005891078617423773,-0.000535464845597744
1773790254350934500,11.9959345703125,0.0002553863450884819,0.00011001154780387878,0.0013164128176867962
1773790254370898400,12.0158984375,0.0009256289340555668,-0.0002727431710809469,-0.0006933589465916157
1773790254390861600,12.035861572265626,-0.0005383683019317687,-0.00033461814746260643,0.00024627381935715675
1773790254410825500,12.055825439453125,-0.0011343293590471148,-0.0010455381125211716,0.0010872692801058292
1773790254430788600,12.07578857421875,-0.0009182140929624438,-0.0028172084130346775,-0.000511969905346632
1773790254450752500,12.09575244140625,0.00188862020149827,-0.00021270988509058952,0.0012688720598816872
1773790254470715600,12.115715576171874,-0.00005127897020429373,0.000356798293069005,-0.00017594825476408005
1773790254490679600,12.135679443359376,0.0010311119258403778,-0.0006459006108343601,-0.0006380886770784855
1773790254510643500,12.1556435546875,0.00019649350724648684,-0.000389578053727746,-0.000116769690066576
1773790254530606600,12.175606689453126,-0.00044081578380428255,0.0008178174030035734,-0.0003766915760934353
1773790254550570500,12.195570556640625,-0.00040190626168623567,-0.0003665217664092779,0.00016489066183567047
1773790254570533600,12.21553369140625,0.0008975821547210217,-0.00011262902989983559,-0.000906710047274828
1773790254590497500,12.23549755859375,-0.00040373881347477436,-0.0005400439258664846,0.0011692489497363567
1773790254610460400,12.25546044921875,-0.0017042552353814244,-0.000005366280674934387,0.00101923244073987
1773790254630424600,12.275424560546876,0.0011459311936050653,-0.0004250556230545044,-0.0004639369435608387
1773790254650387500,12.295387451171875,-0.00019501830684021115,-0.0007982396055012941,0.0002873535268008709
1773790254670351600,12.3153515625,-0.0010532091837376356,-0.0014614476822316647,0.0008146073669195175
1773790254690315500,12.3353154296875,0.0014989938354119658,0.0005400869995355606,0.000018732622265815735
1773790254710278400,12.3552783203125,-0.000025742134312167764,-0.0004215431399643421,-0.00030390266329050064
1773790254730242600,12.37524267578125,-0.00033770984737202525,-0.000010599149391055107,-0.0006321701221168041
1773790254750205400,12.395205322265625,0.0010197111405432224,-0.00006119185127317905,-0.0018490888178348541
1773790254770169600,12.415169677734376,0.00005755681195296347,-0.0005719959735870361,0.0011628102511167526
1773790254790132500,12.435132568359375,0.00038244912866503,-0.00010936497710645199,0.00031197210773825645
1773790254810096400,12.455096435546874,0.00035922336974181235,-0.00018633785657584667,-0.0008737887255847454
1773790254830059500,12.4750595703125,0.0006272291066125035,-0.000038893427699804306,-0.0003709881566464901
1773790254850023400,12.4950234375,0.0001597752416273579,0.0008281683549284935,-0.0000584898516535759
1773790254873731300,12.5187314453125,0.0001545393606647849,0.00012200488708913326,-0.00009335996583104134
1773790254893694500,12.538694580078126,0.00040170788997784257,-0.00027748383581638336,0.0006017573177814484
1773790254913658400,12.558658447265625,-0.0001620398397790268,-0.0001748926006257534,-0.00044291699305176735
1773790254933621500,12.57862158203125,-0.001299576135352254,0.0008599148131906986,-0.0010829484090209007
1773790254953585400,12.59858544921875,-0.0011169454082846642,-0.00016241660341620445,0.001902010291814804
1773790254973548300,12.61854833984375,-0.0011442973045632243,0.00007303035818040371,0.0012081312015652657
1773790254993512400,12.638512451171875,0.0005761900101788342,-0.0009486177004873753,0.0003655725158751011
1773790255013475300,12.658475341796875,-0.00161336874589324,-0.000375047093257308,0.0014162342995405197
1773790255033439500,12.678439453125,0.0005931417108513415,-0.0011558567639440298,-0.0020265448838472366
1773790255053402400,12.69840234375,0.00034417217830196023,-0.0012619572225958109,-0.000025519169867038727
1773790255073366500,12.718366455078124,0.00024019015836529434,-0.00047759595327079296,0.00007212487980723381
1773790255093330400,12.738330322265625,-0.0015557849546894431,0.0005905230063945055,0.00036787427961826324
1773790255113293300,12.758293212890624,-0.001082082511857152,-0.00010210834443569183,-0.0007649082690477371
1773790255133257500,12.778257568359376,-0.00010941323125734925,-0.000522989546880126,-0.00026381853967905045
1773790255153220400,12.798220458984375,-0.00012568179226946086,-0.00029804371297359467,-0.001613981556147337
1773790255173184500,12.8181845703125,-0.0016127986600622535,0.0005560119170695543,-0.0012587332166731358
1773790255193147400,12.8381474609375,-0.0009329104796051979,0.000976347946561873,-0.00014186697080731392
1773790255213111300,12.858111328125,0.00044230575440451503,-0.0004498891066759825,0.00033203745260834694
1773790255233074400,12.878074462890625,0.0004404945648275316,0.00036380416713654995,-0.0003361799754202366
1773790255253037600,12.89803759765625,-0.0011221233289688826,0.0001872244756668806,0.00001514563336968422
1773790255273001500,12.91800146484375,0.0003384444280527532,0.00006405636668205261,0.0005137431435286999
1773790255292964400,12.93796435546875,0.0013229309115558863,-0.00030152336694300175,0.0007337071001529694
1773790255312928500,12.957928466796876,-0.000547048868611455,0.00003185821697115898,0.0006489381194114685
1773790255332892400,12.977892333984375,-0.001652811886742711,-0.0012478195130825043,-0.0004434683360159397
1773790255352855600,12.99785546875,0.000520618399605155,0.00026184855960309505,0.0006539970636367798
1773790255372819500,13.0178193359375,-0.0015485280891880393,-0.001479888567700982,-0.00004501687362790108
1773790255392782300,13.0377822265625,-0.0007386630168184638,-0.0002487730234861374,-0.0004193638451397419
1773790255412747300,13.057747314453126,0.0006243063253350556,-0.0004983174148947,-0.00043074553832411766
1773790255432710100,13.077710205078125,-0.001320963609032333,0.00044208415783941746,-0.0008665695786476135
1773790255452674000,13.097674072265624,-0.00035347905941307545,-0.00007687276229262352,0.00003989320248365402
1773790255472637200,13.11763720703125,-0.0004826857475563884,-0.00020552542991936207,0.00010269694030284882
1773790255492601000,13.13760107421875,0.0006133198039606214,-0.0006080302409827709,0.0008166399784386158
1773790255512564000,13.15756396484375,-0.0005019113305024803,0.00024573388509452343,0.0005762358196079731
1773790255532528000,13.177528076171875,0.00040665516280569136,0.0005397377535700798,0.0003026677295565605
1773790255552492000,13.197491943359376,-0.0008008759468793869,-0.0005806507542729378,-0.0011200839653611183
1773790255572455200,13.217455078125,0.0010217205854132771,-0.0001259839627891779,0.0007174024358391762
1773790255592419000,13.237419189453124,-0.0006249273428693414,-0.0004887036047875881,0.00018354644998908043
1773790255612382200,13.25738232421875,-0.0002996003022417426,-0.0005021155811846256,0.0016612978652119637
1773790255632346000,13.27734619140625,-0.00047374534187838435,-0.0002481697592884302,0.001067225355654955
1773790255652309200,13.297309326171876,0.0003686461132019758,-0.0015019464772194624,-0.0006147348321974277
1773790255672273200,13.317273193359375,0.0006846635951660573,-0.0015632682479918003,0.0007074424065649509
1773790255692236000,13.337236083984376,-0.0015136140864342451,-0.001614478649571538,-0.00036108633503317833
1773790255712200200,13.3572001953125,0.00020773959113284945,0.0001383279450237751,-0.001148355659097433
1773790255732163000,13.3771630859375,-0.00036744721001014113,0.00033291918225586414,-0.00015101535245776176
1773790255752127200,13.397127197265625,0.00012692221207544208,-0.0012646077666431665,-0.0007933648303151131
1773790255772089900,13.41708984375,0.002863378031179309,0.0003961485344916582,-0.000025958754122257233
1773790255792054300,13.43705419921875,0.00030084949685260653,-0.0005193022079765797,-0.00001786882057785988
1773790255812018200,13.45701806640625,-0.000053653973736800253,-0.0007412154227495193,-0.0013628662563860416
1773790255831981000,13.47698095703125,0.0008111927891150117,0.0005122045986354351,0.0011021182872354984
1773790255851945200,13.4969453125,-0.00004228368925396353,0.0001322380267083645,-0.0004111342132091522
1773790255871907800,13.516907958984374,-0.0004240425187163055,0.000042275991290807724,0.0015117828734219074
1773790255891872300,13.536872314453126,0.000680471770465374,-0.0012027164921164513,-0.0012884512543678284
1773790255911835000,13.5568349609375,0.000854636775329709,-0.00009459536522626877,0.0003565768711268902
1773790255931799300,13.57679931640625,0.00025833211839199066,-0.001028211321681738,0.0005352254956960678
1773790255951762000,13.596761962890625,0.0004885959206148982,-0.0002383217215538025,-0.0005742362700402737
1773790255971726000,13.61672607421875,0.0006241888040676713,-0.00018129684031009674,0.0005902638658881187
1773790255991689000,13.63668896484375,-0.0010928709525614977,-0.000016862992197275162,-0.001154084224253893
1773790256011652900,13.65665283203125,0.0002462488191667944,0.0006825884338468313,-0.00021184096112847328
1773790256031616000,13.676615966796875,0.000495094689540565,0.00047619501128792763,-0.00019039306789636612
1773790256051580000,13.696579833984375,0.00042107480112463236,-0.0005948424804955721,-0.0008389139547944069
1773790256071544000,13.7165439453125,0.0004541478701867163,-0.0011559573467820883,-0.00006215553730726242
1773790256091507000,13.7365068359375,-0.00015079141303431243,0.0018764891428872943,-0.0009638392366468906
1773790256111471000,13.75647119140625,-0.00028416875284165144,-0.0020602222066372633,-0.0006244517862796783
1773790256131434000,13.77643408203125,-0.000909406051505357,-0.0002698986791074276,0.0009981351904571056
1773790256151398000,13.79639794921875,-0.0008822401869110763,-0.00008633756078779697,-0.0006668455898761749
1773790256171361000,13.816361083984376,0.00030631813569925725,-0.0008629085496068001,-0.0009470009244978428
1773790256191325000,13.836324951171875,0.0004953989409841597,0.0003662745002657175,-0.0011897035874426365
1773790256211288000,13.8562880859375,-0.0005501958075910807,0.0010030590929090977,-0.00020944885909557343
1773790256231252000,13.876251953125,0.0007201822008937597,0.0005049698520451784,-0.00038180360570549965
1773790256251215000,13.896215087890624,-0.001510982634499669,0.0006344371940940619,0.0009485324844717979
1773790256271179000,13.916178955078125,0.00024226696405094117,0.00034856144338846207,-0.0008305534720420837
1773790256291142000,13.936141845703125,-0.00037711369805037975,0.00005345582030713558,-0.0005897977389395237
1773790256311106000,13.95610595703125,0.00012621513451449573,-0.0007992296013981104,-0.0004325294867157936
1773790256331070000,13.976070068359375,-0.0013876889133825898,-0.00013963179662823677,0.00017193332314491272
1773790256351033000,13.996033203125,0.00031556710018776357,0.00029758270829916,-0.00013683689758181572
1773790256370997000,14.0159970703125,-0.00016108553973026574,0.0010823303600773215,0.00006481865420937538
1773790256390959900,14.0359599609375,-0.0002334777091164142,-0.000899910693988204,-0.0005165394395589828
1773790256410924000,14.055924072265626,-0.0005437727668322623,0.0009002492297440767,0.0016830023378133774
1773790256430886100,14.07588623046875,0.00013593015319202095,0.0006916446145623922,0.00017270445823669434
1773790256450850300,14.095850341796876,-0.0002947909233625978,0.0006428644992411137,-0.0015908405184745789
1773790256470813200,14.115813232421875,0.00045705289812758565,0.00009906548075377941,0.0002709110267460346
1773790256490777300,14.13577734375,-0.00042803550604730844,0.00010354467667639256,-0.00032507115975022316
1773790256510740200,14.155740234375,0.0013477131724357605,0.001717842067591846,0.0008321846835315228
1773790256530704400,14.175704345703124,-0.0007343179895542562,-0.0006125511135905981,0.0000692363828420639
1773790256550667300,14.195667236328125,-0.0018560244934633374,0.0003560108598321676,0.0012540132738649845
1773790256570631200,14.215631103515625,0.0011122487485408783,-0.00043510086834430695,-0.0006491313688457012
1773790256590594300,14.23559423828125,-0.000997518072836101,0.00024092965759336948,0.0007650875486433506
1773790256610558200,14.25555810546875,-0.0007148007280193269,-0.0013876324519515038,0.001810563262552023
1773790256630522400,14.2755224609375,0.0008049957687035203,-0.0002345649991184473,0.0015932605601847172
1773790256650485200,14.2954853515625,0.0003435591352172196,0.00026559922844171524,-0.0008497433736920357
1773790256670449200,14.31544921875,-0.0005923390272073448,0.00027815671637654305,0.0000321841798722744
1773790256690412300,14.335412353515625,-0.00008895780774764717,0.00041471002623438835,0.00019801640883088112
1773790256710376200,14.355376220703125,0.0002148228813894093,-0.00046112178824841976,0.0001743752509355545
1773790256730339300,14.37533935546875,-0.00014098413521423936,-0.00030733831226825714,-0.0006444784812629223
1773790256750303200,14.39530322265625,-0.0013412388507276773,0.0002378744538873434,-0.0003397073596715927
1773790256770266400,14.415266357421874,0.0001371741818729788,0.0009499841835349798,0.0008271448314189911
1773790256790230300,14.435230224609375,-0.0006439789431169629,0.0016367867356166244,0.000830627977848053
1773790256810193400,14.455193359375,-0.000027492729714140296,0.0003209428396075964,0.0009438334964215755
1773790256830157300,14.4751572265625,0.0005551427602767944,-0.000777974259108305,0.0012891748920083046
1773790256850120200,14.4951201171875,-0.00003175673191435635,0.0012589760590344667,0.00013471907004714012
1773790256870084400,14.51508447265625,-0.00003256695345044136,-0.00036102673038840294,-0.0002986704930663109
1773790256890047200,14.535047119140625,0.00005032910848967731,-0.0005982979200780392,0.0003446158953011036
1773790256910011400,14.555011474609374,0.0005886286962777376,-0.00043629459105432034,0.0008876961655914783
1773790256929974300,14.574974365234375,0.00014674880367238075,0.00013057817704975605,0.0010475018061697483
1773790256949938200,14.594938232421875,-0.0007799125160090625,0.000016045523807406425,0.00005886377766728401
1773790256969902300,14.61490234375,0.0010448466055095196,0.00039013265632092953,0.00025881174951791763
1773790256989865200,14.634865234375,0.0005942659918218851,0.0001009299885481596,0.0007870132103562355
1773790257009829400,14.654829345703124,-0.0011411115992814302,0.0000027336645871400833,0.0008098352700471878
1773790257029792300,14.674792236328125,-0.0001156753278337419,-0.00020319223403930664,0.0005256645381450653
1773790257049756400,14.69475634765625,0.00024537622812204063,0.00016039027832448483,-0.0007081720978021622
1773790257069719300,14.71471923828125,0.0009453010279685259,0.00010087108239531517,0.000799085944890976
1773790257089683200,14.73468310546875,-0.0013036872260272503,0.0011289286194369197,0.0007209805771708488
1773790257109646300,14.754646240234376,0.0005936252418905497,-0.0004560262896120548,0.0005103852599859238
1773790257129610200,14.7746103515625,-0.0001422470377292484,0.0000016202684491872787,0.0009902622550725937
1773790257149573400,14.794573486328124,-0.0007051072898320854,-0.00007765158079564571,-0.0002581542357802391
1773790257169537300,14.814537353515625,-0.00103307596873492,0.0004008424002677202,-0.0008912906050682068
1773790257189500400,14.83450048828125,0.000049247872084379196,0.0005112993530929089,-0.0014297128655016422
1773790257209464300,14.85446435546875,-0.00028247362934052944,0.0013417394366115332,-0.0008620256558060646
1773790257229427500,14.874427490234375,0.00008468583109788597,0.000804864801466465,0.00016702571883797646
1773790257249391400,14.894391357421876,-0.000296383339446038,0.00006838352419435978,0.0002605598419904709
1773790257269354200,14.914354248046875,-0.0009509370429441333,-0.0002234161365777254,0.002847578376531601
1773790257289318400,14.934318359375,0.00013237095845397562,-0.0002826706040650606,0.0014100787229835987
1773790257309281300,14.95428125,-0.0004909043200314045,-0.0005151773802936077,0.00011378899216651917
1773790257329245400,14.974245361328125,-0.0010034488514065742,0.0007196816150099039,0.000034376513212919235
1773790257349209300,14.994209228515626,-0.0003924249904230237,0.0000980147160589695,0.00025116046890616417
1773790257369172200,15.014172119140625,-0.0010268106125295162,0.00014587724581360817,0.00008364534005522728
1773790257389136400,15.034136474609374,-0.00009009908535517752,-1.9348226487636566e-7,0.0004910393618047237
1773790257409099300,15.054099365234375,0.001055961474776268,-0.0005288475658744574,0.00043381936848163605
1773790257429063700,15.074063720703125,0.0003847606130875647,0.0002378644421696663,0.0005954704247415066
1773790257449026600,15.094026611328125,-0.00030250626150518656,-0.0016748795751482248,-0.000017344951629638672
1773790257468990500,15.113990478515625,-0.0010733960662037134,-0.00005994434468448162,-0.0010786354541778564
1773790257488953600,15.13395361328125,0.00041445321403443813,0.0004895378369837999,0.00017056334763765335
1773790257508917500,15.15391748046875,0.0002860802924260497,-0.00039748847484588623,-0.00025738123804330826
1773790257528880600,15.173880615234374,-0.0014718887396156788,-0.0001759964507073164,0.0004095449112355709
1773790257548844500,15.193844482421875,-0.0007491480791941285,0.0010670784395188093,0.000004050787538290024
1773790257568807700,15.2138076171875,-0.00025621458189561963,0.0001928526908159256,-0.00006606010720133781
1773790257588771600,15.233771484375,-0.00006743494304828346,-0.000110602006316185,-0.0006973021663725376
1773790257608734700,15.253734619140625,-0.00022222062398213893,-0.0002771953586488962,-0.00021058786660432816
1773790257628698600,15.27369873046875,0.0009205814567394555,0.00021973787806928158,0.00010204734280705452
1773790257648661500,15.29366162109375,-0.00023397894983645529,0.0014266957296058536,-0.0005582459270954132
1773790257668625700,15.313625732421874,-0.00040573813021183014,-0.0004986347630620003,0.0007432885468006134
1773790257688588500,15.333588623046875,-0.00032441207440569997,-0.00017731613479554653,0.0003892569802701473
1773790257708552700,15.353552734375,0.001872063847258687,-0.0003331718035042286,0.00017533265054225922
1773790257728515600,15.373515625,0.0006578034372068942,0.00015871715731918812,-0.00007638754323124886
1773790257748479500,15.3934794921875,-0.0008605131879448891,-0.00018444284796714783,-0.0010362123139202595
1773790257768443600,15.413443603515624,0.0005132625810801983,-0.00028229644522070885,-0.0012890249490737915
1773790257788406500,15.433406494140625,-0.00045164249604567885,0.0007355811540037394,-0.00019189994782209396
1773790257808370700,15.45337060546875,0.0006955035496503115,0.0003408764023333788,-0.0005508228205144405
1773790257828333600,15.47333349609375,0.0005517692770808935,-0.0009206433314830065,-0.0013385801576077938
1773790257848297500,15.49329736328125,-0.00019208338926546276,0.00012843171134591103,-0.0005255150608718395
1773790257868260600,15.513260498046876,-0.0003656362823676318,0.0009234135504812002,0.00004834122955799103
1773790257888224500,15.533224609375,-0.00003187060065101832,0.0003048947546631098,-0.0007687881588935852
1773790257908187600,15.553187744140626,-0.0003707620780915022,0.0005657416768372059,-0.0011318642646074295
1773790257928151600,15.573151611328125,0.00012672808952629566,0.0004986512940376997,-0.0001168297603726387
1773790257948114700,15.59311474609375,0.00015648742555640638,0.000177283538505435,0.0003812666982412338
1773790257968078600,15.61307861328125,0.00010133553587365896,0.000027905451133847237,-0.00003876630216836929
1773790257988041700,15.633041748046875,0.00010675098019419238,-0.0004052927251905203,-0.0006897654384374619
1773790258008005600,15.653005615234376,-0.0005671266699209809,-0.0005915670190006495,-0.00027623632922768593
1773790258027968800,15.67296875,0.0007615669164806604,-0.0010282746516168118,0.0007658563554286957
1773790258047932700,15.6929326171875,-0.0003198189951945096,-0.0013442628551274538,-0.00019562803208827972
1773790258067895600,15.7128955078125,0.0005465090507641435,0.00024648639373481274,-0.0006861444562673569
1773790258087859700,15.732859619140624,-0.0008497189846821129,-0.00007782434113323689,-0.00008869031444191933
1773790258107822600,15.752822509765625,0.0011130645871162415,-0.000012494390830397606,0.0005889572203159332
1773790258127786800,15.772786865234375,0.00041428531403653324,0.00009942008182406425,0.0007108510471880436
1773790258147749600,15.79274951171875,0.00010117472265847027,-0.000611825380474329,-0.0001713968813419342
1773790258167713500,15.812713623046875,-0.0004785881610587239,0.00009348802268505096,0.000329027883708477
1773790258187676700,15.8326767578125,0.001379844848997891,0.00005517154932022095,-0.0014074626378715038
1773790258207640600,15.852640625,-0.0008252497063949704,-0.0003614993765950203,-0.0010003638453781605
1773790258227603700,15.872603759765624,-0.0003047586069442332,0.00048014079220592976,0.0009346520528197289
1773790258247567600,15.892567626953126,0.00017937220400199294,-0.0005030443426221609,-0.000713809859007597
1773790258267531500,15.912531494140625,-0.0016839884920045733,0.0005648727528750896,0.0009377282112836838
1773790258287494700,15.93249462890625,-0.000020120030967518687,0.00020999228581786156,-0.001246363390237093
1773790258307457500,15.95245751953125,-0.000563716166652739,-0.0010969566646963358,0.00030045583844184875
1773790258327421700,15.972421630859374,-0.0010505286045372486,-0.0006003978196531534,-0.0018870877102017403
1773790258347385600,15.992385498046875,-0.00042169290827587247,0.000731408828869462,0.003169031348079443
1773790258367348700,16.0123486328125,-0.0017379636410623789,0.0017770633567124605,0.00007204525172710419
1773790258387312600,16.032312744140626,0.000941107515245676,0.00011213822290301323,-0.0007118103094398975
1773790258407275800,16.05227587890625,0.001386664342135191,-0.0011481235269457102,-0.00038695521652698517
1773790258427239700,16.07223974609375,0.00015843070286791772,0.00042924750596284866,0.00017609912902116776
1773790258447202600,16.09220263671875,-0.00013149720325600356,0.0009203196968883276,-0.0002882760018110275
1773790258467166700,16.112166748046874,0.0002338206541026011,-0.0007378978189080954,-0.00018532993271946907
1773790258487129600,16.132129638671874,0.00009496436541667208,-0.00037285429425537586,0.0003796154633164406
1773790258507093800,16.15209375,-0.0011869010049849749,-0.00006490806117653847,0.00006523169577121735
1773790258527056600,16.172056640625,0.0009854116942733526,-0.00011909077875316143,0.000363888218998909
1773790258547020800,16.192020751953127,-0.0009977349545806646,-0.001430450938642025,-0.000756146851927042
1773790258566983700,16.211983642578126,-0.0007429369725286961,-0.0010686428286135197,-0.00016886228695511818
1773790258586947600,16.231947509765625,0.0004409262037370354,0.0003633294254541397,0.00029069604352116585
1773790258606910700,16.25191064453125,-0.00022269925102591515,0.0005316981114447117,-0.00023184996098279953
1773790258626874600,16.27187451171875,-0.0006863299640826881,0.0000036491546779870987,-0.00041564926505088806
1773790258646837800,16.291837646484375,0.0014650062657892704,-0.0007168897427618504,-0.00015381071716547012
1773790258666801700,16.3118017578125,-0.0012709267903119326,0.0011407822603359818,0.002031804760918021
1773790258686764800,16.331764892578125,0.0005844716797582805,-0.0001497503835707903,-0.0010198187083005905
1773790258706728700,16.351728759765624,-0.0006917135906405747,0.0000012295786291360855,-0.0001031956635415554
1773790258726691800,16.37169189453125,0.00006194492743816227,-0.0016078897751867771,-0.0012947260402143002
1773790258746655700,16.39165576171875,-0.00026150932535529137,-0.000802675960585475,-0.0006608753465116024
1773790258766618600,16.41161865234375,0.0018053257372230291,-0.00032945210114121437,0.0007817894220352173
1773790258786582800,16.431582763671877,0.000531761150341481,-0.00016306317411363125,0.0001016850583255291
1773790258806545700,16.451545654296876,-0.0001885642413981259,0.00004920759238302708,0.00012571457773447037
1773790258826509800,16.471509765625,-0.0002831105375662446,-0.00042449054308235645,-0.0009971819818019867
1773790258846472700,16.49147265625,0.00031276122899726033,-0.00011245138011872768,-0.00019384222105145454
1773790258866436600,16.5114365234375,-0.0002663911145646125,0.0005124702583998442,-0.0002175820991396904
1773790258888895700,16.533895751953125,0.0007402410847134888,0.000158337177708745,0.00008098315447568893
1773790258908859600,16.553859619140624,0.0007653218344785273,-0.00017435522750020027,0.0008284924551844597
1773790258928822800,16.57382275390625,-0.0021271249279379845,0.0005220433231443167,-0.0011502974666655064
1773790258948786700,16.59378662109375,0.000561912136618048,-0.00011200737208127975,0.0007561477832496166
1773790258968749800,16.613749755859374,-0.00016109933494590223,-0.0002868357114493847,0.0005630552768707275
1773790258988713700,16.633713623046877,-0.0005589338252320886,-0.0013007798697799444,-0.00020319456234574318
1773790259008676900,16.6536767578125,0.00010945962276309729,0.0003268334548920393,-0.000559637788683176
1773790259028640800,16.673640869140623,0.00046077166916802526,0.00012008962221443653,-0.0009854971431195736
1773790259048603600,16.693603759765626,-0.0004477394395507872,0.00017082062549889088,0.00006542401388287544
1773790259068567800,16.71356787109375,0.0002623317705001682,-0.0004420583136379719,0.0008423803374171257
1773790259088530700,16.73353076171875,-0.00009020384459290653,-0.000620030565187335,-0.0006676591001451015
1773790259108494800,16.753494873046876,-0.0005147067713551223,-0.0008044610731303692,0.0003206315450370312
1773790259128457700,16.773457763671875,0.0003898227878380567,-0.00007025082595646381,0.0009975102730095387
1773790259148422000,16.793421875,0.0004541257512755692,0.00032345554791390896,-0.00026541436091065407
1773790259168384800,16.813384765625,-0.0007721136789768934,0.0012397869722917676,-0.0005931197665631771
1773790259188348700,16.8333486328125,0.0005225130007602274,0.00042061274871230125,-0.0007671704515814781
1773790259208311800,16.853311767578123,-0.00017332284187432379,0.00035837129689753056,0.0004993355832993984
1773790259228275700,16.873275634765626,-0.0006124147330410779,-0.0003452007658779621,0.001854360569268465
1773790259248238800,16.89323876953125,-0.0009633324225433171,-0.00015497813001275063,-0.0015056487172842026
1773790259268201500,16.913201416015625,0.00021158460003789514,0.0001221243292093277,-0.0002565309405326843
1773790259288165600,16.93316552734375,0.0011235960992053151,0.0002463902346789837,-0.0016144993714988232
1773790259308128500,16.95312841796875,-0.001432955963537097,0.0014242185279726982,0.000053963158279657364
1773790259328092700,16.9730927734375,-0.00025431872927583754,-0.00021422002464532852,-0.0005215178243815899
1773790259348055600,16.9930556640625,-0.00024746861890889704,-0.00009956141002476215,0.00008814455941319466
1773790259368019500,17.01301953125,0.0010093790479004383,-0.00046037486754357815,0.0006275558844208717
1773790259387982600,17.032982666015624,-0.0007244888111017644,-0.00025662011466920376,-0.0005508237518370152
1773790259407946500,17.052946533203126,0.00006335235957521945,-0.0007286167237907648,0.000905010849237442
1773790259427909400,17.072909423828126,-0.0003124672221019864,0.0004804322961717844,-0.000059382058680057526
1773790259447873300,17.092873291015625,-0.0004037228354718536,-0.0000032389070838689804,0.0008590794168412685
1773790259467836400,17.11283642578125,-0.00012510977103374898,0.00017884885892271996,0.000656886026263237
1773790259487800300,17.13280029296875,-0.0004010466509498656,-0.0007986170239746571,0.0010684523731470108
1773790259507763500,17.152763427734374,-0.00045764987589791417,0.0006257679779082537,0.0006662611849606037
1773790259527727400,17.172727294921874,0.0005585820763371885,0.000401058467105031,0.00015010731294751167
1773790259547690500,17.1926904296875,0.000707561441231519,-0.0009833029471337795,0.001472744159400463
1773790259567654400,17.212654296875,-0.000037855192204006016,-0.00037102471105754375,-0.0004346342757344246
1773790259587617300,17.2326171875,0.00042513757944107056,-0.0004887979011982679,0.0011668545193970203
1773790259607581400,17.25258154296875,-0.00017264961206819862,-0.0005975314415991306,-0.00011014798656105995
1773790259627544300,17.27254443359375,0.0003322416450828314,-0.0003467155620455742,0.0012074853293597698
1773790259647508500,17.292508544921876,-0.00013468979159370065,-0.00026734452694654465,0.0016390280798077583
1773790259667471400,17.312471435546875,-0.000046646164264529943,0.0002138693816959858,0.00008781207725405693
1773790259687435300,17.332435302734375,0.00008620407606940717,0.0007293666712939739,0.000498160719871521
1773790259707398400,17.3523984375,-0.0000807527540018782,-0.00045761000365018845,-0.000634404830634594
1773790259727362300,17.3723623046875,0.00012669396528508514,0.0008676841389387846,-0.0005878373049199581
1773790259747325400,17.392325439453124,-0.0000597640173509717,0.001309762243181467,-0.00033182092010974884
1773790259767289300,17.412289306640623,0.0008295328007079661,-0.0004661732818931341,0.00037087174132466316
1773790259787252500,17.43225244140625,-0.00003302950062789023,0.0005060662515461445,0.001088450662791729
1773790259807216400,17.45221630859375,-0.0006579564069397748,0.0003600160125643015,0.00033121369779109955
1773790259827179500,17.472179443359376,-0.0009435184765607119,-0.0009207141119986773,0.00012021278962492943
1773790259847143400,17.492143310546876,0.00045444187708199024,0.0004727807827293873,0.0008180201984941959
1773790259867106600,17.5121064453125,0.00018703540263231844,-0.0002941491547971964,0.00016883481293916702
1773790259887070500,17.532070556640626,-0.0011490187607705593,0.0004263631999492645,-0.0008000782690942287
1773790259907033300,17.552033447265625,0.0006137383170425892,-0.0003577149473130703,0.0013069999404251575
1773790259926997500,17.57199755859375,-0.0008060765685513616,0.0003310514148324728,-0.0005379640497267246
1773790259946960400,17.59196044921875,-0.0007746922201476991,-0.0005707214586436749,-0.000046561937779188156
1773790259966924500,17.611924560546875,-0.0007137853535823524,-0.0009607572574168444,-0.0003664209507405758
1773790259986887400,17.631887451171874,-0.00045087229227647185,0.0006150240078568459,-0.00010040309280157089
1773790260006851300,17.651851318359373,-0.001460822531953454,-0.00030152429826557636,-0.0009833774529397488
1773790260026814500,17.671814453125,0.000008051516488194466,0.000571222510188818,-0.0009599430486559868
1773790260046778400,17.6917783203125,0.0008589774370193481,-0.00012165121734142303,-0.00027726590633392334
1773790260066741500,17.711741455078126,0.001120770932175219,-0.00004464597441256046,-0.0006027845665812492
1773790260086705400,17.731705322265626,-0.00011737996828742325,0.0006247044075280428,-0.00029675010591745377
1773790260106668300,17.751668212890625,0.0009623962105251849,-0.001244786661118269,0.0003415653482079506
1773790260126632400,17.771632568359376,-0.000051261275075376034,-0.0009669309947639704,-0.000259574968367815
1773790260146595300,17.79159521484375,0.0011489905882626772,0.00023939157836139202,-0.00030200276523828506
1773790260166559500,17.8115595703125,0.0001763611362548545,0.0003114216960966587,0.0000967937521636486
1773790260186522400,17.8315224609375,-0.0009135748259723186,-0.0006673410534858704,-0.000033810269087553024
1773790260206486500,17.851486572265625,-0.0005357327754609287,0.00011550495401024818,0.0008964701555669308
1773790260226449200,17.87144921875,-0.0006624835077673197,0.0001372660044580698,-0.0005303258076310158
1773790260246413600,17.89141357421875,-0.0006899434374645352,-0.00020183902233839035,-0.0010144133120775223
1773790260266376200,17.911376220703126,0.0006053791148588061,-0.0011207833886146545,0.0010350048542022705
1773790260286340400,17.93134033203125,0.0011119749397039413,-0.00021668034605681896,0.00031049828976392746
1773790260306303200,17.95130322265625,-0.0013857341837137938,-0.0013121617957949638,0.0005414676852524281
1773790260326267100,17.97126708984375,-0.0009917087154462934,-0.00038668117485940456,-0.000831203069537878
1773790260346230300,17.991230224609374,0.0004972538445144892,0.00021518487483263016,-0.00044134026393294334
1773790260366194200,18.011194091796874,0.0005572743248194456,-0.00034090434201061726,0.0019256914965808392
1773790260386157300,18.0311572265625,0.000040323444409295917,-0.00010090600699186325,0.000630644615739584
1773790260406121200,18.051121337890624,0.0000752629857743159,0.0006577488966286182,-0.00040447991341352463
1773790260426084900,18.0710849609375,0.0004062281223013997,0.0013839468592777848,-0.0009833117946982384
1773790260446048800,18.091048828125,-0.0002877865917980671,-0.0001292272936552763,0.0005897926166653633
1773790260466011600,18.11101171875,-0.001688015297986567,0.00034238933585584164,0.00014016823843121529
1773790260485975800,18.130975830078125,0.001126028480939567,0.00008781859651207924,0.0008455831557512283
1773790260505938700,18.150938720703124,0.0012697008205577731,-0.00019964342936873436,-0.000330884475260973
1773790260525902800,18.17090283203125,0.00034223159309476614,-0.00026967795565724373,-0.0007844939827919006
1773790260545865700,18.19086572265625,0.0004991655005142093,-0.0007955010514706373,0.001006763894110918
1773790260565829600,18.21082958984375,0.00024650865816511214,-0.0008032114710658789,0.0008408240973949432
1773790260585792800,18.230792724609376,-0.0012260765070095658,-0.0002879500389099121,-0.0006531546823680401
1773790260605756700,18.250756591796875,-0.0006863503949716687,-0.0005185133777558804,-0.0009499224834144115
1773790260625719800,18.2707197265625,-0.0005128656630404294,-0.00028819264844059944,0.0007938300259411335
1773790260645683700,18.29068359375,-0.0008134262752719223,0.0010633217170834541,-0.0002132742665708065
1773790260665646800,18.310646728515625,-0.0002631561364978552,0.0005464192945510149,-0.0012517012655735016
1773790260685610800,18.33061083984375,0.0002656797005329281,-0.0019479065667837858,0.0006271228194236755
1773790260705574000,18.350573974609375,-0.0003687027783598751,-0.0001038876362144947,0.00046461308375000954
1773790260725537800,18.370537841796875,0.0006399689009413123,-0.00033483561128377914,-0.0007714973762631416
1773790260745501000,18.3905009765625,0.00028397966525517404,0.00014337478205561638,0.0008077849633991718
1773790260765464800,18.41046484375,0.0008026327705010772,0.001162713742814958,0.0005486388690769672
1773790260785427700,18.430427734375,0.0008351455326192081,-0.00009742868132889271,0.0012766183353960514
1773790260805392000,18.450391845703123,0.0009300737292505801,0.0009581472259014845,0.0008153589442372322
1773790260825354800,18.470354736328126,-0.00002210575621575117,-0.00018741562962532043,0.0010728412307798862
1773790260845319000,18.49031884765625,0.0004771120729856193,0.00023743603378534317,0.00025966763496398926
1773790260865281800,18.51028173828125,0.00009035001858137548,0.00021252967417240143,0.001689656637609005
1773790260885245000,18.530244873046875,0.000612565956544131,0.0009099580347537994,-0.00039414549246430397
1773790260905208800,18.550208740234375,0.00030431465711444616,0.0010013391729444265,0.0016645551659166813
1773790260925171700,18.570171630859374,-0.0008424585685133934,0.00023796549066901207,-0.000005695968866348267
1773790260945135900,18.590135986328125,-0.00003154069418087602,-0.00008637900464236736,-0.0005388325080275536
1773790260965098500,18.610098388671876,0.0005958856781944633,-0.0012367914896458387,0.0003563063219189644
1773790260985063000,18.63006298828125,0.0010498645715415478,0.000303034670650959,-0.00031430600211024284
1773790261005025500,18.650025634765626,0.0010914653539657593,0.0004529340658336878,0.001310958992689848
1773790261024990000,18.669989990234374,-0.00007349177030846477,0.0001336582936346531,-0.0010532652959227562
1773790261044952600,18.68995263671875,-0.0003390350902918726,0.0005707987584173679,0.0003133653663098812
1773790261064916700,18.709916748046876,0.000648844928946346,-0.00013098004274070263,-0.0008820616640150547
1773790261084879600,18.729879638671875,-0.0002190922386944294,0.0014386852271854877,-0.00006842100992798805
1773790261104843500,18.749843505859374,-0.0016669390024617314,0.0004939013160765171,0.00041803810745477676
1773790261124806700,18.769806640625,0.0000012774253264069557,0.0008311178535223007,-0.0020008222199976444
1773790261144770600,18.7897705078125,0.0004912366857752204,-0.0008198206778615713,-0.0007779309526085854
1773790261164733700,18.809733642578124,0.00045359160867519677,0.00003302493132650852,0.0008933665230870247
1773790261184697600,18.829697509765627,-0.0010483262594789267,-0.00013033789582550526,-0.0003901468589901924
1773790261204660700,18.84966064453125,-0.00013170845340937376,-0.00039642746560275555,0.00038909493014216423
1773790261224624600,18.869624755859373,-0.00013551395386457443,-0.0002716309390962124,0.0004290207289159298
1773790261244587800,18.889587890625,-0.00034235609928146005,0.0010542774107307196,0.00111726438626647
1773790261264551700,18.9095517578125,-0.00044649234041571617,0.0010710526257753372,-0.00023975828662514687
1773790261284514600,18.9295146484375,0.0001356237626168877,0.0009607456158846617,0.00023978669196367264
1773790261304478700,18.949478759765626,-0.0005608442588709295,-0.0004130094312131405,0.0009902496822178364
1773790261324441600,18.969441650390625,-0.0007319216383621097,0.00023837783373892307,0.0003118249587714672
1773790261344405800,18.98940576171875,-0.0005399897345341742,0.0009632422588765621,0.00022932328283786774
1773790261364368600,19.00936865234375,0.00044838886242359877,0.00017512449994683266,0.0006613275036215782
1773790261384332500,19.02933251953125,0.0006233360036276281,0.0006809206679463387,0.0005947030149400234
1773790261404295700,19.049295654296873,-0.0006954952259548008,0.0005882768891751766,-0.0005070744082331657
1773790261424259300,19.06925927734375,-0.00010247025056742132,-0.000022941967472434044,-0.0005346215330064297
1773790261444222500,19.089222412109375,-0.00010759852011688054,0.0006290529854595661,0.0004897895269095898
1773790261464186400,19.109186279296875,-0.00037748145405203104,-0.00032997713424265385,-0.0015609744004905224
1773790261484149500,19.1291494140625,-0.0005539240082725883,-0.000134278554469347,0.00035510677844285965
1773790261504113400,19.149113525390625,-0.00011728388199117035,0.00015331036411225796,0.00036914320662617683
1773790261524076500,19.16907666015625,0.0007335478439927101,-0.0005387377459555864,-0.00007995171472430229
1773790261544039200,19.1890390625,-0.00021636622841469944,-0.0003277575597167015,0.0013599186204373837
1773790261564003600,19.209003662109374,-0.0000974718714132905,-0.00017510238103568554,0.0005851988680660725
1773790261583966200,19.22896630859375,-0.00017661004676483572,0.00016297516413033009,0.00005252845585346222
1773790261603930000,19.24893017578125,-0.0011129960184916854,0.0007093595340847969,0.0008767549879848957
1773790261623893200,19.268893310546876,0.00035350158577784896,-0.0009039591532200575,0.00041301408782601357
1773790261643857200,19.288857177734375,-0.0008118730038404465,-0.000057337572798132896,-0.00008454406633973122
1773790261663820300,19.3088203125,0.00021203594224061817,-0.00006988947279751301,-0.0006496207788586617
1773790261683784200,19.3287841796875,0.0006964844651520252,0.000016106991097331047,-0.0006750975735485554
1773790261703747300,19.348747314453124,0.00121236068662256,-0.00029004248790442944,0.0013938304036855698
1773790261723711200,19.368711181640624,-0.0003228476853109896,-0.0010398377198725939,0.00024296622723340988
1773790261743674400,19.38867431640625,-0.0015022229636088014,-0.0006625344976782799,0.0011011790484189987
1773790261763638300,19.40863818359375,-0.00048429257003590465,-0.0008462043479084969,0.0005654832348227501
1773790261783601400,19.428601318359377,-0.0002415323251625523,-0.00026333145797252655,0.0009670224972069263
1773790261803565300,19.4485654296875,-0.000467747391667217,-0.0009083650074899197,0.0009096013382077217
1773790261823528200,19.468528076171875,-0.000963529571890831,0.0002321070060133934,-0.0007425602525472641
1773790261843492400,19.488492431640626,-0.0008965488523244858,0.0011419204529374838,-0.0006607263348996639
1773790261863455200,19.508455322265625,-0.00023582321591675282,-0.0006265253759920597,0.0009280885569751263
1773790261883419400,19.52841943359375,0.0012308598961681128,0.00004021637141704559,0.00016156351193785667
1773790261903382300,19.54838232421875,0.0012614636216312647,-0.00041652237996459007,-0.0004825186915695667
1773790261923346200,19.56834619140625,0.00015864757006056607,-0.001647057244554162,0.000493357889354229
1773790261943309300,19.588309326171874,0.0009450798970647156,-0.00023823697119951248,0.0002367943525314331
1773790261963273200,19.608273193359373,0.000823091366328299,0.0002784836106002331,-0.0007040230557322502
1773790261983236400,19.628236328125,-0.0009587528766132891,-0.0005175168626010418,-0.0006932481192052364
1773790262003200300,19.6482001953125,-0.0010579696390777826,-0.00046181981451809406,0.0003322525881230831
1773790262023163400,19.668163330078126,0.0012585384538397193,0.00029065809212625027,-0.0007136133499443531
1773790262043127300,19.688127197265626,-0.00033540261210873723,0.0008389970753341913,-0.00024546729400753975
1773790262063090400,19.70809033203125,0.0007700099376961589,-0.0003345159348100424,0.0012092008255422115
1773790262083053300,19.72805322265625,-0.0002915770746767521,0.0003485188353806734,-0.0006156545132398605
1773790262103017200,19.748017333984375,0.0015809909673407674,-0.0003931999672204256,-0.0003058561123907566
1773790262122980400,19.76798046875,-0.00002888208837248385,0.0011370587162673473,0.00007337378337979317
1773790262142944300,19.7879443359375,0.00008023557893466204,-0.001231686444953084,0.0009503187611699104
1773790262162907400,19.807907470703125,-0.000029638264095410705,-0.0000037294812500476837,0.0004196357913315296
1773790262182871300,19.827871337890624,-0.0002129788917955011,-0.000759555958211422,-0.00030299508944153786
1773790262202834400,19.84783447265625,0.0009493697434663773,-0.0003977913875132799,-0.0008504861034452915
1773790262222798300,19.86779833984375,-0.0009988287929445505,-0.0008917504455894232,-0.0014798878692090511
1773790262242761500,19.887761474609373,-0.0001662345021031797,0.0002914371434599161,-0.00006841728463768959
1773790262262725400,19.907725341796876,0.00022493541473522782,-0.0009125715587288141,0.0002950616180896759
1773790262282688300,19.927688232421875,-0.00041819087346084416,0.000018402934074401855,-0.0012839017435908318
1773790262302652400,19.94765234375,0.0001151114993263036,0.0011860521044582129,-0.0008047409355640411
1773790262322615300,19.967615234375,-0.00009853436495177448,-0.0005485359579324722,0.00004946719855070114
1773790262342579500,19.987579345703125,-0.0010774941183626652,0.0006201176438480616,-0.00006853369995951653
1773790262362542300,20.007542236328124,0.0007072139414958656,0.000292718643322587,0.00048351334407925606
1773790262382506500,20.027506591796875,0.000010475167073309422,0.00012921285815536976,0.0007230741903185844
1773790262402469400,20.047469482421874,0.0008659723680466413,-0.0001674701925367117,0.0012533529661595821
1773790262422434000,20.06743408203125,-0.000016425998182967305,-0.0000387274194508791,-0.0008101793937385082
1773790262442397200,20.087397216796877,-0.0014384376117959619,0.0003936027642339468,-0.0008893604390323162
1773790262462361000,20.107361083984376,0.0016956841573119164,0.00002329004928469658,-0.0015278668142855167
1773790262482324200,20.12732421875,-0.0003310356696601957,-0.0005820496007800102,-0.00024503981694579124
1773790262502287000,20.147287109375,0.0011393518652766943,0.0005160074215382338,-0.00017640413716435432
1773790262522251000,20.1672509765625,0.00000704175909049809,-0.0012310745660215616,0.0013644308783113956
1773790262542214100,20.187214111328124,0.00130907678976655,-0.0014483029954135418,-0.0005861334502696991
1773790262562178000,20.207177978515624,-0.000866765680257231,0.00030481116846203804,-0.00045542512089014053
1773790262582141200,20.22714111328125,-0.000698231509886682,-0.00008680671453475952,-0.0003175642341375351
1773790262602105000,20.24710498046875,0.0009288215660490096,-0.00012048706412315369,-0.0002218415029346943
1773790262622068200,20.267068115234373,0.0005781384534202516,0.00006461841985583305,-0.0006453772075474262
1773790262642032000,20.2870322265625,-0.000027537200367078185,-0.0001602016855031252,0.00059121148660779
1773790262661995300,20.306995361328124,-0.0001683675218373537,-0.0008931390475481749,0.00014788471162319183
1773790262681959200,20.326959228515626,0.0012993031414225698,-0.00022284314036369324,0.000010903924703598022
1773790262701922300,20.34692236328125,-0.0024059691932052374,0.0007975464686751366,0.0006058868020772934
1773790262721886200,20.36688623046875,-0.0006353864446282387,-0.0003734331112354994,0.00046459678560495377
1773790262741848800,20.386848876953124,-0.0010038168402388692,0.00029592588543891907,0.00014497153460979462
1773790262761813200,20.406813232421875,-0.001717936946079135,-0.00033426634036004543,-0.00026392191648483276
1773790262781776000,20.42677587890625,0.0017181304283440113,-0.000004665227606892586,-0.00022363010793924332
1773790262801740300,20.446740234375,0.0010703214211389422,0.00023825443349778652,-0.00021481700241565704
1773790262821703000,20.466702880859376,-0.0014720273902639747,0.000917778117582202,-0.0002537067048251629
1773790262841667000,20.4866669921875,0.0005985976895317435,0.0012975968420505524,-0.0003361916169524193
1773790262861630000,20.5066298828125,-0.00014704267960041761,-0.00015524867922067642,0.0005329381674528122
1773790262881593900,20.52659375,-0.00030530011281371117,-0.0003137737512588501,-0.001587641891092062
1773790262901557000,20.546556884765625,-0.0002759824274107814,-0.0006673168390989304,-0.0010193949565291405
1773790262921521000,20.56652099609375,0.00005445181159302592,-0.0006605733651667833,-0.0006067776121199131
1773790262941484000,20.586484130859375,0.0008198496652767062,-0.0006286140996962786,0.00047736847773194313
1773790262961448000,20.606447998046875,0.0009695625631138682,-0.000009153271093964577,-0.0017063110135495663
1773790262981411000,20.6264111328125,-0.0015845081070438027,0.00024170498363673687,0.0006237574853003025
1773790263001375000,20.646375,0.0002469694591127336,-0.0005478959064930677,0.0003582942299544811
1773790263021338000,20.666338134765624,0.0014059519162401557,0.0002513187937438488,-0.00010939734056591988
1773790263041302000,20.686302001953123,0.00002922859857790172,0.0004795268177986145,-0.001130762044340372
1773790263061265000,20.706264892578126,-0.0010451906127855182,0.00018363608978688717,-0.00120512954890728
1773790263081229000,20.72622900390625,-0.0008007795549929142,-0.00021107681095600128,-0.0015970156528055668
1773790263101192000,20.74619189453125,-0.00011540512787178159,-0.0008843513205647469,0.00018480513244867325
1773790263121156000,20.766156005859376,0.0010069062700495124,-0.0006895062979310751,-0.0006565363146364689
1773790263141119000,20.786118896484375,-0.00014678668230772018,-0.0005656464491039515,0.000384598970413208
1773790263161083000,20.806082763671874,-0.0009251238661818206,0.0009852986549958587,0.00007802573963999748
1773790263181046000,20.8260458984375,0.00012205805978737772,0.00023064599372446537,0.00007377937436103821
1773790263201010000,20.846010009765624,0.00003831932554021478,0.00023923278786242008,-0.0009232228621840477
1773790263220973000,20.86597314453125,-0.00038886122638359666,0.0003473609685897827,0.000014892779290676117
1773790263240937000,20.88593701171875,-0.0006201828364282846,-0.0007793980184942484,-0.000367035623639822
1773790263260900000,20.905900146484374,0.000565137539524585,-0.00040572742000222206,0.00003779446706175804
1773790263280864000,20.925864013671877,-0.0003377712273504585,0.000037229154258966446,-0.0003027818165719509
1773790263300827100,20.9458271484375,0.0006871684454381466,-0.00048402417451143265,-0.0004819505847990513
1773790263320791000,20.965791015625,0.00012847487232647836,0.0004005113150924444,-0.0005797566846013069
1773790263340754000,20.98575390625,-0.00062696443637833,-0.0016850004903972149,-0.000003851950168609619
1773790263360718000,21.005718017578126,-0.001991928555071354,-0.0006888916250318289,-0.0011915010400116444
1773790263380681000,21.025680908203125,-0.0013415133580565453,-0.0008316482417285442,-0.0006989608518779278
1773790263400645000,21.04564501953125,-0.0005996003746986389,-0.0001913032028824091,0.0004493705928325653
1773790263420608000,21.06560791015625,0.000055609678383916616,-0.001454782672226429,0.000364597886800766
1773790263440572000,21.085572021484374,0.001073290011845529,-0.00027397042140364647,-0.00047824811190366745
1773790263460535000,21.10553515625,-0.0006450700457207859,0.0005480449181050062,-0.00004446273669600487
1773790263480499000,21.1254990234375,-0.00025300082052126527,-0.0006841719150543213,-0.00034729018807411194
1773790263500462000,21.145462158203124,-0.00012360324035398662,0.00007966533303260803,-0.0001861192286014557
1773790263520426000,21.165426025390627,-0.00015229140990413725,-0.00032560620456933975,-0.001262908335775137
1773790263540389000,21.18538916015625,0.0016685349401086569,0.000697731738910079,0.0005713794380426407
1773790263560353000,21.20535302734375,0.0005316820461302996,0.00008512497879564762,-0.0004878714680671692
1773790263580316200,21.225316162109376,-0.0005034168716520071,0.0007654840592294931,0.001043547410517931
1773790263600280000,21.245280029296875,-0.0005263980710878968,-0.0002513451036065817,0.00026888493448495865
1773790263620243200,21.2652431640625,-0.0008771343273110688,-0.000004637986421585083,0.0011749840341508389
1773790263640207000,21.28520703125,-0.0010185493156313896,0.00035402015782892704,-0.0002681300975382328
1773790263660170000,21.305169921875,0.00040807737968862057,-0.0001056354958564043,-0.0007456773892045021
1773790263680134100,21.325134033203124,-0.0003208036650903523,-0.0014861917588859797,0.0007629147730767727
1773790263700097000,21.345096923828127,-0.0008738214382901788,0.0004708894994109869,-0.00025972072035074234
1773790263720061200,21.365061279296874,0.00040297972736880183,-0.0005667926743626595,0.0007327646017074585
1773790263740024000,21.385024169921873,0.0016925913514569402,-0.0008452413603663445,0.0016429778188467026
1773790263759988000,21.404988037109376,-0.0005446266150102019,-0.0004016445018351078,0.0007547722198069096
1773790263779951000,21.424951171875,-0.00021598930470645428,0.00140570686198771,0.0006014686077833176
1773790263799915000,21.4449150390625,-0.0005929687758907676,-0.0009763550478965044,-0.0004685758613049984
1773790263819878000,21.4648779296875,0.00029653945239260793,-0.00014031119644641876,-0.00022784294560551643
1773790263839842000,21.484842041015625,0.0008206028724089265,0.0003347615711390972,0.0012984229251742363
1773790263859805000,21.504804931640624,0.00003368101897649467,0.0005348776467144489,-0.0005968911573290825
1773790263879769000,21.52476904296875,-0.0007149512530304492,-0.0004638994578272104,0.00017882604151964188
1773790263899732000,21.54473193359375,-0.0018237460171803832,-0.00007397681474685669,-0.0003603021614253521
1773790263919696100,21.564696044921874,-0.0004954686155542731,-0.0003128950484097004,-0.00023588119074702263
1773790263939660000,21.584659912109377,0.00032843550434336066,-0.00018347124569118023,0.0007751137018203735
1773790263959623000,21.604622802734376,-0.0006200617644935846,-0.00008953968062996864,-0.000995534472167492
1773790263979587000,21.624587158203123,0.0015771647449582815,0.0005500675179064274,-0.0007905410602688789
1773790263999550000,21.644550048828126,0.00008733832510188222,-0.00002535874955356121,-0.0002599838189780712
1773790264019514000,21.66451416015625,0.0008126119500957429,0.0005515352822840214,0.000008495990186929703
1773790264039477000,21.68447705078125,-0.0006345940637402236,0.00018222793005406857,0.00006334111094474792
1773790264059441200,21.704441162109376,0.0007096056942828,-0.0008394673932343721,-0.001364404335618019
1773790264079403800,21.72440380859375,-0.0003601664793677628,-0.0008024172857403755,-0.0002190624363720417
1773790264099368200,21.7443681640625,0.0009880086872726679,-0.0011298395693302155,0.0008190949447453022
1773790264119330800,21.764330810546873,-0.0006123458733782172,-0.00033229729160666466,0.0001065889373421669
1773790264139295000,21.784294921875,0.00040911365067586303,-0.0006613661535084248,0.00011530658230185509
1773790264159257900,21.8042578125,0.001857052557170391,-0.00027922308072447777,0.00011500809341669083
1773790264179221800,21.8242216796875,0.0001903200609376654,-0.000200614333152771,-0.00023245997726917267
1773790264199185000,21.844184814453126,-0.00021431807545013726,-0.0012041737791150808,-0.0003742673434317112
1773790264219148800,21.864148681640625,-0.0014606164768338203,-0.0005508363246917725,0.0003344109281897545
1773790264239112000,21.88411181640625,0.0004429392865858972,-0.0004317001439630985,-0.0005520610138773918
1773790264259075800,21.904075927734375,0.0003464828769210726,0.00015127519145607948,0.0004121973179280758
1773790264279039000,21.9240390625,-0.0007319001015275717,0.00029542786069214344,0.0004518982023000717
1773790264299003000,21.9440029296875,-0.00045465014409273863,-0.0009051321540027857,-0.0015144804492592812
1773790264318966000,21.963966064453125,0.00028665876016020775,-0.00013021565973758698,-0.0010494794696569443
1773790264338930000,21.983929931640624,0.00030214048456400633,-0.00009687989950180054,-0.000964025966823101
1773790264358892800,22.003892822265627,-0.0000634042953606695,0.00035859388299286366,0.0007195351645350456
1773790264378857000,22.02385693359375,0.0007369217346422374,-0.00007122708484530449,0.00036014337092638016
1773790264398819800,22.04381982421875,-0.001017800415866077,-0.0010466075036674738,0.000045078806579113007
1773790264418784000,22.063783935546876,-0.0007645274745300412,-0.0010045093949884176,-0.00022806646302342415
1773790264438746600,22.08374658203125,-0.0009880487341433764,0.0007246995810419321,0.0006287391297519207
1773790264458710800,22.103710693359375,-0.0013466309756040573,-0.000021266518160700798,-0.00010912725701928139
1773790264478673700,22.123673583984374,-0.0005635428242385387,-0.0007427607197314501,-0.0004638480022549629
1773790264498637600,22.143637451171877,0.0010692353826016188,0.0006484740879386663,-0.000788702629506588
1773790264518600700,22.1636005859375,0.0011571183567866683,0.00016648764722049236,0.00044626276940107346
1773790264538564600,22.183564697265624,-0.00035602811840362847,-0.0005629174411296844,0.00013155071064829826
1773790264558527700,22.20352783203125,-0.0004589777672663331,0.0004963329993188381,-0.0013818498700857162
1773790264578491600,22.22349169921875,0.0011769731063395739,0.00047429814003407955,0.00005582580342888832
1773790264598455600,22.24345556640625,0.00004716987314168364,-0.0005927470047026873,-0.0014849873259663582
1773790264618418700,22.263418701171876,-0.0011113674845546484,-0.0005999207496643066,0.00016357982531189919
1773790264638382600,22.283382568359375,0.0007014266448095441,0.000016626203432679176,-0.00022140797227621078
1773790264658345700,22.303345703125,0.0007205013534985483,-0.0015058205462992191,-0.0005595432594418526
1773790264678309600,22.3233095703125,-0.0004220679111313075,-0.0002678728196769953,0.001974385464563966
1773790264698272800,22.343272705078125,0.00005828544090036303,0.0004088110290467739,0.0004221992567181587
1773790264718236700,22.363236572265624,0.00013040323392488062,-0.0010554618202149868,0.0005846335552632809
1773790264738199800,22.38319970703125,-0.00008636017446406186,-0.0004038028419017792,-0.0001260838471353054
1773790264758163700,22.403163818359374,0.00036969134816899896,0.001233786577358842,-0.000386703759431839
1773790264778126600,22.423126708984373,-0.0009452669182792306,0.00018555414862930775,0.001119622029364109
1773790264798090800,22.4430908203125,-0.0002135454851668328,-0.000275210477411747,-0.000934915617108345
1773790264818053600,22.4630537109375,-0.0007297442061826587,-0.0005225259810686111,-0.0009007425978779793
1773790264838017800,22.483017822265627,0.00011785648530349135,-0.0008479717653244734,0.0009445860050618649
1773790264857980700,22.502980712890626,0.000006360438419505954,0.00018826499581336975,0.0008274526335299015
1773790264877944800,22.52294482421875,-0.0004796799039468169,0.00039106677286326885,-0.00016864575445652008
1773790264897907700,22.54290771484375,0.00018800543330144137,-0.0011825724504888058,0.0006072353571653366
1773790264917871600,22.56287158203125,-0.00040479371091350913,0.000594687182456255,-0.00003588525578379631
1773790264937834800,22.582834716796874,0.0006048943614587188,0.0006847644690424204,-0.0021284641698002815
1773790264957798700,22.602798583984374,-0.000561440596356988,-0.0004830402322113514,-0.0006028981879353523
1773790264977761800,22.62276171875,-0.001185636268928647,0.0010091841686517,0.0014344071969389915
1773790264997725700,22.6427255859375,0.0010144159896299243,-0.0006279079243540764,-0.0007940563373267651
1773790265017689600,22.662689697265623,0.0004847549134865403,-0.0010013235732913017,0.0007458943873643875
1773790265037652700,22.68265283203125,0.0012845797464251518,0.0007250187918543816,-0.0004041171632707119
