time,seconds_elapsed,z,y,x
1773790242401459500,0.04645947265625,0.00043036683928221464,-0.0030482541769742966,-0.005134574603289366
1773790242421422300,0.06642236328125,-0.0007659250986762345,-0.003543602069839835,-0.006653641816228628
1773790242441386500,0.086386474609375,-0.000898550555575639,-0.0030887341126799583,-0.0052264537662267685
1773790242461350400,0.106350341796875,-0.0008503473363816738,-0.002673813607543707,-0.004324174486100674
1773790242481313500,0.1263134765625,-0.0007030745036900043,-0.0035864789970219135,-0.005221127066761255
1773790242501277400,0.14627734375,0.0009526127250865102,-0.003962783608585596,-0.006697583943605423
1773790242521241300,0.166241455078125,-0.00031611722079105675,-0.004305266309529543,-0.00723500968888402
1773790242541204500,0.18620458984375,-0.0005137237603776157,-0.002275404753163457,-0.006069344002753496
1773790242561168400,0.20616845703125,-0.00018242653459310532,-0.0035326832439750433,-0.005682386923581362
1773790242581132300,0.22613232421875,-0.0007637945818714797,-0.0028272117488086224,-0.00606428412720561
1773790242601096400,0.246096435546875,-0.00038056570338085294,-0.0034413367975503206,-0.005570800509303808
1773790242621059300,0.266059326171875,-0.0007701861904934049,-0.003817375050857663,-0.006329268682748079
1773790242641023500,0.2860234375,0.000847950461320579,-0.003748132847249508,-0.006195045076310635
1773790242660987400,0.3059873046875,0.000015180017726379447,-0.002630137838423252,-0.006237655878067017
1773790242680950500,0.325950439453125,-0.0017768610268831253,-0.0017158746486529708,-0.007522630970925093
1773790242700914400,0.34591455078125,-0.0004577973741106689,-0.0034501252230256796,-0.005028847139328718
1773790242720878300,0.36587841796875,0.001979261403903365,-0.0027350664604455233,-0.005110073368996382
1773790242740841500,0.385841552734375,-0.0009038768475875258,-0.003659183392301202,-0.005789179354906082
1773790242760805400,0.405805419921875,-0.0007640608819201589,-0.002004827605560422,-0.00461685610935092
1773790242780769300,0.425769287109375,0.0005792375304736197,-0.003409645054489374,-0.00498170917853713
1773790242800733400,0.4457333984375,-0.0006617955514229834,-0.002796052722260356,-0.0065196845680475235
1773790242820696300,0.4656962890625,0.00021411814668681473,-0.002499110298231244,-0.006710633169859648
1773790242840660200,0.48566015625,-0.0004021373169962317,-0.0026615632232278585,-0.0046488139778375626
1773790242860624400,0.505624267578125,0.0005262406193651259,-0.003826696192845702,-0.0046426886692643166
1773790242880588300,0.52558837890625,-0.0005201153689995408,-0.002614957746118307,-0.0065071675926446915
1773790242900552200,0.54555224609375,0.0013116068439558148,-0.0037436054553836584,-0.006293315906077623
1773790242920516400,0.565516357421875,0.0008639294537715614,-0.003856257302686572,-0.005151618737727404
1773790242940479200,0.585479248046875,-0.0004881574132014066,-0.00381417921744287,-0.005637379363179207
1773790242960443100,0.605443115234375,-0.0005368932615965605,-0.0027944548055529594,-0.006558566819876432
1773790242980407300,0.6254072265625,0.0001054611784638837,-0.002103098202496767,-0.0059756007976830006
1773790243000370200,0.6453701171875,-0.0009978864109143615,-0.002341983839869499,-0.0054999603889882565
1773790243020334300,0.665334228515625,0.0004426173691172153,-0.004192880820482969,-0.005693572107702494
1773790243040298500,0.685298583984375,-0.000291616132017225,-0.0038599856197834015,-0.007396397180855274
1773790243060261400,0.705261474609375,-0.0003001382574439049,-0.003690076060593128,-0.005876797717064619
1773790243080225500,0.7252255859375,-0.000005060006060375599,-0.0023305322974920273,-0.006085589528083801
1773790243100189400,0.745189453125,-0.00242081331089139,-0.003724164329469204,-0.006070143077522516
1773790243120152300,0.76515234375,0.0012090750969946384,-0.0025923210196197033,-0.006689061876386404
1773790243140116500,0.785116455078125,-0.0006474144756793976,-0.002019474981352687,-0.005316734779626131
1773790243160080400,0.805080322265625,0.000996821210719645,-0.0034554514568299055,-0.004402471706271172
1773790243180043500,0.82504345703125,0.0003102582704741508,-0.0032567796297371387,-0.006272543221712112
1773790243200007400,0.84500732421875,-0.0015632755821570754,-0.002898318227380514,-0.005238703917711973
1773790243219971300,0.864971435546875,0.0004588626616168767,-0.003976898267865181,-0.00615190202370286
1773790243239935500,0.884935546875,-0.000287088769255206,-0.002557966159656644,-0.006908239796757698
1773790243259898400,0.9048984375,-0.0009928264189511538,-0.0021441110875457525,-0.006413957104086876
1773790243279861500,0.924861572265625,0.0005858954391442239,-0.0034586472902446985,-0.005730589851737022
1773790243299825400,0.944825439453125,-0.0009116000146605074,-0.002587793627753854,-0.00635004136711359
1773790243319789300,0.964789306640625,-0.000672181835398078,-0.002752909669652581,-0.004793956410139799
1773790243339752400,0.98475244140625,0.0006556702428497374,-0.0008415589109063148,-0.006637396290898323
1773790243359716400,1.00471630859375,-0.00029587719473056495,-0.0024080302100628614,-0.006630738265812397
1773790243379680500,1.024680419921875,0.00008175904804375023,-0.002207760466262698,-0.006022738758474588
1773790243399643400,1.044643310546875,-0.000176301269675605,-0.0030338731594383717,-0.004741491749882698
1773790243419611100,1.064611083984375,-0.000222373942960985,-0.00407383730635047,-0.005302886478602886
1773790243439575300,1.0845751953125,-0.0014817827614024282,-0.0041310954838991165,-0.005458681378513575
1773790243459539500,1.10453955078125,0.0008082693675532937,-0.004830707795917988,-0.006610498297959566
1773790243479502000,1.124502197265625,-0.0008082693675532937,-0.003570766421034932,-0.006776147056370974
1773790243499466500,1.144466552734375,-0.000031691615731688216,-0.0017686053179204464,-0.006097041070461273
1773790243519430400,1.164430419921875,-0.0008250473183579743,-0.003229881636798382,-0.00515721132978797
1773790243539393500,1.1843935546875,0.0007187871960923076,-0.0038599856197834015,-0.00526720006018877
1773790243559357400,1.204357421875,0.00023542344570159912,-0.0032477248460054398,-0.0054328483529388905
1773790243579321300,1.2243212890625,-0.001202150946483016,-0.004691957030445337,-0.006055495701730251
1773790243599284500,1.244284423828125,0.000006391586794052273,-0.0031784826423972845,-0.005342567339539528
1773790243619248400,1.264248291015625,0.0012175972806289792,-0.004058923572301865,-0.005883455276489258
1773790243639212300,1.28421240234375,-0.0009238505735993385,-0.0030208237003535032,-0.005406749434769154
1773790243659175400,1.304175537109375,-0.0007121292874217033,-0.0018098842119798064,-0.0035425368696451187
1773790243679139300,1.324139404296875,-0.0008034756756387651,-0.0031457259319722652,-0.005677326582372189
1773790243699103200,1.344103271484375,-0.00016671388584654778,-0.002388589084148407,-0.005371595732867718
1773790243719066400,1.36406640625,-0.0012389025650918484,-0.0034147051628679037,-0.00481233187019825
1773790243739030300,1.3840302734375,-0.0008287757518701255,-0.002216282533481717,-0.00714632635936141
1773790243758994400,1.403994384765625,-0.00016671388584654778,-0.0036887445021420717,-0.005212338641285896
1773790243778957300,1.423957275390625,0.0005600627628155053,-0.002767024328932166,-0.003837615018710494
1773790243798921500,1.44392138671875,-0.0003802994033321738,-0.0034557178150862455,-0.006250172853469849
1773790243818885400,1.463885498046875,-0.0008034756756387651,-0.0033688987605273724,-0.006911701988428831
1773790243838848300,1.48384814453125,-0.0006000102148391306,-0.002675145398825407,-0.004767857491970062
1773790243858812400,1.5038125,0.0005661880713887513,-0.002567820018157363,-0.005863481666892767
1773790243878776300,1.5237763671875,-0.00040240364614874125,-0.0036157737486064434,-0.004064516630023718
1773790243898739500,1.543739501953125,-0.0007246461464092135,-0.0031039142049849033,-0.006186523009091616
1773790243918703400,1.563703369140625,-0.0002205097407568246,-0.004160123877227306,-0.00544350128620863
1773790243938667300,1.583667236328125,0.0000399474156438373,-0.0016458334866911173,-0.0073532541282474995
1773790243958630400,1.60363037109375,-0.0006548712844960392,-0.0033627734519541264,-0.0049255164340138435
1773790243978594300,1.62359423828125,0.0006301039247773588,-0.0018261295044794679,-0.00401604687795043
1773790243998558200,1.64355810546875,-0.0006479470757767558,-0.0034943337086588144,-0.005167065188288689
1773790244018521300,1.663521240234375,-0.0005376922199502587,-0.004598213825374842,-0.006616090890020132
1773790244038485200,1.6834853515625,0.0002966761530842632,-0.003612311789765954,-0.006192115601152182
1773790244058449200,1.70344921875,-0.0009161274065263569,-0.0030652983114123344,-0.005085306242108345
1773790244078412300,1.723412353515625,0.0008074704091995955,-0.002335326047614217,-0.0054456316865980625
1773790244098376200,1.743376220703125,-0.00026072346372529864,-0.0030304109677672386,-0.006016347091645002
1773790244118340400,1.76334033203125,0.0004623247659765184,-0.003649862250313163,-0.005525260232388973
1773790244138304300,1.78330419921875,-0.0002798982313834131,-0.0021904499735683203,-0.005500758998095989
1773790244158267100,1.80326708984375,-0.000261788722127676,-0.0035654399544000626,-0.005814746022224426
1773790244178231300,1.823231201171875,0.0005456816870719194,-0.0025832662358880043,-0.005653890781104565
1773790244198195200,1.8431953125,-0.000559530162718147,-0.003668504301458597,-0.006795321591198444
1773790244218158300,1.863158447265625,-0.0006647250265814364,-0.002031192881986499,-0.0054608117789030075
1773790244238122200,1.883122314453125,0.0005046690348535776,-0.002493784064427018,-0.006869091186672449
1773790244258086100,1.903086181640625,-0.0009539442835375667,-0.003306048223748803,-0.006449377164244652
1773790244278049300,1.92304931640625,-0.00207699928432703,-0.002776611829176545,-0.005279450677335262
1773790244298013200,1.94301318359375,0.00039254993316717446,-0.002679938916116953,-0.005554554983973503
1773790244317977300,1.962977294921875,0.0014865765115246177,-0.0016522251535207033,-0.0067692226730287075
1773790244337940200,1.982940185546875,-0.00044661210267804563,-0.003632818115875125,-0.0041010016575455666
1773790244357904100,2.002904052734375,-0.0006106628570705652,-0.001686846255324781,-0.004775047767907381
1773790244377868300,2.022868408203125,-0.001023186487145722,-0.0032764871139079332,-0.005644570104777813
1773790244397831200,2.0428310546875,-0.0001280980504816398,-0.002139050979167223,-0.005625661462545395
1773790244417792300,2.062792236328125,0.00006125270738266408,-0.002895655110478401,-0.0052205948159098625
1773790244437756400,2.08275634765625,-0.0010721886064857244,-0.0020093549974262714,-0.005531651899218559
1773790244457719300,2.10271923828125,-0.00023089606838766485,-0.002433330286294222,-0.006593454163521528
1773790244477683200,2.12268310546875,-0.0004767058417201042,-0.0025244103744626045,-0.00649651512503624
1773790244497647400,2.1426474609375,-0.0002793656021822244,-0.0024535702541470528,-0.0060083577409386635
1773790244517610200,2.1626103515625,-0.00040266994619742036,-0.0030056436080485582,-0.006321545224636793
1773790244537574400,2.182574462890625,-0.0020639498252421618,-0.0035063179675489664,-0.004136155359447002
1773790244557538300,2.202538330078125,-0.0003222425002604723,-0.002484196564182639,-0.005359079223126173
1773790244577501200,2.222501220703125,-0.0008689894457347691,-0.003608050523325801,-0.006577474996447563
1773790244597465300,2.24246533203125,0.00042211104300804436,-0.001841575838625431,-0.005629123654216528
1773790244617429200,2.26242919921875,-0.0005723133217543364,-0.002594451420009136,-0.006091714836657047
1773790244637392400,2.282392333984375,-0.0011579424608498812,-0.0032690302468836308,-0.005775597412139177
1773790244657356300,2.302356201171875,-0.0015704660909250379,-0.001434112200513482,-0.005094626918435097
1773790244677320200,2.3223203125,-0.0009512811084277928,-0.00293373828753829,-0.005224855616688728
1773790244697283300,2.342283447265625,0.0014271880500018597,-0.0031105722300708294,-0.004277569241821766
1773790244717247200,2.362247314453125,-0.0012966931099072099,-0.003919906914234161,-0.005101551301777363
1773790244737211100,2.382211181640625,-0.00022077605535741895,-0.001847967505455017,-0.0062882560305297375
1773790244757174300,2.40217431640625,-0.0006053365068510175,-0.0030125677585601807,-0.005574528593569994
1773790244777138200,2.42213818359375,-0.001216265605762601,-0.0036557212006300688,-0.005260275676846504
1773790244797102300,2.442102294921875,-0.00035659727291204035,-0.0029577065724879503,-0.0041188448667526245
1773790244817065200,2.462065185546875,-0.0004519384237937629,-0.0020687435753643513,-0.006493852008134127
1773790244837029000,2.482029052734375,-0.0002820287481881678,-0.0034527883399277925,-0.0049590724520385265
1773790244856993300,2.5019931640625,-0.0004463458026293665,-0.0026783409994095564,-0.004816060420125723
1773790244876956200,2.5219560546875,-0.00008495483780279756,-0.002734533743932843,-0.006177468225359917
1773790244896920300,2.54192041015625,-0.00015632755821570754,-0.0018738001817837358,-0.006935404147952795
1773790244916884500,2.561884521484375,-0.00049082055920735,-0.002740659052506089,-0.005367601290345192
1773790244936847000,2.58184716796875,0.00005725796290789731,-0.002544117858633399,-0.007173224352300167
1773790244956811500,2.6018115234375,-0.00025246766745112836,-0.0036248285323381424,-0.005271194502711296
1773790244976775400,2.621775390625,-0.0003246393462177366,-0.002925216220319271,-0.006139917764812708
1773790244996738300,2.64173828125,0.0016255935188382864,-0.0035393410362303257,-0.006069876719266176
1773790245016702500,2.661702392578125,-0.0004932174342684448,-0.002855707658454776,-0.005774265620857477
1773790245036666400,2.681666259765625,-0.0019531622529029846,-0.0046813045628368855,-0.0062882560305297375
1773790245056629500,2.70162939453125,0.0007459514308720827,-0.0034882084000855684,-0.0059742690064013
1773790245076593400,2.721593505859375,-0.0007241134881041944,-0.002665025182068348,-0.005233644042164087
1773790245096557300,2.741557373046875,0.00006338323146337643,-0.002885801251977682,-0.006305300164967775
1773790245116520400,2.7615205078125,-0.0010098706698045135,-0.002632800955325365,-0.006013417616486549
1773790245136484400,2.781484375,-0.0003802994033321738,-0.0023190807551145554,-0.006767624989151955
1773790245156448300,2.8014482421875,-0.00010892329009948298,-0.002623746171593666,-0.005860818549990654
1773790245176411400,2.821411376953125,-0.0015401060227304697,-0.0032061797101050615,-0.005664277356117964
1773790245196375300,2.841375244140625,-0.0003733751946128905,-0.0038919434882700443,-0.005009139887988567
1773790245216339500,2.86133935546875,0.00004713794987765141,-0.001561944023706019,-0.005233111325651407
1773790245236302300,2.88130224609375,-0.0005661880713887513,-0.003899933071807027,-0.0070222229696810246
1773790245256266200,2.901266357421875,0.0002641855680849403,-0.0020596887916326523,-0.006089850328862667
1773790245276229400,2.9212294921875,-0.0009387642494402826,-0.0032645028550177813,-0.005876797717064619
1773790245296193300,2.941193359375,0.001574194524437189,-0.002700445242226124,-0.007955394685268402
1773790245316157400,2.961157470703125,-0.0002743055811151862,-0.0030336068011820316,-0.006256830412894487
1773790245336120300,2.981120361328125,-0.00014274542627390474,-0.0020748688839375973,-0.006275206338614225
1773790245356084200,3.001084228515625,0.0010913633741438389,-0.0032258869614452124,-0.005828061606734991
1773790245376048400,3.02104833984375,-0.0006628608098253608,-0.0024413196370005608,-0.005858954507857561
1773790245396011300,3.04101123046875,-0.00041998049709945917,-0.0026847326662391424,-0.006068544927984476
1773790245415977200,3.060977294921875,-0.0006687197601422668,-0.0033715618774294853,-0.0044141896069049835
1773790245435941000,3.080941162109375,0.0003230414295103401,-0.0019497001776471734,-0.0049281795509159565
1773790245455904300,3.100904296875,-0.000060986389144090936,-0.0028847360517829657,-0.005810218397527933
1773790245475868200,3.1208681640625,0.00019121496006846428,-0.0020999026019126177,-0.005757754202932119
1773790245495832300,3.140832275390625,0.00024714134633541107,-0.0047116647474467754,-0.005916478578001261
1773790245515795200,3.160795166015625,-0.0011885687708854675,-0.0025158883072435856,-0.005342567339539528
1773790245535759000,3.180759033203125,0.0007768440991640091,-0.00187992537394166,-0.0049156625755131245
1773790245555723500,3.2007236328125,0.0004058657505083829,-0.0016713999211788177,-0.005936718545854092
1773790245575686100,3.22068603515625,0.000050333743274677545,-0.0035808864049613476,-0.0065436530858278275
1773790245595650300,3.240650390625,-0.00045060686534270644,-0.004535629414021969,-0.0065164887346327305
1773790245615614500,3.260614501953125,-0.0004010720585938543,-0.0025987126864492893,-0.005932724103331566
1773790245635577000,3.2805771484375,-0.0001030643325066194,-0.002846386516466737,-0.0060331248678267
1773790245655541500,3.30054150390625,-0.00020213393145240843,-0.004313522018492222,-0.005452822428196669
1773790245675505400,3.32050537109375,0.000045806369598722085,-0.002797118155285716,-0.006086388137191534
1773790245695468500,3.340468505859375,0.0009816411184147,-0.0015041533624753356,-0.006221144460141659
1773790245715432400,3.360432373046875,-0.00028336033574305475,-0.002662095706909895,-0.008191084489226341
1773790245735396400,3.380396240234375,0.00044554684427566826,-0.003316700691357255,-0.006760966964066029
1773790245755359500,3.400359375,-0.00020293287525419146,-0.002823483431711793,-0.005094626918435097
1773790245775323400,3.420323486328125,-0.0016197345685213804,-0.0030455910600721836,-0.004829110112041235
1773790245795287300,3.440287353515625,-0.0021084246691316366,-0.003209641668945551,-0.005499427672475576
1773790245815250400,3.46025048828125,-0.0014021543320268393,-0.0029108349699527025,-0.005191565956920385
1773790245835214300,3.48021435546875,-0.0010839065071195364,-0.0020775320008397102,-0.006598514039069414
1773790245855177500,3.500177490234375,-0.00003328951424919069,-0.003156378399580717,-0.005653890781104565
1773790245875141400,3.520141357421875,-0.0008953547803685069,-0.002767823403701186,-0.00583605095744133
1773790245895105300,3.540105224609375,-0.0010197244118899107,-0.001976065570488572,-0.004733236040920019
1773790245915068400,3.560068359375,0.0005757753970101476,-0.0037033918779343367,-0.006412625312805176
1773790245935032300,3.5800322265625,0.00016058860637713224,-0.0025861957110464573,-0.007345797028392553
1773790245954996200,3.599996337890625,-0.0008796420879662037,-0.002660231664776802,-0.005200088489800692
1773790245974959400,3.61995947265625,0.00018562232435215265,-0.0034197650384157896,-0.005222458858042955
1773790245994923300,3.63992333984375,-0.00002902845517382957,-0.0027105652261525393,-0.004874649923294783
1773790246014887400,3.659887451171875,-0.00018109494703821838,-0.0028988507110625505,-0.00529463030397892
1773790246034850300,3.679850341796875,0.00031798143754713237,-0.0034234935883432627,-0.006087187211960554
1773790246054814500,3.699814453125,-0.0001954760227818042,-0.002779541304334998,-0.003949201665818691
1773790246074778400,3.7197783203125,0.0007520766812376678,-0.002147573046386242,-0.006416886579245329
1773790246094741200,3.7397412109375,-0.00038695731200277805,-0.002612827345728874,-0.0057465690188109875
1773790246114705400,3.759705322265625,-0.00030120351584628224,-0.004159324802458286,-0.005358013790100813
1773790246134669300,3.77966943359375,-0.0007637945818714797,-0.002103897277265787,-0.0052168662659823895
1773790246154632400,3.799632568359375,-0.00030652983696199954,-0.002959304489195347,-0.005299424286931753
1773790246174596400,3.819596435546875,-0.00027057717670686543,-0.0024802018888294697,-0.004569185432046652
1773790246194560300,3.839560302734375,-0.0011699266033247113,-0.002375007141381502,-0.0060054282657802105
1773790246214523400,3.8595234375,0.0007653924985788763,-0.0017068199813365936,-0.00526693370193243
1773790246234487300,3.8794873046875,0.0002468750171829015,-0.0033047166652977467,-0.00574896577745676
1773790246254451200,3.899451171875,-0.0007930893916636705,-0.0028666264843195677,-0.005711948033422232
1773790246274414300,3.919414306640625,-0.0006636597099713981,-0.002255164785310626,-0.006459763273596764
1773790246294378200,3.939378173828125,-0.00023142869758885354,-0.002764627570286393,-0.005962018854916096
1773790246314341400,3.95934130859375,-0.00014034859486855567,-0.002569684060290456,-0.0065100970678031445
1773790246334305300,3.97930517578125,0.0002263686910737306,-0.0028429245576262474,-0.006202768534421921
1773790246354269200,3.999269287109375,0.0004950816510245204,-0.0028008464723825455,-0.006316485349088907
1773790246374232300,4.019232421875,-0.0007874967413954437,-0.0032748891972005367,-0.005766009911894798
1773790246394196200,4.0391962890625,-0.0009627327090129256,-0.002389121800661087,-0.007696801796555519
1773790246414157600,4.059157470703125,-0.0006889597862027586,-0.0029441246297210455,-0.006582268979400396
1773790246434120700,4.07912060546875,-0.0011664645280689,-0.0027268105186522007,-0.006343649700284004
1773790246454084600,4.099084716796875,0.0010104032699018717,-0.0032831449061632156,-0.006117014680057764
1773790246474048500,4.119048583984375,-0.00006604639202123508,-0.0025220136158168316,-0.005122856702655554
1773790246494011600,4.13901171875,-0.0010064085945487022,-0.0031672974582761526,-0.00464615086093545
1773790246513975600,4.1589755859375,-0.0007765777409076691,-0.002746518002822995,-0.0067660268396139145
1773790246533939700,4.178939697265625,-0.0010863033821806312,-0.001421861699782312,-0.005683718249201775
1773790246553902600,4.198902587890625,-0.0015070828376337886,-0.0015022892039269209,-0.0054546864703297615
1773790246573866500,4.218866455078125,0.0002980077115353197,-0.0025595640763640404,-0.006268548313528299
1773790246593829600,4.23882958984375,-0.0005986785981804132,-0.004340952727943659,-0.006399043370038271
1773790246613793500,4.25879345703125,0.0001411475386703387,-0.0021789984311908484,-0.0057409764267504215
1773790246633757700,4.2787578125,0.0004985437262803316,-0.0025070998817682266,-0.0057252636179327965
1773790246653720600,4.298720458984375,-0.00015632755821570754,-0.0038389465771615505,-0.005343899130821228
1773790246673684500,4.3186845703125,0.0003081277245655656,-0.0026818031910806894,-0.006235791835933924
1773790246693648600,4.338648681640625,0.0011749867117032409,-0.0031369375064969063,-0.006885869428515434
1773790246713611500,4.358611572265625,-0.0005576659459620714,-0.0013712616637349129,-0.006688262801617384
1773790246733575700,4.37857568359375,-0.0002854908525478095,-0.002770220162346959,-0.004824316129088402
1773790246753539600,4.39853955078125,-0.0012056130217388272,-0.003451456781476736,-0.005624329671263695
1773790246773502500,4.41850244140625,0.0003153182624373585,-0.0016940367640927434,-0.006600644905120134
1773790246793466600,4.438466552734375,-0.00010066748654935509,-0.0035140409599989653,-0.004867193289101124
1773790246813429500,4.458429443359375,-0.00011132013605674729,-0.0026879284996539354,-0.006141782272607088
1773790246833393700,4.4783935546875,-0.001841575838625431,-0.0038224351592361927,-0.005283445119857788
1773790246853357600,4.498357666015625,-0.0018018947448581457,-0.003644536016508937,-0.004746019374579191
1773790246875816700,4.520816650390625,0.0008604673203080893,-0.0024802018888294697,-0.005563609767705202
1773790246895780600,4.540780517578125,-0.0014849785948172212,-0.0038195056840777397,-0.006325007416307926
1773790246915744500,4.56074462890625,-0.0021427792962640524,-0.0035928706638514996,-0.006767092272639275
1773790246935707600,4.580707763671875,-0.0009773800848051906,-0.0031931300181895494,-0.005529255140572786
1773790246955671600,4.600671630859375,-0.00005965480886516161,-0.002436526119709015,-0.0062243398278951645
1773790246975635500,4.620635498046875,0.00035979304811917245,-0.003914314322173595,-0.005449892953038216
1773790246995598600,4.6405986328125,0.00005299690383253619,-0.003433080855756998,-0.006334328558295965
1773790247015562500,4.6605625,0.0009922938188537955,-0.0031459920573979616,-0.006186789367347956
1773790247035525600,4.680525634765625,0.0003206445835530758,-0.0038418760523200035,-0.004852013196796179
1773790247055489500,4.700489501953125,0.0009427590412087739,-0.00395665830001235,-0.004739894066005945
1773790247075453400,4.720453369140625,-0.0007065366371534765,-0.0027409254107624292,-0.004387291613966227
1773790247095416600,4.74041650390625,-0.0006780407857149839,-0.0012564794160425663,-0.004746285732835531
1773790247115380500,4.76038037109375,-0.00045673211570829153,-0.002912699244916439,-0.004789961501955986
1773790247135344400,4.780344482421875,0.0003885551996063441,-0.002531867241486907,-0.006572947837412357
1773790247155307500,4.8003076171875,0.0001954760227818042,-0.002526541007682681,-0.0060174125246703625
1773790247175271400,4.820271484375,0.00009906959166983142,-0.0033939324785023928,-0.006640325766056776
1773790247195235600,4.840235595703125,-0.0001968075957847759,-0.003724164329469204,-0.005634716246277094
1773790247215198500,4.860198486328125,-0.000014913702216290403,-0.003430684097111225,-0.004523379262536764
1773790247235162600,4.88016259765625,-0.0011046791914850473,-0.0034756914246827364,-0.005600095260888338
1773790247255125500,4.90012548828125,-0.00022370553051587194,-0.0023672839161008596,-0.004169445019215345
1773790247275088600,4.920088623046875,-0.0012508867075666785,-0.0019044264918193221,-0.006487993057817221
1773790247295052500,4.940052490234375,-0.00013768543431069702,-0.0030945930629968643,-0.006494118366390467
1773790247315016400,4.960016357421875,-0.0006103964988142252,-0.003412308171391487,-0.00632048025727272
1773790247334979600,4.9799794921875,-0.0006647250265814364,-0.0032804817892611027,-0.005498894955962896
1773790247354943500,4.999943603515625,0.0008937568636611104,-0.0017291904659941792,-0.004319114610552788
1773790247374906600,5.01990673828125,-0.0006077333819121122,-0.003192331176251173,-0.004429901950061321
1773790247394870500,5.03987060546875,0.0005787048721686006,-0.0029726203065365553,-0.005930060520768166
1773790247414834400,5.05983447265625,-0.0004543352697510272,-0.004293814767152071,-0.005813946947455406
1773790247434797600,5.079797607421875,-0.0013467605458572507,-0.0036037894897162914,-0.0046394928358495235
1773790247454761500,5.099761474609375,-0.00036272252327762544,-0.003168629016727209,-0.004508731886744499
1773790247474725400,5.119725341796875,-0.0010788465151563287,-0.0022189458832144737,-0.00618119677528739
1773790247494688500,5.1396884765625,-0.0011358382180333138,-0.0026354643050581217,-0.00669438811019063
1773790247514652400,5.15965234375,-0.0006061354652047157,-0.0029763488564640284,-0.005000350996851921
1773790247534615600,5.179615478515625,0.00001651159800530877,-0.004299940075725317,-0.005407814867794514
1773790247554579500,5.199579345703125,-0.0011179950088262558,-0.004670917987823486,-0.005071990191936493
1773790247574543400,5.21954345703125,0.00008495483780279756,-0.0024527714122086763,-0.0057558901607990265
1773790247594506500,5.239506591796875,-0.001157143502496183,-0.002516420790925622,-0.005858155433088541
1773790247614470400,5.259470458984375,0.0010037453612312675,-0.0027228158432990313,-0.006200371775776148
1773790247634434600,5.2794345703125,0.0012082761386409402,-0.002947852946817875,-0.005756955128163099
1773790247654397400,5.2993974609375,0.001374723738990724,-0.0033332123421132565,-0.006608900614082813
1773790247674361300,5.319361328125,-0.00009108010999625549,-0.0036450685001909733,-0.005941512528806925
1773790247694324500,5.339324462890625,-0.0008162588928826153,-0.0016010924009606242,-0.005048820748925209
1773790247714288400,5.359288330078125,0.0007571366732008755,-0.00324825756251812,-0.006096508353948593
1773790247734252500,5.37925244140625,-0.0010567422723397613,-0.0031350732315331697,-0.004050934221595526
1773790247754215400,5.39921533203125,0.00036938043194822967,-0.0021470405627042055,-0.006741259712725878
1773790247774179600,5.4191796875,-0.0009563411585986614,-0.003212837502360344,-0.005407814867794514
1773790247794143500,5.4391435546875,0.0004713795206043869,-0.0026146916206926107,-0.0057191383093595505
1773790247814106400,5.4591064453125,-0.0002069276088150218,-0.0034061830956488848,-0.004974784795194864
1773790247834070500,5.479070556640625,-0.00032623723382130265,-0.003801928833127022,-0.005172657780349255
1773790247854033400,5.499033447265625,0.00005725796290789731,-0.002579005202278495,-0.005861617624759674
1773790247873997600,5.51899755859375,0.0001816275907913223,-0.0010602044640108943,-0.004545216914266348
1773790247893961500,5.53896142578125,0.0004037352045997977,-0.0036490634083747864,-0.005675462540239096
1773790247913924400,5.55892431640625,-0.0017515610670670867,-0.0029731530230492353,-0.005655222572386265
1773790247933888500,5.578888427734375,-0.0003049319493584335,-0.0031036478467285633,-0.006365487817674875
1773790247953852400,5.598852294921875,-0.0008458199445158243,-0.0021766014397144318,-0.006710633169859648
1773790247973815600,5.618815673828125,0.00037683729897253215,-0.0026873957831412554,-0.006293049547821283
1773790247993779500,5.638779541015625,-0.0006804376607760787,-0.003215500619262457,-0.005903961602598429
1773790248013743400,5.658743408203125,0.0002402171230642125,-0.00284984870813787,-0.004223507363349199
1773790248033706500,5.67870654296875,-0.0012924320762977004,-0.0029609024059027433,-0.00464641721919179
1773790248053670400,5.69867041015625,-0.0008018778171390295,-0.0025893915444612503,-0.007291468791663647
1773790248073633500,5.718633544921875,-0.0006090649403631687,-0.003994208760559559,-0.005571599118411541
1773790248093597400,5.738597412109375,-0.0018998990999534726,-0.002728142309933901,-0.005745237227529287
1773790248113561300,5.758561279296875,0.0016407734947279096,-0.0031316110398620367,-0.005726329050958157
1773790248133524500,5.7785244140625,-0.0002146507758880034,-0.003659183392301202,-0.006141249556094408
1773790248153488400,5.79848828125,-0.000303334032651037,-0.004355067387223244,-0.0060211410745978355
1773790248173451500,5.818451416015625,0.0005744438385590911,-0.002788329729810357,-0.0054299188777804375
1773790248193415400,5.83841552734375,0.00009347695595351979,-0.00287434970960021,-0.005402754992246628
1773790248213379300,5.85837939453125,-0.0008175904513336718,-0.0031843415927141905,-0.006028331350535154
1773790248233342500,5.878342529296875,-0.000037017940485384315,-0.002694586291909218,-0.006188121158629656
1773790248253306400,5.898306396484375,-0.000441818410763517,-0.002004561247304082,-0.0054727960377931595
1773790248273270300,5.918270263671875,0.000803209375590086,-0.0026972496416419744,-0.005879460833966732
1773790248293233400,5.9382333984375,-0.0005486111622303724,-0.002454369328916073,-0.0037238982040435076
1773790248313197300,5.958197265625,-0.0013427657540887594,-0.0035329493694007397,-0.006691458635032177
1773790248333160400,5.978160400390625,0.000006125270374468528,-0.0026466494891792536,-0.0064714811742305756
1773790248353124400,5.998124267578125,-0.00004314320904086344,-0.00358860963024199,-0.006061621010303497
1773790248373088300,6.018088134765625,0.0005584649043157697,-0.0023760723415762186,-0.0057279267348349094
1773790248393051400,6.038051513671875,-0.00042743736412376165,-0.0026879284996539354,-0.005408613942563534
1773790248413015000,6.05801513671875,-0.00003222424857085571,-0.0024951156228780746,-0.005852829199284315
1773790248432979200,6.077979248046875,-0.0017470336752012372,-0.0019979034550487995,-0.005501558072865009
1773790248452942000,6.097942138671875,-0.0012474246323108673,-0.002606169320642948,-0.0043595945462584496
1773790248472906200,6.11790625,-0.00044075315236113966,-0.0024919197894632816,-0.006116748321801424
1773790248492869000,6.137869140625,-0.0010431602131575346,-0.0044200485572218895,-0.005495432764291763
1773790248512833000,6.1578330078125,0.00006178533658385277,-0.0023369237314909697,-0.005269064102321863
1773790248532797200,6.177797119140625,-0.0022863238118588924,-0.003522296901792288,-0.005524194799363613
1773790248552760000,6.197760009765625,-0.0008024104172363877,-0.00321869645267725,-0.006259227637201548
1773790248572724200,6.21772412109375,-0.0008218514849431813,-0.003263437654823065,-0.006611830089241266
1773790248592687000,6.23768701171875,-0.00012436961696948856,-0.0034234935883432627,-0.005928995553404093
1773790248612651000,6.257651123046875,-0.0012578109744936228,-0.004496747627854347,-0.00566907087340951
1773790248632615200,6.277615234375,-0.000639691308606416,-0.0028551749419420958,-0.006685599684715271
1773790248652578000,6.297578125,-0.0001400822657160461,-0.0025571673177182674,-0.005813680589199066
1773790248672542200,6.317542236328125,-0.0006170544074848294,-0.0031033814884722233,-0.006160690449178219
1773790248692506000,6.337506103515625,-0.0003992078418377787,-0.00307595101185143,-0.004588892683386803
1773790248712469000,6.357468994140625,0.000215716048842296,-0.0027838023379445076,-0.005653092171996832
1773790248732433200,6.37743310546875,-0.000040746363083599135,-0.00236328924074769,-0.005557484459131956
1773790248752396000,6.39739599609375,0.0002860235108528286,-0.003531351685523987,-0.005216333549469709
1773790248772360200,6.417360107421875,-0.0014317154418677092,-0.003195527009665966,-0.005597165785729885
1773790248792324000,6.437323974609375,-0.000988032785244286,-0.0020546286832541227,-0.004690092988312244
1773790248812287000,6.457286865234375,-0.0008823052630759776,-0.0026698189321905375,-0.005505552981048822
1773790248832251100,6.477251220703125,-0.0005701828049495816,-0.0033718282356858253,-0.006524478085339069
1773790248852214000,6.497214111328125,-0.0005904228310100734,-0.003611246356740594,-0.004462392535060644
1773790248872178200,6.51717822265625,-0.0010732539230957627,-0.0033537186682224274,-0.006963100749999285
1773790248892142000,6.53714208984375,0.00032144354190677404,-0.003091131104156375,-0.004887965973466635
1773790248912105000,6.55710498046875,0.0013875069562345743,-0.002748914761468768,-0.00570049649104476
1773790248932069000,6.577069091796875,-0.001745968358591199,-0.004099137615412474,-0.007733819540590048
1773790248952033000,6.597032958984375,-0.0005025385180488229,-0.0024610271211713552,-0.006792126223444939
1773790248971996200,6.61699609375,-0.00037683729897253215,-0.0033662356436252594,-0.006366286426782608
1773790248991960000,6.6369599609375,-0.0010540791554376483,-0.0032107068691402674,-0.004021639470010996
1773790249011923200,6.656923095703125,-0.0004444815858732909,-0.0031342741567641497,-0.006360161118209362
1773790249031887000,6.67688720703125,-0.0016937704058364034,-0.00207673292607069,-0.007180415093898773
1773790249051851000,6.69685107421875,0.00021385183208622038,-0.0012977584265172482,-0.0065314024686813354
1773790249071814100,6.716814208984375,0.0001613875647308305,-0.002255431143566966,-0.005810218397527933
1773790249091778000,6.736778076171875,-0.0007384945638477802,-0.0030562435276806355,-0.004554005339741707
1773790249111741200,6.7567412109375,0.0000500674286740832,-0.003194727934896946,-0.006307963281869888
1773790249131705000,6.776705078125,-0.0002585929469205439,-0.0040823593735694885,-0.006456833798438311
1773790249151669000,6.7966689453125,0.0001400822657160461,-0.003490072675049305,-0.005435511935502291
1773790249171632000,6.816632080078125,-0.0008823052630759776,-0.0034961977507919073,-0.006134591531008482
1773790249191596000,6.836595947265625,-0.00027563716867007315,-0.0031129689887166023,-0.006454969756305218
1773790249211559200,6.85655908203125,-0.0006282397080212831,-0.0033878071699291468,-0.00475347600877285
1773790249231523000,6.876523193359375,-0.00012889699428342283,-0.0025334651581943035,-0.0062243398278951645
1773790249251487000,6.896487060546875,-0.0016322514275088906,-0.0035350800026208162,-0.006458698306232691
1773790249271450000,6.9164501953125,0.000016777914424892515,-0.003621100215241313,-0.006881341803818941
1773790249291414000,6.9364140625,0.0011787151452153921,-0.002922020386904478,-0.006405701395124197
1773790249311378000,6.9563779296875,-0.00018695391190703958,-0.0024381240364164114,-0.005906891077756882
1773790249331341000,6.976341064453125,-0.0009392969077453017,-0.003907123580574989,-0.006226204335689545
1773790249351305000,6.996304931640625,-0.0004223773430567235,-0.003707386553287506,-0.005328452680259943
1773790249371268000,7.01626806640625,-0.0009512811084277928,-0.0028245486319065094,-0.005876265000551939
1773790249391232000,7.03623193359375,-0.0008815063047222793,-0.002383262850344181,-0.005540706682950258
1773790249411196400,7.056196533203125,-0.00021731393644586205,-0.003948136232793331,-0.006076002027839422
1773790249431159600,7.07615966796875,0.0002681803307496011,-0.0020594224333763123,-0.005347094964236021
1773790249451123500,7.09612353515625,-0.0002719087351579219,-0.003600061172619462,-0.005212871357798576
1773790249471086600,7.116086669921875,-0.00039494677912443876,-0.0030748858116567135,-0.005434446502476931
1773790249491050500,7.136050537109375,-0.00019920444174204022,-0.003912716172635555,-0.0062698801048099995
1773790249511014400,7.156014404296875,-0.0011313108261674643,-0.0034197650384157896,-0.005795038305222988
1773790249530977500,7.1759775390625,0.0002109223569277674,-0.002828276949003339,-0.005676261615008116
1773790249550941400,7.19594140625,-0.0025446503423154354,-0.002579005202278495,-0.006068811286240816
1773790249570904600,7.215904541015625,-0.0009416937828063965,-0.004001665860414505,-0.007727428339421749
1773790249590868500,7.235868408203125,-0.00006950850365683436,-0.002323608146980405,-0.006022472400218248
1773790249610832400,7.255832275390625,-0.00035979304811917245,-0.0036730316933244467,-0.005894640926271677
1773790249630795500,7.27579541015625,-0.001570998691022396,-0.002037051832303405,-0.004987035412341356
1773790249650759400,7.295759521484375,-0.0002657834847923368,-0.003579288488253951,-0.005139900837093592
1773790249670722600,7.31572265625,0.0006234460161067545,-0.0025814019609242678,-0.005824067164212465
1773790249690686500,7.3356865234375,0.00004021373388241045,-0.003835750976577401,-0.006303968373686075
1773790249710650400,7.355650390625,-0.0015214639715850353,-0.004739627707749605,-0.005672799423336983
1773790249730613500,7.375613525390625,-0.00042290997225791216,-0.003858121344819665,-0.006126868538558483
1773790249750577400,7.395577392578125,-0.001725462032482028,-0.0034471957478672266,-0.0052229915745556355
1773790249770540500,7.41554052734375,-0.0012996225850656629,-0.0025566346012055874,-0.0062914518639445305
1773790249790504400,7.43550439453125,-0.00021758026559837162,-0.002951581496745348,-0.005694371182471514
1773790249810468400,7.45546826171875,-0.0008404936525039375,-0.0024775387719273567,-0.005375590641051531
1773790249830431500,7.475431396484375,-0.0000697748182574287,-0.003381948219612241,-0.006462426856160164
1773790249850395400,7.4953955078125,-0.0017297230660915375,-0.002638659905642271,-0.005571066867560148
1773790249870358500,7.515358642578125,-0.0006287723081186414,-0.0037619813811033964,-0.005474393721669912
1773790249890322400,7.535322509765625,-0.0013619405217468739,-0.0034264230635017157,-0.0065593658946454525
1773790249910286300,7.555286376953125,0.00025246766745112836,-0.0033936661202460527,-0.003930559381842613
1773790249930249500,7.57524951171875,0.0005230448441579938,-0.0024519723374396563,-0.006375607568770647
1773790249950213400,7.59521337890625,-0.0004093278548680246,-0.0027316042687743902,-0.005228051450103521
1773790249970176500,7.615176513671875,0.00044581317342817783,-0.0027355989441275597,-0.005624862387776375
1773790249990140400,7.635140380859375,-0.0018050905782729387,-0.002575809368863702,-0.005952697712928057
1773790250010104300,7.655104248046875,0.001207477180287242,-0.003237072378396988,-0.006291984114795923
1773790250030067500,7.6750673828125,0.0006591323763132095,-0.00205276464112103,-0.006192914675921202
1773790250050031400,7.69503125,-0.0000031957933970261365,-0.003233077470213175,-0.005246427375823259
1773790250069995500,7.71499560546875,0.0005744438385590911,-0.0026642263401299715,-0.005012335255742073
1773790250089958400,7.73495849609375,0.0004346278728917241,-0.0034674357157200575,-0.006147108506411314
1773790250109922300,7.75492236328125,-0.00007350324449362233,-0.0027915253303945065,-0.006135923322290182
1773790250129885400,7.774885498046875,-0.0010972223244607449,-0.0024495755787938833,-0.005932457745075226
1773790250149849300,7.794849365234375,0.0017385114915668964,-0.002513491315767169,-0.006798251066356897
1773790250169812500,7.8148125,0.0003278351214248687,-0.0017608820926398039,-0.006110889371484518
1773790250189776400,7.8347763671875,-0.001258609932847321,-0.0022008363157510757,-0.004886900540441275
1773790250209740300,7.854740234375,0.00040852889651432633,-0.0019353191601112485,-0.007184942252933979
1773790250229703400,7.874703369140625,0.0003099919413216412,-0.0034583809319883585,-0.005529787857085466
1773790250249667300,7.894667236328125,-0.001005609636195004,-0.0026256104465574026,-0.0065228804014623165
1773790250269631500,7.914631591796875,-0.0013371731620281935,-0.002892192918807268,-0.005057342816144228
1773790250289594400,7.934594482421875,-0.00036991306114941835,-0.002871153876185417,-0.00526560191065073
1773790250309558300,7.954558349609375,0.00001651159800530877,-0.0021752698812633753,-0.006223807577043772
1773790250329521400,7.974521484375,-0.0005006743012927473,-0.004018709994852543,-0.0070914654061198235
1773790250349485300,7.9944853515625,0.0004988100845366716,-0.003754790872335434,-0.004868524614721537
1773790250369449500,8.014449462890624,0.00010359696898376569,-0.00466505903750658,-0.006196643225848675
1773790250389412400,8.034412353515625,-0.0001584580895723775,-0.0019622170366346836,-0.005823534447699785
1773790250409376500,8.05437646484375,0.0008591357618570328,-0.0029262814205139875,-0.0051750545389950275
1773790250429339600,8.074339599609376,0.0003427488263696432,-0.0034290861804038286,-0.0049673281610012054
1773790250449303600,8.094303466796875,0.0005360943032428622,-0.0021976404823362827,-0.006764162797480822
1773790250469266700,8.1142666015625,-0.0014913701452314854,-0.0032985913567245007,-0.005334311630576849
1773790250489230600,8.134230712890625,-0.000014913702216290403,-0.002419215627014637,-0.006600378546863794
1773790250509194500,8.154194580078125,0.00023036343918647617,-0.002665291540324688,-0.005314338020980358
1773790250529157600,8.17415771484375,-0.00023808660625945777,-0.0028455876745283604,-0.005322860088199377
1773790250549121500,8.19412158203125,0.0007840346079319715,-0.002528405049815774,-0.004591555800288916
1773790250569084700,8.214084716796876,-0.00021225394448265433,-0.0022943131625652313,-0.003418966196477413
1773790250589048600,8.234048583984375,-0.000707868195604533,-0.0024106933269649744,-0.00586747657507658
1773790250609012500,8.254012451171874,-0.00038962045800872147,-0.0027662254869937897,-0.00583871454000473
1773790250628975600,8.2739755859375,0.00014221279707271606,-0.0036543896421790123,-0.006965497974306345
1773790250648939500,8.293939453125,-0.000556600687559694,-0.003662378992885351,-0.006208893842995167
1773790250668902700,8.313902587890626,-0.0006572681595571339,-0.003052248852327466,-0.005650694947689772
1773790250688866600,8.333866455078125,0.0003403519804123789,-0.0024868599139153957,-0.005401955917477608
1773790250708830700,8.353830810546874,0.000627973407972604,-0.002764361212030053,-0.0055002267472445965
1773790250728793600,8.373793701171875,-0.0009257147903554142,-0.0016556872287765145,-0.004993693437427282
1773790250748757500,8.393757568359375,0.0009017463307827711,-0.002822684356942773,-0.004366252571344376
1773790250768720600,8.413720703125,-0.0008732505375519395,-0.002129996195435524,-0.006391054019331932
1773790250788684500,8.4336845703125,-0.0014740596525371075,-0.0031095067970454693,-0.005651227664202452
1773790250808648700,8.453648681640624,-0.0015156050212681293,-0.0028301412239670753,-0.005881058517843485
1773790250828611600,8.473611572265625,-0.00041731735109351575,-0.0024972460232675076,-0.005800630897283554
1773790250848575500,8.493575439453124,-0.0010074737947434187,-0.0025180187076330185,-0.005664543714374304
1773790250872282600,8.51728271484375,-0.00007590009045088664,-0.002007490722462535,-0.005036570131778717
1773790250892246800,8.537246826171875,-0.00014434332842938602,-0.004086886998265982,-0.007712514605373144
1773790250912209700,8.557209716796875,-0.00004447478931979276,-0.0038277613930404186,-0.007358314003795385
1773790250932173800,8.577173828125,-0.000624777574557811,-0.003483414649963379,-0.004729507956653833
1773790250952137700,8.5971376953125,-0.0007243797881528735,-0.0030778152868151665,-0.005834985990077257
1773790250972100600,8.6171005859375,0.0011949603212997317,-0.0032293491531163454,-0.006108758971095085
1773790250992064800,8.637064697265625,-0.0027079021092504263,-0.0030032468494027853,-0.0065290057100355625
1773790251012027600,8.657027587890624,-0.000023435817638528533,-0.003572630463168025,-0.005799033213406801
1773790251031991800,8.67699169921875,-0.0008490157779306173,-0.004005128052085638,-0.0064925202168524265
1773790251051955700,8.696955810546875,-0.0007225155713967979,-0.002871153876185417,-0.0057769292034208775
1773790251071918800,8.7169189453125,-0.0009422263829037547,-0.0035153725184500217,-0.005301288329064846
1773790251091882800,8.7368828125,0.0008199872681871057,-0.0028519791085273027,-0.005561479367315769
1773790251111845600,8.756845703125,0.00014514227223116904,-0.0017827199772000313,-0.00552206439897418
1773790251131809800,8.776809814453125,-0.000013848437447450124,-0.0023185480386018753,-0.006879477761685848
1773790251151773700,8.796773681640625,-0.0003531351685523987,-0.0032527849543839693,-0.005215268116444349
1773790251171736800,8.81673681640625,-0.0012002866715192795,-0.0029851372819393873,-0.005033107940107584
1773790251191700700,8.83670068359375,-0.0003038666909560561,-0.0009536779834888875,-0.006346845533698797
1773790251211663600,8.85666357421875,0.0006034722900949419,-0.0028722193092107773,-0.0046384274028241634
1773790251231627800,8.876627685546875,-0.0005161206354387105,-0.0026402578223496675,-0.007014499977231026
1773790251251590700,8.896590576171874,-0.0006727144937030971,-0.002722017001360655,-0.004287955816835165
1773790251271553800,8.9165537109375,-0.0003534014686010778,-0.003743072971701622,-0.00498011102899909
1773790251291517700,8.936517578125,-0.001032241270877421,-0.002635730430483818,-0.006073338910937309
1773790251311480800,8.956480712890626,-0.000019707391402334906,-0.00304718897677958,-0.005631254054605961
1773790251331444700,8.97644482421875,0.000014114753867033869,-0.0027305390685796738,-0.005024585872888565
1773790251351408600,8.99640869140625,-0.0007843009079806507,-0.0030511836521327496,-0.007041930686682463
1773790251371371800,9.016371826171875,-0.002141980454325676,-0.0033246902748942375,-0.005014466121792793
1773790251391335700,9.036335693359375,-0.000371777277905494,-0.0036248285323381424,-0.006385461427271366
1773790251411299000,9.056299072265626,0.000294545607175678,-0.003349990351125598,-0.003980626817792654
1773790251431263000,9.076262939453125,-0.0011028150329366326,-0.0036719664931297302,-0.00440966198220849
1773790251451226000,9.09622607421875,-0.0004106594424229115,-0.0035244273021817207,-0.0047260457649827
1773790251471190000,9.11618994140625,-0.0005723133217543364,-0.002493251347914338,-0.006420082412660122
1773790251491154000,9.13615380859375,-0.0016644756542518735,-0.003662378992885351,-0.00564137427136302
1773790251511117000,9.156116943359375,0.0004189152386970818,-0.00281948852352798,-0.005853894166648388
1773790251531081000,9.1760810546875,0.00006364954606397077,-0.002379534300416708,-0.006667756475508213
1773790251551044000,9.196044189453126,-0.0005406216951087117,-0.0036277580074965954,-0.004804342519491911
1773790251571008000,9.216008056640625,-0.0006135923322290182,-0.0030399984680116177,-0.005940447095781565
1773790251590972000,9.235971923828124,-0.00020905814017169178,-0.0026173547375947237,-0.006794522982090712
1773790251610935000,9.25593505859375,-0.0011289139511063695,-0.0023702133912593126,-0.005783853121101856
1773790251630899000,9.27589892578125,-0.00023568976030219346,-0.0022415826097130775,-0.006858438719063997
1773790251650862000,9.295862060546876,-0.0012503541074693203,-0.0027662254869937897,-0.0057436395436525345
1773790251670826000,9.315825927734375,-0.00019148127466905862,-0.0018871158827096224,-0.00526640098541975
1773790251690788900,9.335788818359376,-0.0008378304773941636,-0.0030975225381553173,-0.005726329050958157
1773790251710753000,9.3557529296875,0.0005542038124985993,-0.0032352081034332514,-0.0041249701753258705
1773790251730717000,9.375717041015625,0.0012122709304094315,-0.0037561224307864904,-0.005018726922571659
1773790251750680000,9.39568017578125,-0.0010439591715112329,-0.0021675468888133764,-0.0065074339509010315
1773790251770644000,9.41564404296875,-0.0016415724530816078,-0.00316063966602087,-0.005366535857319832
1773790251790606800,9.43560693359375,-0.001151018193922937,-0.0023672839161008596,-0.006247243378311396
1773790251810571000,9.455571044921875,-0.000011717908819264267,-0.0020189424976706505,-0.0062331282533705235
1773790251830535000,9.475534912109374,0.000494016392622143,-0.003329217666760087,-0.006343916058540344
1773790251850498000,9.495498046875,0.0006844323943369091,-0.002389388158917427,-0.006720753386616707
1773790251870462000,9.5154619140625,-0.001892175991088152,-0.0019441075855866075,-0.005633917171508074
1773790251890425000,9.535425048828126,-0.0014817827614024282,-0.002540122950449586,-0.004611796233803034
1773790251910389000,9.555388916015625,-0.00045034053619019687,-0.0023963123094290495,-0.006215019151568413
1773790251930351900,9.575351806640626,-0.0007459514308720827,-0.0036282907240092754,-0.006193447392433882
1773790251950316000,9.59531591796875,-0.0007166566210798919,-0.0029976540245115757,-0.005821936298161745
1773790251970280000,9.615280029296875,0.00038242992013692856,-0.0032780850306153297,-0.004974518436938524
1773790251990243000,9.6352431640625,-0.0006623281515203416,-0.004188885912299156,-0.005213137716054916
1773790252010207000,9.65520703125,0.0005733785801567137,-0.002439189236611128,-0.005894640926271677
1773790252030169900,9.675169921875,-0.0009568737586960196,-0.001600293442606926,-0.005612611770629883
1773790252050134000,9.695134033203125,-0.0003296993381809443,-0.0039020637050271034,-0.005541505757719278
1773790252070097000,9.715096923828124,-0.00003328951424919069,-0.0031254857312887907,-0.006578274071216583
1773790252090061000,9.73506103515625,-0.0004324973560869694,-0.0035569178871810436,-0.0065710837952792645
1773790252110025000,9.75502490234375,0.0005880259559489787,-0.002880208659917116,-0.006512227933853865
1773790252129987800,9.77498779296875,-0.0008210525847971439,-0.0033510555513203144,-0.005076784174889326
1773790252149952000,9.794951904296875,0.0005925533478148282,-0.002734267385676503,-0.005143096670508385
1773790252169915000,9.814914794921876,-0.0005550027708522975,-0.0021052288357168436,-0.005488774739205837
1773790252189879000,9.834879150390625,-0.0007097324123606086,-0.0016173376934602857,-0.004539091605693102
1773790252209843000,9.854843017578125,0.00017869810108095407,-0.003260774305090308,-0.006361759267747402
1773790252229805800,9.874805908203125,0.0007635282818228006,-0.003379817819222808,-0.00518757151439786
1773790252249770000,9.89477001953125,-0.00013555490295402706,-0.0019941749051213264,-0.0057534934021532536
1773790252269732900,9.91473291015625,-0.0008351673022843897,-0.003335342975333333,-0.005626194179058075
1773790252289697000,9.934697021484375,0.0006133259739726782,-0.0025992451701313257,-0.0057226005010306835
1773790252309660000,9.954659912109374,0.0009898969437927008,-0.0022365227341651917,-0.005530053749680519
1773790252329624000,9.9746240234375,-0.0008708536624908447,-0.0027236149180680513,-0.005775597412139177
1773790252349588000,9.994587890625,-0.0001174454009742476,-0.003733219113200903,-0.005434712860733271
1773790252369550800,10.01455078125,0.0018245317041873932,-0.0032487902790308,-0.006405701395124197
1773790252389515000,10.034514892578125,-0.0011033476330339909,-0.003683950752019882,-0.00566853815689683
1773790252409477600,10.0544775390625,0.0008356999605894089,-0.003552656853571534,-0.0046450854279100895
1773790252429442000,10.074442138671875,-0.000574177538510412,-0.002507632365450263,-0.005848301574587822
1773790252449404700,10.09440478515625,-0.0010924286907538772,-0.0034165694378316402,-0.004429901950061321
1773790252469368600,10.11436865234375,-0.0007470166892744601,-0.001876995898783207,-0.005754025653004646
1773790252489333000,10.1343330078125,-0.000589091214351356,-0.003780623432248831,-0.005485845264047384
1773790252509295600,10.154295654296876,-0.0007203850545920432,-0.002088983543217182,-0.006383863277733326
1773790252529260000,10.174260009765625,-0.0015454323729500175,-0.0033896714448928833,-0.005269330460578203
1773790252549222700,10.19422265625,-0.0009531453251838684,-0.0033318807836622,-0.006252835970371962
1773790252569186800,10.214186767578125,-0.0004346278728917241,-0.0018588864477351308,-0.005309277679771185
1773790252589149700,10.234149658203124,-0.0008202536264434457,-0.002435727044939995,-0.005401689559221268
1773790252609113600,10.254113525390625,-0.00011691277177305892,-0.0031345405150204897,-0.00392709719017148
1773790252629078000,10.274078125,0.000601075473241508,-0.0038892803713679314,-0.005576393101364374
1773790252649040600,10.29404052734375,-0.0005145227187313139,-0.002838130807504058,-0.006806507240980864
1773790252669004800,10.3140048828125,-0.000185888638952747,-0.0015456987312063575,-0.004747883416712284
1773790252688967700,10.3339677734375,0.0005368932615965605,-0.003991545643657446,-0.005516471806913614
1773790252708931800,10.353931884765625,0.0001680454588495195,-0.002766491612419486,-0.0062829297967255116
1773790252728894700,10.373894775390625,0.0015904398169368505,-0.0037286917213350534,-0.006433930713683367
1773790252748859000,10.39385888671875,-0.0010223875287920237,-0.0037918086163699627,-0.0062696137465536594
1773790252768822800,10.41382275390625,-0.0006796387024223804,-0.0028482507914304733,-0.004355333745479584
1773790252788785700,10.43378564453125,0.0012604740913957357,-0.0022008363157510757,-0.0070701600052416325
1773790252808749800,10.453749755859375,0.0002402171230642125,-0.0026940538082271814,-0.0057558901607990265
1773790252828712700,10.473712646484374,0.00019387812062632293,-0.002172074280679226,-0.006964166183024645
1773790252848676900,10.4936767578125,-0.0008135957177728415,-0.002216815249994397,-0.0062456452287733555
1773790252868641000,10.51364111328125,-0.0015052186790853739,-0.002922020386904478,-0.00561128044500947
1773790252888604000,10.53360400390625,0.00010679275874281302,-0.0022029669489711523,-0.005408613942563534
1773790252908567800,10.55356787109375,-0.0004189152386970818,-0.0011283813510090113,-0.005411010701209307
1773790252928530700,10.57353076171875,0.0005912217311561108,-0.0030123014003038406,-0.006714095361530781
1773790252948494800,10.593494873046875,-0.0020666129421442747,-0.0027079021092504263,-0.00538464542478323
1773790252968457700,10.613457763671875,0.0011669971281662583,-0.002409095410257578,-0.006141515914350748
1773790252988422000,10.633421875,-0.0006820355774834752,-0.0030045784078538418,-0.006923952605575323
1773790253008384800,10.653384765625,-0.0009334379574283957,-0.0028628981672227383,-0.005351089406758547
1773790253028349000,10.673348876953124,-0.0005784385721199214,-0.001272990950383246,-0.005529521498829126
1773790253048312800,10.693312744140625,0.0008218514849431813,-0.003632551757618785,-0.005905027035623789
1773790253068276000,10.71327587890625,0.00018109494703821838,-0.003578755771741271,-0.005685316398739815
1773790253088239900,10.733239990234376,-0.0010894992155954242,-0.0028668928425759077,-0.00683100800961256
1773790253108202800,10.75320263671875,-0.002555835759267211,-0.0028045750223100185,-0.0055092815309762955
1773790253128167000,10.7731669921875,-0.00036938043194822967,-0.002017610939219594,-0.005645368713885546
1773790253148129800,10.7931298828125,0.0006380933918990195,-0.0021283982787281275,-0.0068328725174069405
1773790253168094000,10.813093994140624,-0.000046339002437889576,-0.0035830168053507805,-0.0054142065346241
1773790253188057900,10.833057861328125,0.00005885586142539978,-0.003245328087359667,-0.004475974943488836
1773790253208021000,10.85302099609375,-0.001731587341055274,-0.0031063109636306763,-0.005566006526350975
1773790253227985000,10.87298486328125,0.00021651499264407903,-0.0021315941121429205,-0.005767341703176498
1773790253247947800,10.89294775390625,-0.0005528722540475428,-0.0023180153220891953,-0.004881041590124369
1773790253267912000,10.912911865234374,0.0000399474156438373,-0.003198190126568079,-0.006569219287484884
1773790253287874800,10.932874755859375,0.000278300343779847,-0.002775280037894845,-0.006417419295758009
1773790253307839000,10.9528388671875,0.0005382248782552779,-0.004189684987068176,-0.004865328781306744
1773790253327803000,10.972802978515626,-0.0003350256592966616,-0.002269812161102891,-0.005693572107702494
1773790253347766000,10.99276611328125,-0.0008370315190404654,-0.004091148264706135,-0.004059189930558205
1773790253367730000,11.01272998046875,-0.0013518205378204584,-0.0030099046416580677,-0.0054245926439762115
1773790253387693000,11.032693115234375,0.001017327536828816,-0.002255697501823306,-0.006396380253136158
1773790253407657000,11.052656982421874,-0.0006612628931179643,-0.0018884475575760007,-0.005666407756507397
1773790253427619600,11.07261962890625,-0.000743820914067328,-0.002198173198848963,-0.006298642139881849
1773790253447583500,11.09258349609375,-0.001484179636463523,-0.002133192028850317,-0.006327936891466379
1773790253467547400,11.11254736328125,0.00007323692989302799,-0.0028216191567480564,-0.003989947959780693
1773790253487510500,11.132510498046875,-0.0005041363765485585,-0.0029819414485245943,-0.005826197564601898
1773790253507474400,11.152474365234376,-0.0009837717516347766,-0.0028280108235776424,-0.007245928514748812
1773790253527437600,11.1724375,0.00036458674003370106,-0.004005926661193371,-0.006740194279700518
1773790253547401500,11.1924013671875,-0.00035446672700345516,-0.0036586506757885218,-0.006742058787494898
1773790253567364400,11.2123642578125,-0.0016594156622886658,-0.003052781568840146,-0.005547364708036184
1773790253587328500,11.23232861328125,-0.000511593243572861,-0.003585680155083537,-0.005824333056807518
1773790253607292400,11.25229248046875,-0.0005041363765485585,-0.002170742489397526,-0.005483981221914291
1773790253627255600,11.272255615234375,0.0007749798824079335,-0.003885019337758422,-0.005239236634224653
1773790253647219500,11.292219482421874,-0.00041971419705078006,-0.0025156219489872456,-0.005516471806913614
1773790253667182300,11.312182373046875,-0.0019888486713171005,-0.0036242958158254623,-0.005619003437459469
1773790253687146500,11.332146484375,-0.0005241101025603712,-0.00290417717769742,-0.006174272391945124
1773790253707109400,11.352109375,-0.000046871635277057067,-0.0031649006996303797,-0.006150037981569767
1773790253727073500,11.372073486328125,-0.00022983079543337226,-0.0032445292454212904,-0.005982258822768927
1773790253747036400,11.392036376953126,-0.0005475459038279951,-0.0033369408920407295,-0.004630970768630505
1773790253767000300,11.412000244140625,-0.00009108010999625549,-0.003433613572269678,-0.0068054418079555035
1773790253786964500,11.431964599609374,-0.001677525113336742,-0.00330338510684669,-0.006166815757751465
1773790253806927400,11.45192724609375,-0.0009779128013178706,-0.0023752732668071985,-0.005592105444520712
1773790253826891500,11.4718916015625,0.001175519311800599,-0.003561445279046893,-0.006244047544896603
1773790253846854400,11.4918544921875,-0.00026498452643863857,-0.0018405106384307146,-0.005863481666892767
1773790253866818300,11.511818359375,0.00032410668791271746,-0.0030309436842799187,-0.006183859892189503
1773790253886781400,11.531781494140626,-0.0007097324123606086,-0.002435993403196335,-0.0049071405082941055
1773790253906745300,11.551745361328125,0.0000029294772048160667,-0.002770486520603299,-0.0070589748211205006
1773790253926708500,11.57170849609375,0.00017496968212071806,-0.002162220422178507,-0.005309810396283865
1773790253946672400,11.59167236328125,-0.0001531317684566602,-0.0031135017052292824,-0.005167065188288689
1773790253966636500,11.611636474609375,0.001312139444053173,-0.00321869645267725,-0.005688512232154608
1773790253986599400,11.631599365234376,0.00009161273919744417,-0.0029382656794041395,-0.005986253265291452
1773790254006563300,11.651563232421875,0.0000428768944402691,-0.003013899317011237,-0.006878678686916828
1773790254026526500,11.6715263671875,-0.0022889869287610054,-0.004199805203825235,-0.003817907767370343
1773790254046490400,11.691490478515625,-0.0007747135823592544,-0.0024525050539523363,-0.005297559779137373
1773790254066453500,11.71145361328125,0.0021872541401535273,-0.0038075214251875877,-0.00586667750030756
1773790254086417400,11.73141748046875,-0.00003222424857085571,-0.0028599686920642853,-0.006628075148910284
1773790254106381300,11.75138134765625,-0.0008064051507972181,-0.00336197461001575,-0.004319380968809128
1773790254126344400,11.771344482421876,0.0003707120195031166,-0.0033103092573583126,-0.006364688742905855
1773790254146308400,11.791308349609375,-0.000681236619129777,-0.00387330143712461,-0.00495188171043992
1773790254166271500,11.811271484375,-0.0002495381922926754,-0.004282096866518259,-0.005437908694148064
1773790254186235400,11.8312353515625,-0.0001715075777610764,-0.0022540995851159096,-0.0051779840141534805
1773790254206198500,11.851198486328125,-0.00007696535612922162,-0.002743055811151862,-0.005817941855639219
1773790254226162400,11.871162353515626,-0.0011036139912903309,-0.002138518262654543,-0.006503439508378506
1773790254246125600,11.89112548828125,-0.0008215851848945022,-0.0032953955233097076,-0.005148955620825291
1773790254266089500,11.91108935546875,-0.0009693906176835299,-0.002356631215661764,-0.005681321490556002
1773790254286053400,11.931053466796875,0.00018482338055036962,-0.003451723139733076,-0.0048829056322574615
1773790254306016500,11.9510166015625,0.0007829693495295942,-0.002531867241486907,-0.006205698009580374
1773790254325980400,11.97098046875,-0.0012719257501885295,-0.0031228226143866777,-0.006972688250243664
1773790254345943600,11.990943603515625,-0.0009624664089642465,-0.002406965009868145,-0.006275206338614225
1773790254365907500,12.010907470703126,-0.0001155811914941296,-0.001614940818399191,-0.006593187805265188
1773790254385870300,12.030870361328125,-0.000568052229937166,-0.002570483135059476,-0.006766825914382935
1773790254405834500,12.05083447265625,-0.0008455536444671452,-0.003940679598599672,-0.005092496518045664
1773790254425797400,12.07079736328125,-0.00012863067968282849,-0.003996339626610279,-0.005390504375100136
1773790254445761500,12.090761474609375,0.000006924218723725062,-0.0033451966010034084,-0.006875749211758375
1773790254465725400,12.110725341796876,-0.0007190534961409867,-0.003802194958552718,-0.005037635564804077
1773790254485688300,12.130688232421875,-0.0009672601008787751,-0.003850131994113326,-0.0062730759382247925
1773790254505652500,12.150652587890624,-0.00011158645065734163,-0.002043177140876651,-0.005958823021501303
1773790254525615400,12.170615478515625,-0.00043569316039793193,-0.003363838652148843,-0.006023005116730928
1773790254545579500,12.19057958984375,-0.000360059377271682,-0.0025622271932661533,-0.006818757392466068
1773790254565542400,12.21054248046875,0.0005933523061685264,-0.0025949841365218163,-0.0065194182097911835
1773790254585506600,12.230506591796875,0.0012740562669932842,-0.0024493092205375433,-0.005621400196105242
1773790254605469400,12.250469482421876,-0.0015845808666199446,-0.0014956312952563167,-0.005488774739205837
1773790254625433300,12.270433349609375,-0.0015153386630117893,-0.0031364047899842262,-0.0049343048594892025
1773790254645397500,12.2903974609375,-0.0001507349224993959,-0.0028610338922590017,-0.005288239102810621
1773790254665360400,12.3103603515625,0.0005052016349509358,-0.0038783615455031395,-0.006401972845196724
1773790254685324500,12.330324462890625,0.0007099987124092877,-0.003704989794641733,-0.006281065288931131
1773790254705287400,12.350287353515625,-0.0007065366371534765,-0.002662362065166235,-0.0062792012467980385
1773790254725251300,12.370251220703125,-0.0013526194961741567,-0.0022037657909095287,-0.00472391489893198
1773790254745214500,12.39021435546875,-0.0008591357618570328,-0.003626426449045539,-0.007712248247116804
1773790254765178400,12.410178466796875,0.00022184131375979632,-0.00310497940517962,-0.005907690152525902
1773790254785141500,12.4301416015625,0.0006860303110443056,-0.005080512259155512,-0.005681055132299662
1773790254805105400,12.45010546875,-0.00043010051012970507,-0.003370230318978429,-0.00646748673170805
1773790254825068500,12.470068603515625,-0.00044314999831840396,-0.0036887445021420717,-0.004571049474179745
1773790254845032400,12.490032470703126,-0.00023435817274730653,-0.0028567728586494923,-0.005816876422613859
1773790254864996400,12.509996337890625,0.00009214537567459047,-0.0026554379146546125,-0.004768656101077795
1773790254884960500,12.52996044921875,0.00044474788592197,-0.0026019082870334387,-0.007260842248797417
1773790254904924400,12.54992431640625,-0.0010418286547064781,-0.0023188143968582153,-0.005736715160310268
1773790254924887300,12.56988720703125,-0.0015283881220966578,-0.0030085730832070112,-0.004447212442755699
1773790254944851500,12.5898515625,-0.0007012102869339287,-0.0024807346053421497,-0.006060022860765457
1773790254964814300,12.609814453125,-0.0007017429452389479,-0.003572630463168025,-0.006509830709546804
1773790254984778500,12.629778564453124,0.00038535939529538155,-0.003287672298029065,-0.00624165078625083
1773790255004741400,12.649741455078125,-0.00028336033574305475,-0.003498594742268324,-0.007135407533496618
1773790255024705500,12.66970556640625,0.0001917476038215682,-0.0021430456545203924,-0.005303418729454279
1773790255044668400,12.68966845703125,-0.0014016216155141592,-0.0033694314770400524,-0.005973736755549908
1773790255064632300,12.70963232421875,0.0004290352517273277,-0.00418329332023859,-0.005346828605979681
1773790255084595500,12.729595458984376,-0.0008849684381857514,-0.002852511825039983,-0.005419532768428326
1773790255104559400,12.749559326171875,0.000773381965700537,-0.0035870117135345936,-0.004425108432769775
1773790255124523500,12.7695234375,0.0008799084462225437,-0.002935868687927723,-0.004988367203623056
1773790255144486400,12.789486328125,-0.0010820423485711217,-0.0013792511308565736,-0.00580648984760046
1773790255164450300,12.8094501953125,-0.00016431703988928348,-0.0029491845052689314,-0.0065383268520236015
1773790255184413400,12.829413330078125,0.00041252365917898715,-0.0032583775464445353,-0.006402771919965744
1773790255204377300,12.84937744140625,-0.0015518239233642817,-0.003171292133629322,-0.004979046061635017
1773790255224340500,12.869340576171876,0.0001680454588495195,-0.003100185887888074,-0.004040548112243414
1773790255244304400,12.889304443359375,0.000598145998083055,-0.002799514913931489,-0.005664543714374304
1773790255264267500,12.909267578125,0.0010697918478399515,-0.002180596347898245,-0.004969192203134298
1773790255284231400,12.9292314453125,0.0003195793251506984,-0.0018367822049185634,-0.006880010478198528
1773790255304194600,12.949194580078125,0.0012948289513587952,-0.004680505488067865,-0.006542854011058807
1773790255324158500,12.969158447265626,0.0002902845444623381,-0.0033547841012477875,-0.006587595213204622
1773790255344121300,12.989121337890625,-0.00032330775866284966,-0.002528671408072114,-0.006867227144539356
1773790255364085500,13.00908544921875,-0.0002817624481394887,-0.0018242653459310532,-0.006813697516918182
1773790255384048400,13.02904833984375,-0.0015014902455732226,-0.0032730249222368,-0.004683701321482658
1773790255404012500,13.049012451171874,-0.00015233281010296196,-0.002679672557860613,-0.006762032397091389
1773790255423976000,13.068975830078125,-0.0011446266435086727,-0.0019803266040980816,-0.006637129932641983
1773790255443940000,13.088940185546875,0.0008535431115888059,-0.0033340114168822765,-0.006191050633788109
1773790255463904300,13.108904296875,0.00021385183208622038,-0.00401657959446311,-0.006866161711513996
1773790255483867100,13.1288671875,0.00018482338055036962,-0.0032581111881881952,-0.006610764656215906
1773790255503831000,13.1488310546875,-0.001139566651545465,-0.004108725115656853,-0.005452822428196669
1773790255523794200,13.168794189453125,-0.001044491771608591,-0.001967543503269553,-0.005727660376578569
1773790255543758000,13.188758056640625,-0.0008492820779792964,-0.002299373270943761,-0.004954278469085693
1773790255563721200,13.20872119140625,-0.0004796353168785572,-0.0027808728627860546,-0.0059756007976830006
1773790255583685000,13.22868505859375,-0.000901480030734092,-0.0018383801216259599,-0.00564030883833766
1773790255603648000,13.24864794921875,-0.0006138586322776973,-0.0025331987999379635,-0.0054791877046227455
1773790255623612200,13.268612060546875,-0.00007403588097076863,-0.0026578346733003855,-0.006299441214650869
1773790255643575000,13.288574951171874,-0.0011547466274350882,-0.002832538215443492,-0.005204082932323217
1773790255663539200,13.308539306640625,0.000966727442573756,-0.0027774106711149216,-0.006075202953070402
1773790255683503000,13.328503173828125,-0.0007709851488471031,-0.0036570527590811253,-0.004769987892359495
1773790255703466200,13.34846630859375,-0.0011403656098991632,-0.002855974016711116,-0.006178800016641617
1773790255723430100,13.36843017578125,0.0003981425834354013,-0.0029787456151098013,-0.004929244983941317
1773790255743393000,13.38839306640625,-0.0006580671179108322,-0.003424558788537979,-0.006594785954803228
1773790255763357200,13.408357177734375,-0.0011001517996191978,-0.0019326560432091355,-0.006842459551990032
1773790255783320000,13.428320068359374,-0.0003685815026983619,-0.0044144559651613235,-0.005422728601843119
1773790255803284200,13.4482841796875,0.00035366779775358737,-0.003096190979704261,-0.005658418405801058
1773790255823246800,13.468246826171875,-0.0001174454009742476,-0.003192863892763853,-0.005141498986631632
1773790255843211300,13.488211181640626,0.00017843178648035973,-0.002879942301660776,-0.006213154643774033
1773790255863174000,13.508173828125,0.000013848437447450124,-0.003059173235669732,-0.006261890754103661
1773790255883138300,13.52813818359375,-0.0006474144756793976,-0.0026040389202535152,-0.005575327668339014
1773790255903101000,13.548100830078125,0.0007904262165538967,-0.003290601773187518,-0.006362025626003742
1773790255923064800,13.56806494140625,0.0000500674286740832,-0.0032447953708469868,-0.005160939879715443
1773790255943029200,13.588029296875,-0.0004990763845853508,-0.003120425855740905,-0.0046299053356051445
1773790255962991900,13.607991943359375,0.00009214537567459047,-0.0023212111555039883,-0.005887716542929411
1773790255982956300,13.627956298828124,-0.000696150294970721,-0.0028565065003931522,-0.006968161091208458
1773790256002919000,13.6479189453125,0.0013616742799058557,-0.0013347762869670987,-0.007529555354267359
1773790256022883000,13.667883056640624,0.0004362257895991206,-0.0033483924344182014,-0.005888515617698431
1773790256042846000,13.687845947265625,-0.0009760485263541341,-0.00279019377194345,-0.007199855986982584
1773790256062809900,13.707809814453125,-0.0010729875648394227,-0.0034706315491348505,-0.0068299430422484875
1773790256082773000,13.72777294921875,-0.0016170714516192675,-0.003841077210381627,-0.006608900614082813
1773790256102737000,13.74773681640625,0.00020000340009573847,-0.003126551164314151,-0.006620618514716625
1773790256122700000,13.767699951171876,0.0004519384237937629,-0.0026069683954119682,-0.00726403808221221
1773790256142664000,13.787663818359375,0.000577107013668865,-0.00316063966602087,-0.005291700828820467
1773790256162627000,13.807626953125,-0.0016711335629224777,-0.0034788872580975294,-0.007640609052032232
1773790256182591000,13.827591064453125,-0.000841825210954994,-0.0035691685043275356,-0.006859770510345697
1773790256202555100,13.84755517578125,0.0011086739832535386,-0.003181145992130041,-0.004538825247436762
1773790256222518000,13.86751806640625,0.0004141215467825532,-0.004042412154376507,-0.0054664043709635735
1773790256242482000,13.88748193359375,0.0005725796218030155,-0.003239202778786421,-0.00615296745672822
1773790256262445000,13.907445068359374,-0.0005510080372914672,-0.002746784361079335,-0.005906358826905489
1773790256282409000,13.927408935546875,-0.0008791094878688455,-0.0019686087034642696,-0.0051476238295435905
1773790256302372000,13.9473720703125,-0.00038482676609419286,-0.0026375947054475546,-0.005600095260888338
1773790256322336000,13.9673359375,-0.0013843111228197813,-0.0034677020739763975,-0.006389189511537552
1773790256342299000,13.987298828125,-0.0008290420519188046,-0.002082591876387596,-0.006687996443361044
1773790256362263000,14.007262939453126,-0.0004814995336346328,-0.0032916669733822346,-0.005886651109904051
1773790256382226000,14.027225830078125,-0.00007403588097076863,-0.0034674357157200575,-0.006509830709546804
1773790256402190000,14.047190185546874,0.0012727247085422277,-0.0024583640042692423,-0.005285841878503561
1773790256422152200,14.067152099609375,-0.0007827030494809151,-0.0014751249691471457,-0.00615270109847188
1773790256442116400,14.087116455078124,-0.000254331884207204,-0.0017627463676035404,-0.0041374871507287025
1773790256462080300,14.107080322265626,-0.00259418529458344,-0.0037936728913336992,-0.005477323196828365
1773790256482043400,14.12704345703125,-0.00021997711155563593,-0.0021875204984098673,-0.00615110294893384
1773790256502007300,14.14700732421875,0.0003576625313144177,-0.002376871183514595,-0.00695058424025774
1773790256521970200,14.16697021484375,-0.00138031633105129,-0.002612560987472534,-0.005624329671263695
1773790256541934300,14.186934326171874,-0.001038366463035345,-0.0038956720381975174,-0.006280532572418451
1773790256561897200,14.206897216796875,-0.000319845654303208,-0.0019465044606477022,-0.00427091121673584
1773790256581861400,14.226861328125,0.0000929443194763735,-0.0029316076543182135,-0.005349491722881794
1773790256601824300,14.24682421875,-0.00002956108801299706,-0.002984072081744671,-0.005078381858766079
1773790256621788200,14.2667880859375,-0.001044225413352251,-0.0033318807836622,-0.005721268709748983
1773790256641751300,14.286751220703126,-0.0006950850365683436,-0.002561694709584117,-0.0062610916793346405
1773790256661715200,14.306715087890625,0.0000018642127770363004,-0.0037382792215794325,-0.006310626398772001
1773790256681678300,14.32667822265625,-0.0006370281334966421,-0.003260774305090308,-0.006333795841783285
1773790256701642200,14.346642333984375,-0.0011467571603134274,-0.0023784691002219915,-0.00526773277670145
1773790256721605400,14.36660546875,-0.0003020024741999805,-0.003070891136303544,-0.0060091568157076836
1773790256741569300,14.3865693359375,-0.00014940333494450897,-0.002668753731995821,-0.0043835630640387535
1773790256761532400,14.406532470703125,-0.001585912425071001,-0.003305249148979783,-0.005985986907035112
1773790256781496300,14.426496337890624,0.0015912387752905488,-0.002855707658454776,-0.0057162088342010975
1773790256801460200,14.446460205078125,-0.0015022892039269209,-0.0041734399273991585,-0.00589597225189209
1773790256821423400,14.46642333984375,-0.0018101505702361465,-0.004157727118581533,-0.006313023157417774
1773790256841387300,14.48638720703125,-0.0007600661483593285,-0.002888730727136135,-0.005666407756507397
1773790256861350400,14.506350341796875,-0.00018482338055036962,-0.004036020487546921,-0.005623531062155962
1773790256881314300,14.526314208984376,-0.0008929579053074121,-0.0025875272694975138,-0.00694951880723238
1773790256901277200,14.546277099609375,-0.00022157499915920198,-0.002108957152813673,-0.006398777011781931
1773790256921241300,14.566241455078124,0.00024314661277458072,-0.003459978848695755,-0.005358280148357153
1773790256941204200,14.586204345703125,-0.00039974047103896737,-0.0031321437563747168,-0.006517554167658091
1773790256961168400,14.60616845703125,0.0006372944335453212,-0.004406466148793697,-0.0044996771030128
1773790256981131300,14.62613134765625,-0.0007281082216650248,-0.0026794064324349165,-0.005343366414308548
1773790257001095200,14.64609521484375,0.00038748994120396674,-0.0033270870335400105,-0.005595833994448185
1773790257021058300,14.666058349609376,0.00017017599020618945,-0.0030629015527665615,-0.006994792725890875
1773790257041022200,14.686022216796875,0.0002700445184018463,-0.00370099488645792,-0.006866428069770336
1773790257060985300,14.7059853515625,0.0013006879016757011,-0.002238120650872588,-0.006066414527595043
1773790257080949200,14.72594921875,-0.0008085357258096337,-0.0033867419697344303,-0.0062544336542487144
1773790257100912400,14.745912353515624,-0.00040000680019147694,-0.002127599436789751,-0.00566853815689683
1773790257120876300,14.765876220703126,0.00025992453447543085,-0.0037816886324435472,-0.006060022860765457
1773790257140840200,14.785840087890625,-0.0006532734259963036,-0.00321869645267725,-0.005167597904801369
1773790257160803300,14.80580322265625,0.0005840312223881483,-0.003602457931265235,-0.006163353566080332
1773790257180767200,14.825767333984375,-0.0002849582233466208,-0.0018229337874799967,-0.0062701464630663395
1773790257200730400,14.84573046875,0.0014511564513668418,-0.0036647759843617678,-0.00560968229547143
1773790257220694300,14.8656943359375,0.0007579356315545738,-0.0020271982066333294,-0.004501541145145893
1773790257240657400,14.885657470703125,0.00019041601626668125,-0.0033513219095766544,-0.005345230456441641
1773790257260621300,14.905621337890626,-0.0008873652550391853,-0.0019017633749172091,-0.005900499876588583
1773790257280584400,14.92558447265625,0.0010365023044869304,-0.0029792783316224813,-0.006302637048065662
1773790257300548400,14.94554833984375,-0.0012319782981649041,-0.004063451196998358,-0.006404902320355177
1773790257320511200,14.96551123046875,-0.0010719223646447062,-0.004055728204548359,-0.006105030421167612
1773790257340475400,14.985475341796874,-0.0011973571963608265,-0.0036016590893268585,-0.0054970309138298035
1773790257360438300,15.005438232421875,-0.0005573995877057314,-0.0036847495939582586,-0.006310626398772001
1773790257380402400,15.02540234375,0.00003328951424919069,-0.002788063371554017,-0.006072539836168289
1773790257400365300,15.045365234375,0.0006053365068510175,-0.0021611552219837904,-0.005886384751647711
1773790257420329500,15.06532958984375,0.0010807107901200652,-0.0038956720381975174,-0.005972937680780888
1773790257440292600,15.085292724609374,-0.0011179950088262558,-0.0029646309558302164,-0.004613926634192467
1773790257460256500,15.105256591796875,0.0005147890187799931,-0.003596332622691989,-0.006387591827660799
1773790257480219600,15.1252197265625,-0.0007890945998951793,-0.00392736354842782,-0.005644570104777813
1773790257500183600,15.14518359375,-0.0007033408619463444,-0.0032860743813216686,-0.005690109916031361
1773790257520147500,15.1651474609375,-0.000035420041967881843,-0.004018177278339863,-0.005272259935736656
1773790257540110600,15.185110595703126,0.0009139968897216022,-0.0031228226143866777,-0.0052022188901901245
1773790257560074500,15.205074462890625,-0.0007456850726157427,-0.0027601001784205437,-0.005625395104289055
1773790257580037600,15.22503759765625,-0.0005715143634006381,-0.0028189560398459435,-0.004501541145145893
1773790257600001500,15.24500146484375,-0.0002412823960185051,-0.0023086944129318,-0.0051630702801048756
1773790257619964700,15.264964599609375,0.000013582121027866378,-0.002923884429037571,-0.00350418733432889
1773790257639928600,15.284928466796876,-0.00028389296494424343,-0.0032352081034332514,-0.005016330163925886
1773790257659891700,15.3048916015625,-0.0010167949367314577,-0.0022327941842377186,-0.004854409955441952
1773790257679855600,15.324855712890624,-0.0013041499769315124,-0.0039113848470151424,-0.006070143077522516
1773790257699818500,15.344818603515625,0.000254331884207204,-0.0032985913567245007,-0.007666974328458309
1773790257719782700,15.36478271484375,-0.0002103897277265787,-0.0024045680183917284,-0.006208361126482487
1773790257739745500,15.38474560546875,0.0003605920064728707,-0.001716939965263009,-0.004710066597908735
1773790257759709700,15.404709716796875,-0.0006548712844960392,-0.0023007048293948174,-0.005399026442319155
1773790257779672600,15.424672607421876,-0.001023452845402062,-0.0024639565963298082,-0.004850415047258139
1773790257799636500,15.444636474609375,-0.00006711165769957006,-0.0022538332268595695,-0.00561181316152215
1773790257819599600,15.464599609375,-0.0017041567480191588,-0.0032431974541395903,-0.00577852688729763
1773790257839563500,15.4845634765625,-0.0007765777409076691,-0.002915362361818552,-0.005055745132267475
1773790257859526700,15.504526611328124,-0.0004679173871409148,-0.00381391285918653,-0.00615270109847188
1773790257879490600,15.524490478515625,-0.0005664543714374304,-0.0032557144295424223,-0.004316984210163355
1773790257899453700,15.54445361328125,0.00011078749957960099,-0.0032501218374818563,-0.005593437235802412
1773790257919417600,15.56441748046875,-0.0007424892974086106,-0.003977963700890541,-0.0058067562058568
1773790257939380700,15.584380615234375,0.00006391586794052273,-0.004442152567207813,-0.006381200160831213
1773790257959344600,15.6043447265625,-0.0003251719754189253,-0.004463457968086004,-0.004234692547470331
1773790257979307800,15.624307861328125,0.00005912217602599412,-0.0018578211311250925,-0.005501558072865009
1773790257999271700,15.644271728515625,-0.0006825681775808334,-0.001972603378817439,-0.0075194351375103
1773790258019235600,15.664235595703126,0.00004660531703848392,-0.0024173513520509005,-0.004670917987823486
1773790258039198700,15.68419873046875,-0.0006791060441173613,-0.0020042951218783855,-0.006962035782635212
1773790258059162600,15.70416259765625,-0.0007925567333586514,-0.0014165353495627642,-0.006967628374695778
1773790258079125800,15.724125732421875,-0.0003531351685523987,-0.0029465213883668184,-0.005764145869761705
1773790258099089700,15.744089599609374,-0.0012301141396164894,-0.002508431440219283,-0.005543902516365051
1773790258119052500,15.764052490234375,-0.0004956142511218786,-0.0021555626299232244,-0.005811550188809633
1773790258139016700,15.7840166015625,-0.0012490225490182638,-0.002770220162346959,-0.004005394410341978
1773790258158979600,15.8039794921875,0.0008969526388682425,-0.0021222729701548815,-0.005828594323247671
1773790258178943700,15.82394384765625,-0.0026312030386179686,-0.0029321403708308935,-0.006518885493278503
1773790258198906600,15.84390673828125,0.0006178533658385277,-0.0036368127912282944,-0.006638461723923683
1773790258218870500,15.86387060546875,-0.0005419532535597682,-0.004057858604937792,-0.004860002547502518
1773790258238833700,15.883833740234374,0.00004713794987765141,-0.004465854726731777,-0.004904743749648333
1773790258258797600,15.903797607421875,-0.0004647216119337827,-0.0013480921043083072,-0.0070310113951563835
1773790258278760700,15.9237607421875,-0.002171807922422886,-0.0038434739690274,-0.005407814867794514
1773790258298724600,15.943724609375,-0.00044288369826972485,-0.00205276464112103,-0.005382781382650137
1773790258318687700,15.963687744140625,-0.0008311725687235594,-0.00376064982265234,-0.005307413637638092
1773790258338651600,15.983651611328124,-0.0003608583356253803,-0.0024764735717326403,-0.006411560345441103
1773790258358614500,16.003614501953123,-0.0008495483780279756,-0.004107926040887833,-0.005349491722881794
1773790258378578700,16.02357861328125,-0.001966744428500533,-0.002257827902212739,-0.006740993354469538
1773790258398541600,16.04354150390625,-0.0013970943400636315,-0.002614957746118307,-0.006931941956281662
1773790258418505700,16.063505615234376,-0.0008913599886000156,-0.0025007082149386406,-0.004972920753061771
1773790258438468600,16.083468505859376,0.0003944141499232501,-0.0035750274546444416,-0.005111671518534422
1773790258458432800,16.103432861328123,-0.0010064085945487022,-0.002743322169408202,-0.006362824235111475
1773790258478395600,16.123395751953126,-0.0007305050967261195,-0.0032173648942261934,-0.003756921272724867
1773790258498359800,16.14335986328125,-0.0007366303470917046,-0.0031912659760564566,-0.004990497604012489
1773790258518322700,16.16332275390625,0.0000029294772048160667,-0.00299259414896369,-0.005097290500998497
1773790258538286600,16.18328662109375,-0.0014093448407948017,-0.0033214944414794445,-0.005816610064357519
1773790258558249700,16.203249755859375,0.0006343649583868682,-0.0029670277144759893,-0.0044229780323803425
1773790258578213600,16.223213623046874,0.0006833671359345317,-0.003094060579314828,-0.005575061310082674
1773790258598176800,16.2431767578125,-0.00009321063407696784,-0.0024282701779156923,-0.004911401774734259
1773790258618140700,16.263140625,0.0002980077115353197,-0.0036509274505078793,-0.005023787263780832
1773790258638103800,16.283103759765623,-0.0007307713967747986,-0.0018492990639060736,-0.005498095881193876
1773790258658067700,16.303067626953126,-0.0009118663729168475,-0.002941727638244629,-0.0065292720682919025
1773790258678030800,16.32303076171875,-0.0011574097443372011,-0.004181695636361837,-0.0054696002043783665
1773790258697994800,16.342994873046877,-0.0010223875287920237,-0.003644536016508937,-0.004984638653695583
1773790258717958700,16.362958740234376,-0.0012868394842371345,-0.0032860743813216686,-0.00618066405877471
1773790258737921800,16.382921875,-0.00013608753215521574,-0.0028783443849533796,-0.004355600103735924
1773790258757885700,16.4028857421875,-0.0016887104138731956,-0.0028133634477853775,-0.00740225613117218
1773790258777848800,16.422848876953125,-0.00039175100391730666,-0.0037593182642012835,-0.006455236114561558
1773790258797812700,16.442812744140625,-0.0003701793903019279,-0.0032895365729928017,-0.004759334959089756
1773790258817775600,16.462775634765624,0.0008796420879662037,-0.0021869877818971872,-0.00577772781252861
1773790258837739800,16.48273974609375,0.00040187101694755256,-0.0031795480754226446,-0.007186539936810732
1773790258857702700,16.50270263671875,0.001389637473039329,-0.002912699244916439,-0.00612260727211833
1773790258877666800,16.522666748046873,0.0004524710529949516,-0.0038535939529538155,-0.006006493698805571
1773790258897629700,16.542629638671876,0.0003683151735458523,-0.003254116512835026,-0.00598572101444006
1773790258917593600,16.562593505859375,0.000045540054998127744,-0.0031364047899842262,-0.00580755528062582
1773790258937556700,16.582556640625,-0.0008218514849431813,-0.0022413162514567375,-0.007170561235398054
1773790258957520600,16.602520751953126,-0.0002825613773893565,-0.0031403994653373957,-0.005673864856362343
1773790258977483800,16.62248388671875,0.0005789712304249406,-0.0025936525780707598,-0.005745237227529287
1773790258997447700,16.64244775390625,-0.00038642468280158937,-0.0028162929229438305,-0.005662679206579924
1773790259017410800,16.662410888671875,-0.0017291904659941792,-0.0029356025625020266,-0.0060059609822928905
1773790259037374700,16.682374755859374,0.0005677859298884869,-0.0037180392537266016,-0.005108742043375969
1773790259057337900,16.702337890625,-0.0006444850005209446,-0.003114833263680339,-0.006991863250732422
1773790259077301800,16.7223017578125,-0.0017148094484582543,-0.0019238675013184547,-0.005792641546577215
1773790259097264600,16.7422646484375,0.0005046690348535776,-0.0027691549621522427,-0.006256031803786755
1773790259117228800,16.762228759765627,0.0006439523422159255,-0.0029915287159383297,-0.006412891671061516
1773790259137191700,16.782191650390626,-0.0008500810363329947,-0.003495132550597191,-0.004584898240864277
1773790259157155800,16.80215576171875,-0.0003779025573749095,-0.0035420041531324387,-0.005090366117656231
1773790259177118700,16.82211865234375,0.0004213120846543461,-0.0030839405953884125,-0.005890912376344204
1773790259197083000,16.842082763671876,-0.000013315805517777335,-0.0026173547375947237,-0.00512951472774148
1773790259217045800,16.862045654296875,0.000627707049716264,-0.003721501212567091,-0.005608350969851017
1773790259237009700,16.882009765625,-0.0009864348685368896,-0.003997138235718012,-0.005906358826905489
1773790259256972800,16.901972900390625,-0.0004189152386970818,-0.0030511836521327496,-0.006416353862732649
1773790259276935700,16.921935791015624,0.00013422331539914012,-0.003718838095664978,-0.006494384724646807
1773790259296899800,16.94189990234375,0.0002788329729810357,-0.0046698530204594135,-0.005022988189011812
1773790259316862500,16.961862548828126,0.0008008125587366521,-0.0022389194928109646,-0.00449754623696208
1773790259336827000,16.981826904296874,-0.001094825565814972,-0.003465305082499981,-0.0043321643024683
1773790259356789500,17.00178955078125,0.00017603494052309543,-0.0030722226947546005,-0.005091963801532984
1773790259376753700,17.021753662109376,-0.00043036683928221464,-0.0030072415247559547,-0.006917827297002077
1773790259396716500,17.041716552734375,0.00046845004544593394,-0.004175570327788591,-0.0046970173716545105
1773790259416680400,17.061680419921874,0.00014168016787152737,-0.00270710326731205,-0.005767075344920158
1773790259436643300,17.081643310546873,0.0012868394842371345,-0.0021792647894471884,-0.0043651871383190155
1773790259456607200,17.101607177734376,0.000294545607175678,-0.0031561122741550207,-0.006363090593367815
1773790259476570400,17.1215703125,-0.0016506272368133068,-0.002990197157487273,-0.006981210317462683
1773790259496534300,17.1415341796875,0.0007129282457754016,-0.0013273194199427962,-0.005637113004922867
1773790259516497400,17.161497314453126,-0.0008319715270772576,-0.0029081718530505896,-0.0070099723525345325
1773790259536461300,17.18146142578125,-0.0011965582380071282,-0.00333134806714952,-0.005215002223849297
1773790259556424400,17.201424560546876,0.0005470133037306368,-0.0035430695861577988,-0.00507092522457242
1773790259576388400,17.221388427734375,0.0006261091912165284,-0.0022897860035300255,-0.005390238016843796
1773790259596351500,17.2413515625,-0.0010378338629379869,-0.00310577847994864,-0.006792126223444939
1773790259616315400,17.2613154296875,0.00004873584839515388,-0.002261822810396552,-0.006478671915829182
1773790259636278300,17.2812783203125,0.00033875409280881286,-0.0026996464002877474,-0.005029113497585058
1773790259656242400,17.301242431640624,-0.0011640676530078053,-0.002231995342299342,-0.0048826392740011215
1773790259676205300,17.321205322265627,0.0005123922019265592,-0.0024895230308175087,-0.006207562051713467
1773790259696169500,17.34116943359375,-0.0003147856332361698,-0.0041007352992892265,-0.005840844940394163
1773790259716132400,17.36113232421875,0.00012144014181103557,-0.003686347510665655,-0.006551908794790506
1773790259736096300,17.38109619140625,0.0002719087351579219,-0.0023188143968582153,-0.004647482186555862
1773790259756059400,17.401059326171875,-0.0001608549355296418,-0.002280997345224023,-0.0059777311980724335
1773790259776023300,17.421023193359375,0.0004894890007562935,-0.0032147017773240805,-0.0041468082927167416
1773790259795986400,17.440986328125,-0.0001203748834086582,-0.002642388455569744,-0.005097290500998497
1773790259815950300,17.460950439453125,-0.0006977482116781175,-0.0035028557758778334,-0.005398227367550135
1773790259835913500,17.48091357421875,0.0007795072160661221,-0.0033009881153702736,-0.005763346794992685
1773790259855877400,17.50087744140625,-0.0002002697146963328,-0.0023465112317353487,-0.006406500469893217
1773790259875840500,17.520840576171874,-0.0010894992155954242,-0.003950000274926424,-0.005066663958132267
1773790259895804400,17.540804443359374,0.0003760383406188339,-0.0023877902422100306,-0.0062427157536149025
1773790259915767600,17.560767578125,-0.001966744428500533,-0.0025771409273147583,-0.006770021747797728
1773790259935731500,17.5807314453125,-0.0008404936525039375,-0.003456783015280962,-0.006451241206377745
1773790259955694300,17.6006943359375,-0.00023995080846361816,-0.0039015309885144234,-0.005350556690245867
1773790259975658500,17.620658447265626,-0.0013550163712352514,-0.003254915354773402,-0.005061870440840721
1773790259995621400,17.640621337890625,-0.0006926882197149098,-0.0029939257074147463,-0.0059569585137069225
1773790260015585500,17.66058544921875,0.000022636868379777297,-0.002353701740503311,-0.005545233841985464
1773790260035548400,17.68054833984375,-0.0004040015337523073,-0.003139067906886339,-0.0051843756809830666
1773790260055512300,17.70051220703125,0.0007760451408103108,-0.003590473672375083,-0.006326339207589626
1773790260075475500,17.720475341796874,0.0006109291571192443,-0.0034698324743658304,-0.006208627484738827
1773790260095439400,17.740439453125,-0.00022157499915920198,-0.0044200485572218895,-0.005763613153249025
1773790260115402500,17.760402587890624,-0.0004367584188003093,-0.00355931487865746,-0.005629123654216528
1773790260135366400,17.780366455078124,0.0006591323763132095,-0.003623230615630746,-0.006619819439947605
1773790260155329500,17.80032958984375,-0.001002413802780211,-0.0025305356830358505,-0.005318598821759224
1773790260175293400,17.82029345703125,0.0009960222523659468,-0.003677292726933956,-0.006886401679366827
1773790260195256300,17.84025634765625,-0.0012546151410788298,-0.003771568648517132,-0.004640824627131224
1773790260215220500,17.860220458984376,-0.0004439489566721022,-0.0035888757556676865,-0.006573746912181377
1773790260235183400,17.880183349609375,-0.0006079996819607913,-0.002040780382230878,-0.006583333946764469
1773790260255147500,17.9001474609375,-0.0005352954030968249,-0.0028855351265519857,-0.0054328483529388905
1773790260275110100,17.920110107421873,0.0009512811084277928,-0.003082609036937356,-0.005066397599875927
1773790260295074600,17.940074462890625,0.00021305288828443736,-0.002528138691559434,-0.006317817140370607
1773790260315037200,17.960037109375,-0.00044847631943412125,-0.0027832696214318275,-0.005145227070897818
1773790260335001300,17.98000146484375,0.0000673779723001644,-0.0029933929909020662,-0.006503173150122166
1773790260354964200,17.999964111328126,0.0003382214636076242,-0.0026849990244954824,-0.005420331843197346
1773790260374927400,18.01992724609375,-0.0005273058777675033,-0.00285011506639421,-0.005155347287654877
1773790260394891300,18.039891357421876,-0.00006711165769957006,-0.003041330026462674,-0.007029413711279631
1773790260414854400,18.0598544921875,0.0008532768115401268,-0.004040015395730734,-0.005935919936746359
1773790260434818800,18.07981884765625,0.00002103897168126423,-0.0026900589000433683,-0.006205165293067694
1773790260454781700,18.09978173828125,0.0004820321628358215,-0.00293320557102561,-0.0057558901607990265
1773790260474745900,18.119745849609377,0.0004319647268857807,-0.002290851203724742,-0.0056983656249940395
1773790260494708700,18.139708740234376,-0.0006434197421185672,-0.004543619230389595,-0.005855225957930088
1773790260514672600,18.159672607421875,-0.0006056028068996966,-0.0025355955585837364,-0.006641923915594816
1773790260534635800,18.1796357421875,-0.0010423612548038363,-0.00247540813870728,-0.006110356654971838
1773790260554599700,18.199599609375,0.00009933590627042577,-0.003884486621245742,-0.006625145673751831
1773790260574562800,18.219562744140624,-0.0006809702608734369,-0.002198705682530999,-0.005997705273330212
1773790260594526700,18.239526611328124,-0.0010636665392667055,-0.004130030050873756,-0.005270662251859903
1773790260614489900,18.25948974609375,-0.00016405072528868914,-0.0034495925065129995,-0.005614476278424263
1773790260634453800,18.279453857421874,0.0007166566210798919,-0.002683401107788086,-0.004294081125408411
1773790260654417000,18.2994169921875,-0.0009864348685368896,-0.0038453382439911366,-0.005851497408002615
1773790260674380800,18.319380859375,0.0011182613670825958,-0.003344397759065032,-0.004736431874334812
1773790260694343700,18.33934375,-0.00033342777169309556,-0.003483148291707039,-0.003953728824853897
1773790260714307800,18.359307861328126,0.0003347593592479825,-0.003436543047428131,-0.005410744342952967
1773790260734270700,18.379270751953126,-0.0013584784464910626,-0.0036762275267392397,-0.005003546830266714
1773790260754235000,18.39923486328125,0.00012676646292675287,-0.0036125779151916504,-0.007931958884000778
1773790260774197800,18.41919775390625,0.0009179916232824326,-0.003743072971701622,-0.006144711747765541
1773790260794162000,18.439161865234375,0.0009885653853416443,-0.004083957523107529,-0.006356698926538229
1773790260814124800,18.459124755859374,-0.0007491472060792148,-0.0033862092532217503,-0.005458681378513575
1773790260834088700,18.479088623046874,0.0007398261222988367,-0.0028602350503206253,-0.007559915538877249
1773790260854051800,18.4990517578125,0.00048655952559784055,-0.0034405377227813005,-0.005650429055094719
1773790260874015700,18.519015625,0.0009957558941096067,-0.0031590417493134737,-0.0054363105446100235
1773790260893979000,18.538978759765627,-0.0010351707460358739,-0.003349990351125598,-0.005362274590879679
1773790260913942800,18.55894287109375,0.0007451524725183845,-0.0031760858837515116,-0.005851763766258955
1773790260933906000,18.578906005859373,-0.0009480853332206607,-0.002628007438033819,-0.004816859494894743
1773790260953869800,18.598869873046876,-0.00036139096482656896,-0.0028791434597223997,-0.005932191386818886
1773790260973833000,18.6188330078125,-0.0006388923502527177,-0.002998719457536936,-0.00592526700347662
1773790260993796900,18.638796875,-0.0011382350930944085,-0.0035025894176214933,-0.006910103838890791
1773790261013759500,18.658759521484374,-0.00045087316539138556,-0.004253068007528782,-0.007208111695945263
1773790261033724000,18.678723876953125,0.0005696501466445625,-0.0037824877072125673,-0.007690676487982273
1773790261053686500,18.6986865234375,0.00036378781078383327,-0.0022149509750306606,-0.00672288378700614
1773790261073651000,18.71865087890625,-0.0007560714147984982,-0.0031760858837515116,-0.006203034892678261
1773790261093613600,18.738613525390626,0.0003020024741999805,-0.0028815402183681726,-0.005662412848323584
1773790261113577700,18.75857763671875,-0.0002743055811151862,-0.0034080471377819777,-0.004972654394805431
1773790261133540600,18.77854052734375,-0.00002103897168126423,-0.0032256206031888723,-0.005764412228018045
1773790261153504500,18.79850439453125,-0.0002692455891519785,-0.00290444353595376,-0.005802495405077934
1773790261173467600,18.818467529296875,0.00019467707898002118,-0.002945189829915762,-0.005349758081138134
1773790261193431600,18.838431640625,-0.00035712990211322904,-0.0021145499777048826,-0.006265086587518454
1773790261213394700,18.858394775390625,0.0005715143634006381,-0.0004269047058187425,-0.005096491426229477
1773790261233357600,18.878357666015624,-0.00162426196038723,-0.0030751521699130535,-0.006223008502274752
1773790261253321700,18.89832177734375,0.0004900216590613127,-0.0024546354543417692,-0.006184658966958523
1773790261273284600,18.91828466796875,-0.0006601976347155869,-0.002317216480150819,-0.006675479467958212
1773790261293248800,18.938248779296874,-0.0007310376968234777,-0.002478870330378413,-0.005185973364859819
1773790261313211600,18.958211669921877,0.0005656554130837321,-0.0027142937760800123,-0.0072837453335523605
1773790261333175600,18.978175537109376,-0.0009824400767683983,-0.0023105584550648928,-0.005941246170550585
1773790261353138700,18.998138671875,-0.0002998719282913953,-0.0030722226947546005,-0.006235791835933924
1773790261373102600,19.0181025390625,0.0009121326729655266,-0.002713228575885296,-0.006115949247032404
1773790261393065700,19.038065673828125,-0.0006146575906313956,-0.002275404753163457,-0.00624138442799449
1773790261413029600,19.058029541015625,-0.0017715347930788994,-0.0035563854034990072,-0.007870705798268318
1773790261432992500,19.077992431640624,0.0007414240390062332,-0.002642388455569744,-0.005815278738737106
1773790261452956400,19.097956298828127,0.0007901599165052176,-0.0025180187076330185,-0.006173740141093731
1773790261472919600,19.11791943359375,0.00024474450037814677,-0.0029878003988415003,-0.006783337332308292
1773790261492883500,19.137883544921873,-0.0018458369886502624,-0.0024855281226336956,-0.006476275157183409
1773790261512846600,19.1578466796875,-0.0013161342358216643,-0.0028423918411135674,-0.005072789266705513
1773790261532810500,19.177810546875,-0.0003304982965346426,-0.0008309062686748803,-0.006512760184705257
1773790261552773000,19.197773193359374,-0.001118793967179954,-0.003029079409316182,-0.004954012110829353
1773790261572737500,19.217737548828126,-0.0003818972909357399,-0.0027262780349701643,-0.005983323790132999
1773790261592700200,19.2377001953125,0.000009054747351910919,-0.0038895467296242714,-0.005246427375823259
1773790261612664600,19.25766455078125,0.0005667206714861095,-0.002263953210785985,-0.004935103934258223
1773790261632627200,19.277627197265623,-0.0008399609941989183,-0.0036192359402775764,-0.004442951641976833
1773790261652591400,19.29759130859375,-0.0002364887041039765,-0.0035380094777792692,-0.00635030772536993
1773790261672554200,19.31755419921875,-0.0009100021561607718,-0.0029025792609900236,-0.005587045568972826
1773790261692518100,19.33751806640625,-0.000010918960470007733,-0.0033846113365143538,-0.006548446603119373
1773790261712481300,19.357481201171876,-0.0001882854849100113,-0.0036703685764223337,-0.006030461750924587
1773790261732445200,19.377445068359375,-0.0008588694618083537,-0.0038392129354178905,-0.005113535560667515
1773790261752408300,19.397408203125,-0.001246625673957169,-0.0026873957831412554,-0.00560994865372777
1773790261772372200,19.417372314453125,-0.002223206916823983,-0.0032413334120064974,-0.00544430036097765
1773790261792335400,19.43733544921875,-0.0013251889031380415,-0.0038123151753097773,-0.005419799126684666
1773790261812298200,19.45729833984375,0.00012197277828818187,-0.0034432008396834135,-0.004998220596462488
1773790261832262400,19.477262451171875,-0.001278849900700152,-0.0034844798501580954,-0.006423810962587595
1773790261852225300,19.497225341796874,0.0003070624661631882,-0.0037380128633230925,-0.006048304960131645
1773790261872189200,19.517189208984377,0.0006998787284828722,-0.0023217438720166683,-0.004969458561390638
1773790261892152300,19.53715234375,-0.000568318588193506,-0.002942260354757309,-0.0052951630204916
1773790261912116200,19.5571162109375,0.0006892260862514377,-0.0030626351945102215,-0.005399559158831835
1773790261932079400,19.577079345703126,0.0011725898366421461,-0.0033273533917963505,-0.0068243504501879215
1773790261952043300,19.597043212890625,-0.000859934720210731,-0.0026674221735447645,-0.005905826110392809
1773790261972006400,19.61700634765625,-0.0008660599705763161,-0.002724946476519108,-0.006687463726848364
1773790261991970300,19.63697021484375,-0.0005573995877057314,-0.002576342085376382,-0.00714526092633605
1773790262011933400,19.656933349609375,-0.0009986853692680597,-0.003934021573513746,-0.0065409899689257145
1773790262031897300,19.6768974609375,0.0002567287301644683,-0.002575543010607362,-0.005224322900176048
1773790262051860200,19.696860107421877,-0.0009297095239162445,-0.003169161733239889,-0.006079730577766895
1773790262071824400,19.716824462890624,-0.00044767739018425345,-0.0029672940727323294,-0.005693305749446154
1773790262091787300,19.736787353515624,-0.00035366779775358737,-0.001683650421909988,-0.006268814671784639
1773790262111751400,19.75675146484375,-0.0009749832679517567,-0.0026905916165560484,-0.006418750621378422
1773790262131714300,19.77671435546875,0.000609863898716867,-0.003480218816548586,-0.004746285732835531
1773790262151678200,19.79667822265625,-0.0012836436508223414,-0.0025126924738287926,-0.006927680689841509
1773790262171641300,19.816641357421876,-0.000008788431841821875,-0.0023361248895525932,-0.0054972972720861435
1773790262191605200,19.836605224609375,-0.000049801110435510054,-0.0030024477746337652,-0.0054123420268297195
1773790262211568400,19.856568359375,-0.0002306297537870705,-0.0034136399626731873,-0.006305832881480455
1773790262231532300,19.8765322265625,-0.001253017340786755,-0.003977963700890541,-0.00586774293333292
1773790262251495400,19.896495361328125,-0.0009435579413548112,-0.00264744833111763,-0.004363323096185923
1773790262271458300,19.916458251953124,-0.00016884441720321774,-0.00290364446118474,-0.0065047708339989185
1773790262291422500,19.93642236328125,0.0003432814555708319,-0.001597896683961153,-0.006747651379555464
1773790262311385300,19.95638525390625,-0.00036432043998502195,-0.0030389330349862576,-0.0065476479940116405
1773790262331349200,19.976349365234373,-0.0006002765148878098,-0.003823766717687249,-0.005913282744586468
1773790262351312400,19.9963125,-0.0006647250265814364,-0.002284992253407836,-0.005123655777424574
1773790262371276300,20.0162763671875,0.0005539375124499202,-0.002445314545184374,-0.005392634775489569
1773790262391239400,20.036239501953126,-0.00037497308221645653,-0.0030277478508651257,-0.006521016359329224
1773790262411203300,20.056203369140626,-0.0001430117554264143,-0.0033563817851245403,-0.006072806194424629
1773790262431167200,20.076167236328125,-0.00025060345069505274,-0.003212837502360344,-0.005813414230942726
1773790262451131100,20.096131103515624,-0.0007246461464092135,-0.0017411747248843312,-0.004996889270842075
1773790262471094000,20.116093994140623,-0.0000045273736759554595,-0.0032703618053346872,-0.003552656853571534
1773790262491058200,20.13605810546875,0.0006269080913625658,-0.0024517059791833162,-0.007160973735153675
1773790262511021000,20.15602099609375,0.00006870955257909372,-0.0024732777383178473,-0.004057325888425112
1773790262530985200,20.175985107421877,0.0006482133758254349,-0.002353968098759651,-0.004908738657832146
1773790262550948000,20.195947998046876,-0.001190166687592864,-0.00282082031480968,-0.0062584285624325275
1773790262570912000,20.215912109375,-0.00014194648247212172,-0.003065032185986638,-0.006229666527360678
1773790262590875100,20.235875244140626,-0.00005219795639277436,-0.0020421119406819344,-0.004830974154174328
1773790262610839000,20.255839111328125,-0.0005291700945235789,-0.0028245486319065094,-0.005245894659310579
1773790262630802200,20.27580224609375,-0.00038269624928943813,-0.0019270633347332478,-0.006013683974742889
1773790262650766000,20.29576611328125,-0.0005459480453282595,-0.0031254857312887907,-0.004816593136638403
1773790262670729200,20.315729248046875,-0.001228516222909093,-0.0031755531672388315,-0.006473345682024956
1773790262690693000,20.335693115234374,-0.00042823629337362945,-0.002320678671821952,-0.006383863277733326
1773790262710656300,20.35565625,0.0007827030494809151,-0.0021813951898366213,-0.005790511146187782
1773790262730620200,20.3756201171875,-0.0008551410282962024,-0.0022775353863835335,-0.007285077124834061
1773790262750583300,20.395583251953123,-0.0010665960144251585,-0.0027744811959564686,-0.004807538352906704
1773790262770547200,20.415547119140626,-0.0019057580502703786,-0.0027861990965902805,-0.007149788551032543
1773790262790510000,20.435510009765625,0.00009081379539566115,-0.0031228226143866777,-0.005230980925261974
1773790262810473000,20.455472900390625,0.00034221619716845453,-0.003724164329469204,-0.005843508057296276
1773790262830436900,20.475436767578124,-0.0003579288604669273,-0.002175003755837679,-0.00672368286177516
1773790262850400000,20.49539990234375,-0.0005334311863407493,-0.002929743379354477,-0.006359362509101629
1773790262870364000,20.515364013671874,-0.0008719189208932221,-0.0031403994653373957,-0.006116215605288744
1773790262890327000,20.5353271484375,-0.001868473831564188,-0.002665824256837368,-0.005624329671263695
1773790262910291000,20.555291015625,-0.0014735270524397492,-0.0020160130225121975,-0.005286374595016241
1773790262930254000,20.575254150390624,-0.0007451524725183845,-0.0035782232880592346,-0.0044440170750021935
1773790262950218000,20.595218017578127,0.0002593918761704117,-0.0022082931827753782,-0.007222226355224848
1773790262970180900,20.615180908203126,0.0003249056462664157,-0.003210440743714571,-0.005905293393880129
1773790262990145000,20.63514501953125,-0.0005214469274505973,-0.0022277343086898327,-0.006849916651844978
1773790263010108000,20.65510791015625,0.00020905814017169178,-0.0020695424173027277,-0.006577741354703903
1773790263030072000,20.675072021484375,-0.0031784826423972845,-0.0033939324785023928,-0.005948436446487904
1773790263050035000,20.695034912109374,-0.00004234426160110161,-0.0023518374655395746,-0.005983057431876659
1773790263069999000,20.7149990234375,0.0004242415598127991,-0.0023848607670515776,-0.00689039658755064
1773790263089962000,20.7349619140625,-0.0000929443194763735,-0.003254649229347706,-0.0038573225028812885
1773790263109926000,20.75492578125,-0.002284193178638816,-0.005080778617411852,-0.006527673918753862
1773790263129889000,20.774888916015627,0.0005488775204867125,-0.004288754425942898,-0.0056983656249940395
1773790263149853000,20.79485302734375,0.00022397184511646628,-0.002561694709584117,-0.00552339619025588
1773790263169816000,20.814816162109373,-0.000874582096002996,-0.00287434970960021,-0.005255748517811298
1773790263189780000,20.834780029296876,-0.0005725796218030155,-0.0023790018167346716,-0.005884254351258278
1773790263209743000,20.8547431640625,-0.0006213154993019998,-0.003275688039138913,-0.0059873186983168125
1773790263229707000,20.87470703125,-0.0005259743193164468,-0.003266899613663554,-0.006298908498138189
1773790263249670100,20.894670166015626,0.0002031991898547858,-0.0014474280178546906,-0.005118595436215401
1773790263269634000,20.914634033203125,0.00009081379539566115,-0.0024676851462572813,-0.006484530866146088
1773790263289597000,20.934596923828124,0.0005739112384617329,-0.0035332157276570797,-0.005599562544375658
1773790263309561000,20.95456103515625,-0.0005440838285721838,-0.0030096382834017277,-0.006524744443595409
1773790263329524000,20.97452392578125,-0.0006197175825946033,-0.001770469476468861,-0.004778776317834854
1773790263349488000,20.994488037109374,0.0004037352045997977,-0.0024261397775262594,-0.00666482700034976
1773790263369451000,21.014450927734377,-0.00046871634549461305,-0.003326554549857974,-0.0073196981102228165
1773790263389415000,21.034414794921876,-0.000050600061513250694,-0.0036077843979001045,-0.005057609174400568
1773790263409378000,21.0543779296875,0.00014221279707271606,-0.0029257487040013075,-0.008042479865252972
1773790263429342000,21.074342041015626,-0.000028495824153651483,-0.0025901903863996267,-0.005347893573343754
1773790263449306000,21.09430615234375,0.00005619269722956233,-0.0034232272300869226,-0.00612367270514369
1773790263469269000,21.11426904296875,-0.00010173275222769007,-0.002880208659917116,-0.0046823699958622456
1773790263489232100,21.134232177734376,-0.0011030812747776508,-0.003355316584929824,-0.006058691535145044
1773790263509196000,21.154196044921875,-0.000603738590143621,-0.0028724854346364737,-0.00589757040143013
1773790263529160000,21.174159912109374,0.0008804410463199019,-0.0025776736438274384,-0.006272543221712112
1773790263549123000,21.194123046875,-0.001424791174940765,-0.00307541829533875,-0.006054962985217571
1773790263569087000,21.2140869140625,-0.0008058725506998599,-0.002590989461168647,-0.0067630973644554615
1773790263589050000,21.234050048828124,0.00009028115891851485,-0.003757187630981207,-0.005378253757953644
1773790263609014000,21.254013916015627,0.00017070861940737814,-0.002865028567612171,-0.0036629117093980312
1773790263628977200,21.27397705078125,0.00030360036180354655,-0.0031909996178001165,-0.005075452383607626
1773790263648941000,21.293941162109373,-0.0013587448047474027,-0.0041492050513625145,-0.004930043593049049
1773790263668904200,21.313904296875,-0.0005070658517070115,-0.0027917916886508465,-0.006527673918753862
1773790263688868000,21.3338681640625,-0.0009297095239162445,-0.0032173648942261934,-0.005949768237769604
1773790263708831000,21.3538310546875,-0.000008255799002654385,-0.0021936458069831133,-0.005490106530487537
1773790263728795100,21.373795166015626,-0.00038695731200277805,-0.004254133440554142,-0.0062158177606761456
1773790263748758000,21.393758056640625,-0.0013590110465884209,-0.0024658208712935448,-0.005416869651526213
1773790263768722200,21.41372216796875,-0.0001304948964389041,-0.0030988543294370174,-0.006125270389020443
1773790263788685000,21.43368505859375,-0.0010162622202187777,-0.003850398352369666,-0.006284261122345924
1773790263808649000,21.45364892578125,-0.0007624630234204233,-0.0018788601737469435,-0.006658968050032854
1773790263828612000,21.473612060546873,0.0005416869535110891,-0.00245143985375762,-0.005936984904110432
1773790263848576000,21.493575927734376,-0.001234907773323357,-0.0030573089607059956,-0.0057590859942138195
1773790263868539100,21.5135390625,-0.0003890878288075328,-0.0025888588279485703,-0.0070374030619859695
1773790263888503000,21.5335029296875,0.0003531351685523987,-0.0026226809713989496,-0.004948419518768787
1773790263908466000,21.5534658203125,0.0013528858544304967,-0.0033009881153702736,-0.005881058517843485
1773790263928430000,21.57343017578125,0.0007805725326761603,-0.0029313412960618734,-0.0049500176683068275
1773790263948393000,21.59339306640625,-0.00033342777169309556,-0.003287672298029065,-0.005792907904833555
1773790263968357000,21.613357177734375,0.0002972087822854519,-0.003314570290967822,-0.004905542824417353
1773790263988320000,21.633320068359374,-0.0013102752855047584,-0.0030511836521327496,-0.005382248666137457
1773790264008284200,21.6532841796875,0.0004218447138555348,-0.002912965603172779,-0.006936469115316868
1773790264028246800,21.673246826171876,-0.00004793690095539205,-0.001645300886593759,-0.0059625511057674885
1773790264048211000,21.6932109375,-0.0016943031223490834,-0.0032898029312491417,-0.0055803875438869
1773790264068173800,21.713173828125,-0.0011166634503751993,-0.0028759476263076067,-0.005772667936980724
1773790264088138000,21.733137939453126,-0.0015925703337416053,-0.002987001556903124,-0.00509835546836257
1773790264108100900,21.753100830078125,-0.001109739183448255,-0.002428004052489996,-0.0038330876268446445
1773790264128064800,21.773064697265625,-0.0004444815858732909,-0.0028280108235776424,-0.005045891273766756
1773790264148028000,21.79302783203125,-0.0012258529895916581,-0.0025827335193753242,-0.005940447095781565
1773790264167991800,21.81299169921875,-0.0006460828590206802,-0.003245061729103327,-0.004707403481006622
1773790264187955000,21.832954833984374,0.0004732437082566321,-0.0031153657473623753,-0.0057047572918236256
1773790264207918800,21.8529189453125,-0.0009363674325868487,-0.002971821464598179,-0.00520701240748167
1773790264227882000,21.872882080078124,0.00148125016130507,-0.004133225884288549,-0.005839246790856123
1773790264247846000,21.892845947265624,0.0013371731620281935,-0.0027838023379445076,-0.0065353973768651485
1773790264267809800,21.912809814453126,0.00007403588097076863,-0.002725212834775448,-0.005972937680780888
1773790264287773000,21.93277294921875,-0.0008596684201620519,-0.0023068301379680634,-0.006195577792823315
1773790264307736800,21.95273681640625,-0.000010918960470007733,-0.002907106652855873,-0.0067628310061991215
1773790264327700000,21.972699951171876,0.0005707154050469398,-0.003079146845266223,-0.006171077024191618
1773790264347664000,21.992663818359375,-0.0007038734620437026,-0.0024652881547808647,-0.0051289820112288
1773790264367627000,22.012626953125,-0.001418665866367519,-0.002584597794339061,-0.006177202332764864
1773790264387591000,22.0325908203125,0.0006716492353007197,-0.0026059031952172518,-0.0049156625755131245
1773790264407553800,22.0525537109375,0.00019574233738239855,-0.002371012233197689,-0.00564164062961936
1773790264427517700,22.072517578125,-0.0004324973560869694,-0.004421113524585962,-0.005935387220233679
1773790264447480600,22.09248046875,-0.00015686018741689622,-0.002989398315548897,-0.00643632747232914
1773790264467444700,22.11244482421875,-0.0011004181578755379,-0.0034013893455266953,-0.006346845533698797
1773790264487407600,22.13240771484375,0.000865793670527637,-0.0029438582714647055,-0.006265086587518454
1773790264507371800,22.152371826171876,0.000594950164668262,-0.002153431996703148,-0.005991313606500626
1773790264527334700,22.172334716796875,-0.0005390237784013152,-0.0028786107432097197,-0.004059456288814545
1773790264547298600,22.192298583984375,-0.00042317630141042173,-0.0032860743813216686,-0.006075202953070402
1773790264567261700,22.21226171875,-0.00015952334797475487,-0.002918025478720665,-0.0057620154693722725
1773790264587225600,22.2322255859375,-0.000147272803587839,-0.0033193640410900116,-0.006073605269193649
1773790264607188700,22.252188720703124,-0.0002388855500612408,-0.0032834112644195557,-0.006357231643050909
1773790264627152600,22.272152587890623,0.000803209375590086,-0.0036067189648747444,-0.004736964590847492
1773790264647115800,22.29211572265625,-0.0010186590952798724,-0.00464588450267911,-0.006117014680057764
1773790264667079700,22.31207958984375,0.0006165218073874712,-0.002389654517173767,-0.005612611770629883
1773790264687042800,22.332042724609376,-0.00020985709852539003,-0.0041457428596913815,-0.004454136826097965
1773790264707006700,22.3520068359375,0.00032570460462011397,-0.003531617810949683,-0.005049087107181549
1773790264726969600,22.371969482421875,-0.0012141350889578462,-0.004592621233314276,-0.00649704784154892
1773790264746933800,22.391933837890626,-0.001975000137463212,-0.003412840887904167,-0.005500758998095989
1773790264766896600,22.411896728515625,-0.00098217383492738,-0.00324799120426178,-0.006971356924623251
1773790264786860800,22.43186083984375,-0.002406698651611805,-0.0030423952266573906,-0.006460828706622124
1773790264806824700,22.45182470703125,-0.001891909632831812,-0.0031033814884722233,-0.007218764163553715
1773790264826787600,22.47178759765625,-0.002526008291170001,-0.002186188939958811,-0.0057404437102377415
1773790264846751700,22.491751708984374,-0.00006524744821945205,-0.002110288944095373,-0.0057284594513475895
1773790264866714600,22.511714599609373,-0.0001400822657160461,-0.0029736857395619154,-0.004546015989035368
1773790264886678800,22.5316787109375,-0.0015001586871221662,-0.0028125643730163574,-0.005766542628407478
1773790264906641700,22.5516416015625,-0.00017177389236167073,-0.0031063109636306763,-0.005928196478635073
1773790264926605800,22.571605712890626,-0.0008096009842120111,-0.0035084483679383993,-0.005281048361212015
1773790264946568700,22.591568603515626,0.0014988270122557878,-0.002828276949003339,-0.006073605269193649
1773790264966532600,22.61153271484375,-0.0007896272582001984,-0.0037446708884090185,-0.006172141991555691
1773790264986495700,22.631495849609376,-0.00030413299100473523,-0.0032527849543839693,-0.005878395400941372
1773790265006459600,22.651459716796875,-0.0013619405217468739,-0.003008040366694331,-0.0055090151727199554
1773790265026422800,22.6714228515625,-0.0010610034223645926,-0.0037446708884090185,-0.0049433596432209015
1773790265046386700,22.69138671875,-0.001966744428500533,-0.0021576930303126574,-0.00640889722853899
1773790265066349800,22.711349853515625,-0.00010945591930067167,-0.002481799805536866,-0.00595642626285553
1773790265086313700,22.731313720703124,-0.001002680161036551,-0.003565173828974366,-0.006847253534942865
1773790265106276900,22.75127685546875,-0.0007193197961896658,-0.0030341395176947117,-0.006190784275531769
1773790265126240800,22.77124072265625,-0.00011451592581579462,-0.002781671704724431,-0.005058408249169588
1773790265146203600,22.79120361328125,-0.0016815199051052332,-0.0036133769899606705,-0.005196892656385899
1773790265166167800,22.811167724609376,-0.0015781891997903585,-0.003364105010405183,-0.004576642066240311
1773790265186130700,22.831130615234375,0.0002623213513288647,-0.0044054011814296246,-0.006177734583616257
1773790265206094800,22.8510947265625,-0.0005102616851218045,-0.0029236183036118746,-0.005540973041206598
