time,seconds_elapsed,z,y,x
1773790329693606100,0.055606201171875,0.03382452819049358,0.0029791881990793626,-0.00724606213811785
1773790329713569300,0.0755693359375,0.04549509223997593,-0.018310860580485314,-0.01226427389262244
1773790329733532200,0.0955322265625,0.04459609757363796,0.002238963292088738,-0.0008408712709322571
1773790329753495300,0.115495361328125,0.0273883576631546,-0.01608690092070028,0.00303783332593739
1773790329773458200,0.135458251953125,0.030979660153388974,-0.007649519239319488,0.005133928822353482
1773790329793421300,0.15542138671875,0.0501321043908596,-0.004072556657924724,-0.019950736742001027
1773790329813384200,0.17538427734375,0.04250409373044967,0.0037533275056426643,-0.003396601902041584
1773790329833347300,0.195347412109375,0.03547171087563038,-0.004722344355267705,-0.005070910056121647
1773790329853309200,0.21530908203125,0.043700025516748425,-0.0025993220360192933,0.003252626854088157
1773790329873272000,0.23527197265625,0.03891162219643592,0.0039024031349879805,-0.009448997276183218
1773790329893235200,0.255235107421875,0.038164603221416474,0.0006640785154770128,-0.014321790944319217
1773790329913198300,0.2751982421875,0.03951309522092342,-0.004720683833610383,-0.004686459049489349
1773790329933161200,0.2951611328125,0.037568390893936154,-0.008534282167616765,-0.00669155179420486
1773790329953124400,0.315124267578125,0.04594868122637272,-0.0019310673856351057,0.004521514278743415
1773790329973087200,0.335087158203125,0.03771685945391655,0.001758180195384193,0.0005688311302103102
1773790329993050000,0.355050048828125,0.03577273964881897,-0.0026876807394844945,-0.012659410690050572
1773790330013013200,0.37501318359375,0.03771802849769592,-0.006639040151433437,-0.007735434823948889
1773790330032975000,0.39497509765625,0.03577215512692928,-0.009122343154682312,0.001731609565578401
1773790330052938200,0.414938232421875,0.039811785906553265,-0.010656982543168124,0.0017605068664997814
1773790330072901400,0.4349013671875,0.03831540986895561,-0.009522799443799886,-0.011558536776062101
1773790330092864300,0.4548642578125,0.02409925298988819,-0.006869138563281739,0.000010156067833304404
1773790330112827400,0.474827392578125,0.05477496176064014,0.000016220339733263244,-0.009557937543373555
1773790330132790000,0.4947900390625,0.036219898894429205,0.005031522185582434,-0.016598028780613092
1773790330152753200,0.514753173828125,0.0429518374979496,-0.004192969023433397,-0.002727306072041392
1773790330172716000,0.534716064453125,0.029036124870181083,-0.003338087493457715,-0.003828070388175547
1773790330192679200,0.55467919921875,0.0311310513228178,-0.003096367142474628,0.004702551667764783
1773790330212641300,0.574641357421875,0.03756546828448772,-0.00448500734763511,-0.009069240710977464
1773790330232604200,0.594604248046875,0.02978606645464897,-0.007663373093091649,-0.009753496648091822
1773790330252567300,0.6145673828125,0.04819032267332077,0.0008265190894162515,-0.00488473983425647
1773790330272530400,0.634530517578125,0.03382452819049358,-0.007819541473159915,-0.005446246174536645
1773790330292493000,0.6544931640625,0.04534545463621616,0.00364254348288232,0.004319890759419649
1773790330312456200,0.674456298828125,0.039510757133364674,0.006829337988322367,-0.0005079860547557473
1773790330332419000,0.694419189453125,0.040705519875884055,-0.01077469063870376,-0.008178484150022269
1773790330352382200,0.71438232421875,0.05297346529662609,-0.005822206772392383,-0.011615418062452226
1773790330372344300,0.73434423828125,0.046238604083657264,-0.003680974655484897,-0.0013725304622203111
1773790330392307200,0.75430712890625,0.041598669323325156,0.0017530336628085934,-0.00010715016890317201
1773790330412270300,0.774270263671875,0.05386544570028782,-0.006150735473859822,0.01119492762805894
1773790330432233200,0.794233154296875,0.04054828348755836,0.0008595491427608067,-0.009203041424788535
1773790330452196000,0.814196044921875,0.057009004423022265,-0.012216437854146351,-0.0017694938905537128
1773790330472159200,0.8341591796875,0.04443944570720196,-0.0013703834573789207,-0.017015614871867
1773790330492121900,0.854121826171875,0.06045066930949688,-0.016693938319582956,-0.0007086231933906674
1773790330512085000,0.8740849609375,0.039948564028739926,-0.0010482259874268493,-0.009429963782150297
1773790330532046800,0.894046875,0.03785188401043415,-0.0013962544019246706,-0.009458696686290204
1773790330552009700,0.914009765625,0.0423415966451168,-0.002484324774911511,-0.017127934406232087
1773790330571972900,0.933972900390625,0.0442851319283247,0.002299113106154982,-0.007146857813652604
1773790330591936000,0.95393603515625,0.045180034941434855,0.0031880212022573685,-0.00998038247283548
1773790330611899000,0.97389892578125,0.04727729948163032,-0.007895778768102173,-0.004269019088707864
1773790330631862000,0.993862060546875,0.03665186057090759,-0.011732692333147861,-0.00869291821187362
1773790330651825000,1.013824951171875,0.04473170665204525,-0.0033825391273596323,0.00045305926343426107
1773790330671788000,1.0337880859375,0.03874795606732368,-0.01258604634302901,-0.018786752730235456
1773790330691751000,1.0537509765625,0.038000937092304225,-0.004971289031481137,0.0006076835695654154
1773790330711712800,1.073712646484375,0.030517887860536573,-0.009462092507307533,-0.010689718052279204
1773790330731676000,1.093676025390625,0.058200844556093215,-0.009209984905517193,0.002601305072195828
1773790330751638800,1.113638671875,0.03156593560874462,-0.008026818985957652,-0.0025211342417635024
1773790330771602000,1.133601806640625,0.03949848217368126,-0.009815677447395863,-0.012336553677543997
1773790330791565000,1.15356494140625,0.04428805453777313,-0.0032327248541419973,-0.0010302563631907106
1773790330811528000,1.17352783203125,0.04249181877076626,-0.009653557104687205,0.005142751449625939
1773790330831491000,1.193490966796875,0.03815115921795368,0.0036867548006557626,0.007732073823083192
1773790330851454000,1.213453857421875,0.034710663375258445,0.0031780726282784597,-0.0031115013503469524
1773790330871415800,1.233415771484375,0.03396364440023899,0.001805445982524543,-0.010059895716141909
1773790330891379000,1.25337890625,0.04833002340495586,-0.0005428648583641916,0.0006601261428557336
1773790330911341800,1.273341796875,0.06000292554199695,-0.0062786949645291315,-0.0031488011534325775
1773790330931305000,1.293304931640625,0.03336801659464836,0.003637518535426352,-0.006647438657842576
1773790330951267800,1.313267822265625,0.03830664204061031,0.0005964259576729091,0.005584321204666048
1773790330971231000,1.33323095703125,0.05027823486328125,0.0010554116394559969,-0.002519106681458652
1773790330991194000,1.353194091796875,0.0401022932857275,-0.01003778092410066,0.003350168944429606
1773790331011156700,1.37315673828125,0.03965221143066883,0.004901052789884852,-0.0058533291380852455
1773790331031120000,1.393119873046875,0.040998365342617034,-0.005980311952042393,-0.003431289622932672
1773790331051082000,1.41308203125,0.03142214322388172,-0.01284622936588712,0.0031230639239773154
1773790331071044900,1.433044921875,0.04563771558105945,0.0007133864902400091,-0.00629581220857799
1773790331091008000,1.453008056640625,0.05356792405843734,-0.010528764470061286,-0.007035122801177203
1773790331110971000,1.472970947265625,0.03082300828695297,-0.012032568045577499,-0.002393452741485089
1773790331130934000,1.49293408203125,0.0502758967757225,-0.009653530846867943,-0.008202449547499418
1773790331150897200,1.512897216796875,0.042194297128915786,-0.004022462732403073,0.0021765768541023136
1773790331170859800,1.53285986328125,0.03755611593425274,0.00046176002017600694,-0.003086458240635693
1773790331190822000,1.55282177734375,0.040398645883798594,0.004162854444260301,-0.009645561027899385
1773790331210785000,1.572784912109375,0.044586160701513285,-0.005928824364222237,-0.006217869867850095
1773790331230748000,1.592747802734375,0.03860124107301235,0.0036855315287713892,-0.010291768243256956
1773790331250711000,1.6127109375,0.04368891960084438,0.0010652291383968985,-0.0025016988889314234
1773790331270674000,1.632673828125,0.04054828348755836,-0.007008197690811357,-0.003062858169339597
1773790331290637000,1.652636962890625,0.0387514631986618,-0.019005099055496976,0.0007640614413656294
1773790331310599700,1.672599609375,0.04234218116700649,-0.0036445630516769596,-0.005635868728812784
1773790331330562800,1.692562744140625,0.03096504710614681,-0.010881024531921139,-0.0005818184759467839
1773790331350525000,1.71252490234375,0.03440788103640079,-0.009665433630504412,-0.00814379642913118
1773790331370487800,1.73248779296875,0.03590308803021908,-0.012137026217184028,0.0007627645334228873
1773790331390451000,1.752450927734375,0.04518120398521423,-0.01340805993315298,-0.003291954217478633
1773790331410414000,1.7724140625,0.03979483477175236,0.001178069904744916,-0.001089877595938742
1773790331430377000,1.792376953125,0.04562894775271415,0.0006215685331451823,0.0030377419943921264
1773790331450339800,1.81233984375,0.04892331312298774,0.005999980200314894,-0.005935819789767265
1773790331470302700,1.832302734375,0.03979541929364204,-0.007160309237803449,-0.004877031451836228
1773790331490265600,1.852265625,0.04533142611086368,0.0017297555352095513,0.0011395619565621018
1773790331510227700,1.872227783203125,0.04174246170818805,0.006693739184713922,0.004015190458111465
1773790331530190600,1.892190673828125,0.04697919331789016,-0.005560621810314478,0.0034390528042800724
1773790331550153700,1.91215380859375,0.038001521614193914,-0.016871023335983046,-0.0028860220314003526
1773790331570116900,1.932116943359375,0.0427905094563961,-0.018257554924092253,-0.011152951649855821
1773790331590079500,1.95207958984375,0.04443593857586384,-0.0022201578415078985,-0.004830361032206565
1773790331610042600,1.972042724609375,0.03575637303590774,-0.005455667594252736,0.008389807079453021
1773790331630005500,1.992005615234375,0.04593114556968212,-0.007698829711429425,0.006012976679205894
1773790331649968600,2.01196875,0.03934709100425243,0.002050930334816803,-0.00460126498406753
1773790331669930800,2.0319306640625,0.039943303331732745,-0.004841631915714242,-0.003419398255739361
1773790331689893600,2.0518935546875,0.057899231261014934,-0.004826074157800758,-0.008181479824706912
1773790331709856800,2.071856689453125,0.03350947089195251,-0.0047226851360959695,0.0014945676730014382
1773790331729819600,2.091819580078125,0.049371056890487666,0.0015603203919585212,-0.008407854192797094
1773790331749782500,2.111782470703125,0.051014732444286344,-0.0029285796773823674,0.0023841917227953673
1773790331769745700,2.13174560546875,0.04158756340742111,-0.003831040946685243,0.0026831381367519495
1773790331789708500,2.15170849609375,0.04502981281578541,-0.0015880396586515416,0.0009974135395139456
1773790331809670700,2.171670654296875,0.04757482112348079,-0.009418099814420565,0.009583419044502078
1773790331829633800,2.1916337890625,0.04697627070844173,-0.005074074694165028,0.00016731939092278479
1773790331849596700,2.2115966796875,0.03320902664065361,-0.005339298076677369,-0.013273889326583594
1773790331869559800,2.231559814453125,0.041140404161810876,-0.006171083571322378,0.002564735921472311
1773790331889522400,2.2515224609375,0.03216331698000431,-0.006370413527215714,-0.003783865920267999
1773790331909485600,2.271485595703125,0.03979541929364204,0.0029837365100334862,-0.01610396165335551
1773790331929448700,2.29144873046875,0.036055063721537585,-0.000017523526719742222,0.008873316280078142
1773790331949411600,2.31141162109375,0.04787643441855907,-0.005315306421380956,-0.007006791755836457
1773790331969373700,2.331373779296875,0.042191374519467355,0.00047325009939231673,-0.003469904600270092
1773790331989336800,2.3513369140625,0.035755788514018054,-0.006360213506076252,-0.011625610662903636
1773790332009299700,2.3712998046875,0.044433015966415405,-0.0008416251842972997,-0.008704243323486297
1773790332029262600,2.3912626953125,0.042337504991889,-0.0063167482528631805,0.006148476159758866
1773790332049225500,2.4112255859375,0.03769932379722595,-0.011737721276358934,-0.005541998166590929
1773790332069188600,2.431188720703125,0.03021744360923767,0.0019740477254250434,-0.001340619220305234
1773790332089151700,2.45115185546875,0.03739946406781673,-0.0038286055339485756,-0.0014711319984868168
1773790332109114600,2.471114501953125,0.04338555274009704,-0.0009180499943184259,-0.010331333068665117
1773790332129076700,2.49107666015625,0.043237668702006335,-0.015922400249593193,-0.003542805439699441
1773790332149039900,2.511039794921875,0.034707156243920324,-0.0026716369265035607,0.003984210797958076
1773790332169002800,2.531002685546875,0.04847089318037033,-0.0017228060608482337,-0.007197144962474703
1773790332188965600,2.550965576171875,0.043532267734408374,-0.014935848314099711,-0.001487937002815306
1773790332208928500,2.570928466796875,0.04233516690433025,-0.008041341843298869,0.00030599720925092693
1773790332228891600,2.5908916015625,0.04173720101118088,0.007324566738671274,0.0044705695427954195
1773790332248854500,2.6108544921875,0.04652560433149337,0.008738788338837912,-0.003306457666866481
1773790332268816600,2.630816650390625,0.05281096821129322,0.00026565064289752626,-0.010241919485852121
1773790332288779800,2.65077978515625,0.03979249668419361,-0.009551538626983528,0.00010689444057643412
1773790332308742700,2.67074267578125,0.04054010018110275,-0.01551918061040924,0.0026811653753742574
1773790332328705500,2.69070556640625,0.040538931137323375,-0.004313747285945283,-0.0019080803773365914
1773790332348668700,2.710668701171875,0.045326165413856506,-0.0038811480011165258,-0.006016611674707383
1773790332368631600,2.730631591796875,0.03350479471683502,-0.00467024570232752,-0.014247556664329022
1773790332388594700,2.7505947265625,0.02736965296268463,-0.0032068577626458133,-0.008414320466201752
1773790332408557600,2.7705576171875,0.038591888722777364,-0.0010397758216124202,-0.010761376782692969
1773790332428519700,2.790519775390625,0.040535424005985254,-0.012060360234801192,-0.00005308189410716295
1773790332448482800,2.81048291015625,0.04128478106856346,-0.00209910073237188,0.006921250630542636
1773790332468445700,2.83044580078125,0.05565057555139064,-0.005906746104799094,-0.008384710779227316
1773790332488408600,2.85040869140625,0.03874094180464745,0.003236454035299539,0.0005050634453073144
1773790332508372200,2.870372314453125,0.03664484630823135,-0.009953749052592319,0.0008688735227100551
1773790332528335000,2.890335205078125,0.03918634748458862,-0.007278914665771298,-0.0025900347595103086
1773790332548298200,2.91029833984375,0.041730771270394325,-0.004944731530584977,-0.008313344309758395
1773790332568261000,2.93026123046875,0.0430780942261219,0.00030020607575352186,0.007378017954714596
1773790332588223200,2.95022314453125,0.02901099042892456,-0.0025378053882959646,0.006389737569727003
1773790332608186400,2.970186279296875,0.030357144340872763,0.002457779832102824,-0.005552903153095394
1773790332628149200,2.990149169921875,0.04277706545293331,0.0005944548374089209,-0.002571932847239077
1773790332648112400,3.0101123046875,0.040083004063367844,-0.00867545619124139,-0.000426865376252681
1773790332668075000,3.030074951171875,0.0405336704403162,-0.0002538176065934749,0.007092004087567329
1773790332688038100,3.0500380859375,0.03798983117640018,-0.009402648800250608,-0.007263816990517079
1773790332708001000,3.0700009765625,0.043674891075491905,0.003707511892194452,-0.009587236703094094
1773790332727963100,3.089963134765625,0.0448731609493494,0.005106053293094737,0.002004709152225405
1773790332747926300,3.10992626953125,0.038887656798958774,-0.002688120843368233,0.00440185168813914
1773790332767889200,3.12988916015625,0.045619010880589485,-0.008428524804778863,0.0012671703916043043
1773790332787852300,3.149852294921875,0.038137130692601204,-0.0011266930564233916,-0.013859434129577129
1773790332807815400,3.1698154296875,0.02826104884445667,0.0069641022499359675,-0.002490501641482115
1773790332827778000,3.189778076171875,0.04187807078659534,0.0019493017286469692,0.010972736244741826
1773790332847741200,3.2097412109375,0.02542027246057987,-0.005477005497337086,0.006368603450153023
1773790332867703300,3.229703369140625,0.04098141420781612,-0.0023639527950705085,-0.0068869647684507065
1773790332887666200,3.249666259765625,0.04367547559738159,-0.0003629092486848094,-0.0031871238698251542
1773790332907629300,3.26962939453125,0.03125613900721073,-0.002598047675551788,-0.004866162997949868
1773790332927592200,3.28959228515625,0.038138884258270264,-0.010455924137780676,0.006529968024324625
1773790332947555300,3.309555419921875,0.047265609043836594,-0.017331402822770178,0.004664521212317049
1773790332967518200,3.329518310546875,0.030654665982723234,-0.0012034746302932034,0.007862513536028563
1773790332987481000,3.349481201171875,0.041277182283997536,0.0004712378799329599,0.0024450002656318244
1773790333007444200,3.3694443359375,0.04561784183681011,0.0031035338146670256,-0.007960676680877804
1773790333027406300,3.38940625,0.05713993732631206,-0.0035172191927049425,-0.003628529228083789
1773790333047369200,3.409369140625,0.032900399082899094,-0.00964530415792833,-0.007298833504971116
1773790333067332400,3.429332275390625,0.037541502887010574,-0.010450972826383076,-0.0028145276977680623
1773790333087295200,3.449295166015625,0.055198155608773225,-0.009712640622962499,-0.005908182864170521
1773790333107258400,3.46925830078125,0.041729017704725264,0.0024914711829173027,0.0045094037158414715
1773790333127221000,3.489220947265625,0.03963526029586792,-0.015314587674220092,0.004289824414718896
1773790333147184000,3.50918408203125,0.03739186528325081,0.00890237455284805,-0.004318922645039856
1773790333167146200,3.529146240234375,0.044423663616180414,0.0032039722566376437,-0.013946637488994747
1773790333187109000,3.549109130859375,0.04412438840866088,0.0016875597904756432,-0.0021464739767834543
1773790333207072300,3.569072265625,0.029759762969613072,0.00028458845286622814,0.006362411171384155
1773790333227035400,3.589035400390625,0.02886193734705448,-0.0025309826364537003,-0.006676281159836798
1773790333246998300,3.608998291015625,0.04502396759688854,-0.003858932744375488,0.012871756532788275
1773790333266961200,3.628961181640625,0.037842531660199165,0.007390774688299279,0.009507942655496298
1773790333286924000,3.648924072265625,0.04981529352664947,-0.007384766785087413,0.005201276703830808
1773790333306886100,3.66888623046875,0.04502747472822666,0.0015651772322889882,-0.0034893764857202767
1773790333326849300,3.688849365234375,0.0379933383077383,-0.0036168887372288734,-0.006713654028158635
1773790333346812200,3.708812255859375,0.051012978878617284,-0.007777733316671219,-0.009323781727626919
1773790333366775300,3.728775390625,0.03575052781701088,0.007587606726429658,-0.00398329748250544
1773790333386738200,3.74873828125,0.045927638438344,-0.0069062083250377325,-0.008272464310098438
1773790333406701000,3.768701171875,0.040839375388622284,-0.0025829802538719377,-0.00421336164502427
1773790333426664200,3.788664306640625,0.04263561115562915,0.006950555498484754,-0.0022936456288211045
1773790333446627000,3.808626953125,0.04009177189171314,-0.005270274832166614,-0.0015637787180021404
1773790333466589200,3.828589111328125,0.05131693026125431,0.007669293660513357,0.0006945033364929258
1773790333486552300,3.84855224609375,0.026328619477152822,-0.017415514609380626,-0.007740805118810385
1773790333506515200,3.86851513671875,0.030668109986186024,-0.005024762509588617,-0.005039546803478151
1773790333526478300,3.888478271484375,0.02962006223797798,-0.00601133271139115,-0.005627849819138646
1773790333546441200,3.908441162109375,0.05087035553753376,-0.006073357676246087,0.0014586013104766606
1773790333566404400,3.928404296875,0.03710544955730438,-0.005966771479634917,0.00046449397290125485
1773790333586367500,3.948367431640625,0.04638415003418922,-0.005309764309049933,-0.012639628277346491
1773790333606329000,3.9683291015625,0.03755670045614242,-0.00492237756405957,-0.004933328216336667
1773790333626292200,3.988292236328125,0.04519055633544922,0.005418969437721534,0.004519760713074356
1773790333646255400,4.00825537109375,0.030077742877602575,-0.0082578495503898,-0.01288845193926245
1773790333666218200,4.02821826171875,0.04145020076334476,0.0001877032717993643,0.006736523447092622
1773790333686181400,4.048181396484375,0.03666062839925289,-0.0010703965059812616,-0.0029245274108834563
1773790333706144300,4.068144287109375,0.036811435046792025,0.004547310588292021,0.005363134468346834
1773790333726107400,4.088107421875,0.040703766310214995,-0.005821427600146853,-0.007434424317069351
1773790333746069200,4.1080693359375,0.046239773127436636,-0.004405095670462469,0.0017223120142705738
1773790333766032100,4.1280322265625,0.03950608095824718,-0.0008382932953616546,0.002917093023099005
1773790333785995300,4.147995361328125,0.0375619611531496,-0.00830635345079063,-0.0034581045646220445
1773790333805958100,4.167958251953125,0.050581017202138895,-0.0011890169893835263,0.001169281241390854
1773790333825921300,4.18792138671875,0.03621522271931171,-0.005729251808911795,0.002695705357380211
1773790333845884400,4.207884521484375,0.04474281256794929,0.0008891639671346638,-0.013225611471757291
1773790333865847300,4.227847412109375,0.043994040027260775,-0.008966666823314153,0.001193063975777477
1773790333885809200,4.24780908203125,0.046537879291176795,-0.005088120344182243,-0.003438267352990806
1773790333905772300,4.267772216796875,0.03561199612915516,-0.00008203103281575749,-0.004499813903588801
1773790333925735200,4.287735107421875,0.04683481641113758,-0.002869867478920787,0.012268365545850247
1773790333945698300,4.3076982421875,0.043693011254072184,0.009139531180678749,-0.001240373716223985
1773790333965661200,4.3276611328125,0.03531330544352531,0.0018374725305155151,0.0009890841025859117
1773790333985624300,4.347624267578125,0.04279343206584453,-0.004538844154046091,0.003059698097873479
1773790334005587500,4.36758740234375,0.045637131059169764,0.006616271768021397,-0.011041655028797686
1773790334025549000,4.387549072265625,0.03800561326742172,-0.008317024971032514,-0.0044831184971146285
1773790334045512200,4.40751220703125,0.036358430582284926,0.0011485243639104737,-0.006505911295302212
1773790334065475300,4.427475341796875,0.02902735704183578,-0.008425212894618743,0.00644163215374574
1773790334085438200,4.447438232421875,0.036060324418544766,-0.008982866185333114,0.00031069165067747234
1773790334105401300,4.4674013671875,0.04773030394613743,-0.003733430357684847,0.004593976726755499
1773790334125364200,4.4873642578125,0.04608429030478001,-0.004389328991639195,0.0022065518672578035
1773790334145327400,4.507327392578125,0.03127016753256321,0.0016891272681212285,-0.004982537652924657
1773790334165289500,4.52728955078125,0.04279226302206516,-0.015163973964570322,-0.0018170593593269586
1773790334185252000,4.547252197265625,0.03082300828695297,0.004568974145417451,-0.004637614939082413
1773790334205215200,4.56721533203125,0.036360184147953986,-0.004568464115819369,-0.006602119945082813
1773790334225178400,4.587178466796875,0.043242929399013516,0.0024462323852596454,0.0022474866658449173
1773790334245141200,4.607141357421875,0.047882279637455935,0.008804590433911652,-0.00900980214131996
1773790334265104400,4.6271044921875,0.03845394155681133,-0.00574872597765061,0.0012362272640690207
1773790334285067300,4.6470673828125,0.03531155187785625,-0.005062883154937299,-0.007591478042304515
1773790334305029400,4.667029296875,0.04024959280192852,-0.005655286386157967,-0.0053265105186961585
1773790334324992300,4.6869921875,0.028876550394296645,0.004131390156094858,0.002645180746540427
1773790334344955100,4.706955078125,0.04862929861247539,-0.014107691535912454,-0.00952982569374144
1773790334364918300,4.726918212890625,0.034113282003998754,0.00048196455586585214,0.006702310650236905
1773790334384881200,4.746881103515625,0.045185880160331725,-0.008702547981677343,0.005409695290122181
1773790334404844300,4.76684423828125,0.030970892325043676,-0.006038479300754261,0.005816339862253516
1773790334424807400,4.786807373046875,0.043539281997084615,-0.006979355759639293,-0.0034076895516365765
1773790334444769300,4.806769287109375,0.0421937126070261,-0.0035370798080446545,-0.004204703414533287
1773790334464732200,4.826732177734375,0.03620645489096641,-0.006683527747131302,0.006497271331120282
1773790334484695300,4.8466953125,0.042490649726986886,-0.003925404699251521,-0.003919986455328762
1773790334504658400,4.866658447265625,0.0394967286080122,0.0017222614965095998,-0.004610562535375356
1773790334524621600,4.88662158203125,0.03785129948854446,-0.01216997863871511,-0.0016363324975594876
1773790334544584400,4.90658447265625,0.042938393494486804,-0.007425452705213683,0.0063252757650800046
1773790334564547600,4.926547607421875,0.051315761217474935,0.0007384326681203674,-0.0004222257337532937
1773790334584509700,4.946509765625,0.04652560433149337,-0.013423004057246725,-0.012748093620501458
1773790334604472600,4.96647265625,0.03679916008710861,-0.015503776403656229,0.0077751092472113665
1773790334624435500,4.986435546875,0.034553426986932756,-0.0009377156738912163,0.003338916898053139
1773790334644398300,5.0063984375,0.03470131102502346,-0.016109226916939952,-0.005390022475272416
1773790334664361500,5.026361572265625,0.051609775727987285,0.0004201943203988776,-0.0059549628816545006
1773790334684324600,5.04632470703125,0.0390390479683876,-0.011578149083763128,0.010886592331249266
1773790334704287500,5.06628759765625,0.05400280834436416,-0.0047398306358416445,0.0009993863008916377
1773790334724249600,5.08624951171875,0.03469780389368534,-0.003804654121614294,-0.0035135976115241645
1773790334744212700,5.106212646484375,0.039486207213997836,-0.007521438734352705,-0.0033750293910503387
1773790334764175600,5.126175537109375,0.05175590620040893,-0.005930055056794663,0.0036738296745344994
1773790334784138500,5.146138427734375,0.043078678748011585,-0.017808675220498116,0.0011968999006785452
1773790334804101400,5.166101318359375,0.03769114049077034,-0.0072035998194362036,-0.005945062542147934
1773790334824064500,5.186064453125,0.04187923983037471,-0.006528015812544617,0.007159772094152868
1773790334844027400,5.20602734375,0.03634381753504276,-0.010944354967051186,0.0026152970649302005
1773790334863989500,5.225989501953125,0.03843874398767948,-0.000993255242799205,-0.005171685283165425
1773790334883952600,5.24595263671875,0.03993453550338745,-0.007634257738105952,0.006529328703507781
1773790334903915500,5.26591552734375,0.0388864877551794,0.00007820491892052814,-0.004652812508214265
1773790334923878400,5.28587841796875,0.03275076147913933,-0.007663714444742072,-0.0050742893232963975
1773790334943841500,5.305841552734375,0.03245090174973011,0.0034017963836784474,0.00034715120354667303
1773790334963804400,5.325804443359375,0.04636661437749862,-0.0012543922521886996,-0.00273863118365407
1773790334983767600,5.345767578125,0.037387189108133316,-0.009834556819446151,0.0025575572620145973
1773790335003729700,5.365729736328125,0.04561784183681011,-0.005178502612197189,0.012837799464259296
1773790335023692500,5.385692626953125,0.04576747944056987,-0.01368960768773686,0.0049310814603231844
1773790335043655700,5.40565576171875,0.045318566629290576,-0.008417619818274397,-0.015292261677980422
1773790335063618300,5.425618408203125,0.046965164792537685,-0.002249610409683373,-0.005429477702826261
1773790335083581400,5.44558154296875,0.041277182283997536,-0.0016459148891241056,0.008562131439056247
1773790335103544600,5.465544677734375,0.047862405893206596,-0.007484011637925868,-0.003178337775170803
1773790335123507500,5.485507568359375,0.0330482831209898,-0.01030241293485742,0.011638177883531898
1773790335143469600,5.505469482421875,0.03589139759242534,-0.00777871855571575,-0.017092205505724996
1773790335163432700,5.5254326171875,0.04771276828944683,-0.011140940410009351,0.004922989485412836
1773790335183395600,5.5453955078125,0.030803134542703628,0.00021013290793707708,-0.00910633958466351
1773790335203358700,5.565358642578125,0.04382335963547229,-0.018941615640028612,-0.00861588918659836
1773790335223321300,5.5853212890625,0.03768763335943222,0.002138589067610883,0.0005432217649184167
1773790335243284500,5.605284423828125,0.04337386230230331,-0.002780110831990896,0.0014524090317077933
1773790335263247600,5.62524755859375,0.04112812920212745,-0.01662598993319552,-0.006114884417410939
1773790335283209500,5.64520947265625,0.03499181840419769,0.005334262283600401,-0.0032046777928248045
1773790335303172600,5.665172607421875,0.03394493969976902,-0.017387305719981667,-0.002955963728763163
1773790335323135500,5.685135498046875,0.040381110227108,0.0015596341210191893,0.0036941600765101608
1773790335343098600,5.7050986328125,0.028707623568177222,-0.011792087520321366,0.004229472529608756
1773790335363061500,5.7250615234375,0.04337210873663425,-0.0035337265132780885,-0.001158796379994601
1773790335383024400,5.7450244140625,0.04831131870448589,-0.010926885525730904,-0.004050097374711186
1773790335402986500,5.764986572265625,0.030803134542703628,-0.009283335552806965,-0.0031457506798207757
1773790335422949600,5.78494970703125,0.04816226562261581,-0.0017769465446472166,0.0045835649305954575
1773790335442912500,5.80491259765625,0.04172784866094589,-0.0025077353332511845,0.0029189927192404866
1773790335462875600,5.824875732421875,0.03529460074305534,-0.003694492865828215,0.0037627865996211767
1773790335482838500,5.844838623046875,0.045918286088109016,0.0013072155638583353,-0.001292450963333249
1773790335502800600,5.864800537109375,0.03334755832850933,-0.01215179224476451,-0.015302015887014566
1773790335522763800,5.884763671875,0.037241058635711664,-0.005097979013671284,-0.0057364612927660345
1773790335542726000,5.904725830078125,0.03335223450362682,0.00020951756165086408,-0.004773534544743597
1773790335562688800,5.924688720703125,0.04188099339604377,0.002627625396485382,-0.004750117136538028
1773790335582652000,5.94465185546875,0.035297523352503773,-0.006280949141230667,-0.004502626915182918
1773790335602614800,5.96461474609375,0.031254969963431356,-0.007378410109537071,0.007453165550157428
1773790335622577700,5.98457763671875,0.04397299723923206,0.0017352133085667446,-0.00263615718986839
1773790335642540800,6.004540771484375,0.04921148241460323,-0.009769132608640938,-0.002414440730586648
1773790335662503700,6.024503662109375,0.035894320201873775,0.004337993242513039,-0.012904288829211144
1773790335682465800,6.0444658203125,0.03963526029586792,-0.0039460062417521835,0.006082553050387651
1773790335702429000,6.064428955078125,0.0321551336735487,-0.006685063829558202,-0.0011854469249024987
1773790335722391800,6.084391845703125,0.04292787210047245,-0.013181630766135639,-0.002611972596682608
1773790335742355000,6.10435498046875,0.03454875081181526,-0.008209127025102498,0.005132193522993475
1773790335762317800,6.12431787109375,0.04068506160974502,-0.00802725109833118,-0.007502137524727732
1773790335782280700,6.14428076171875,0.049214405024051666,-0.006134960232704179,0.0011507409377023577
1773790335802242800,6.164242919921875,0.03410159156620502,0.0027253698432818056,-0.005144669412076473
1773790335822205700,6.184205810546875,0.03993570454716682,-0.007483697114916867,0.00660938993608579
1773790335842168800,6.2041689453125,0.04188157791793346,-0.008785020937872468,0.0001533821971155703
1773790335862131700,6.224131591796875,0.04068681517541408,-0.004693204740340297,0.003162062493804842
1773790335882094800,6.2440947265625,0.045474633973836893,-0.003948747044343327,-0.007143679475877434
1773790335902058000,6.26405810546875,0.0402373178422451,-0.00582758734205272,-0.00009233619226142764
1773790335922020600,6.2840205078125,0.04293021018803119,0.0019762662257417104,-0.007716547460388392
1773790335941982700,6.303982666015625,0.037242812201380725,-0.007533270165219437,0.0023805201946757735
1773790335961945900,6.32394580078125,0.027965280768275258,-0.00678376525970234,0.0007352006730623543
1773790335981908700,6.34390869140625,0.05130933147668838,-0.0001585049335424628,0.0004126176551915705
1773790336001872000,6.363871826171875,0.04816460371017456,-0.005250896561550325,-0.007995035608205943
1773790336021834800,6.383834716796875,0.03783960905075073,-0.0032573101644826235,-0.005747603741288185
1773790336041798000,6.4037978515625,0.02946048776209354,-0.002627659645814856,-0.008301051083765923
1773790336061759700,6.423759765625,0.041433834150433536,0.006342508315204759,-0.003498546172864735
1773790336081722600,6.44372265625,0.04756956042647362,0.0023780598084696975,-0.0081797079927288
1773790336101685800,6.463685791015625,0.041434418672323226,0.004564714955886302,-0.0009995324313640593
1773790336121649000,6.48364892578125,0.025420856982469556,-0.0015667609783660736,-0.001315046387631446
1773790336141611800,6.50361181640625,0.03514730122685432,-0.005598224149143789,0.004086429063417017
1773790336161575000,6.523574951171875,0.03858779706954956,-0.006547313026414485,-0.011581515792850404
1773790336181537800,6.543537841796875,0.04053483948409557,-0.00478039582708152,-0.010169183043204248
1773790336201499600,6.563499755859375,0.04098433681726456,0.00658245226763247,0.003115008481685072
1773790336221462800,6.583462890625,0.03634674014449119,-0.009149716360442107,0.010363847098778932
1773790336241425700,6.60342578125,0.04188274696171283,-0.00046265114491725394,0.004123929795902222
1773790336261388800,6.623388916015625,0.03245499340295791,0.0011978186389416804,-0.007828574733808637
1773790336281351700,6.6433515625,0.043377953955531116,-0.000674109501904968,-0.008097034677956253
1773790336301314800,6.663314697265625,0.037541502887010574,-0.007193289629620267,0.006626395869813859
1773790336321278000,6.68327783203125,0.03006196078658104,0.003168245639419183,0.004812697511352599
1773790336341239800,6.70323974609375,0.03440262033939361,-0.0020494112343490997,0.0022280330467037857
1773790336361202700,6.72320263671875,0.03814414495527744,0.00046051741169103475,0.006217888134159148
1773790336381165800,6.743165771484375,0.04233516690433025,0.00043140583840213363,0.0020935016805306078
1773790336401128700,6.763128662109375,0.04547755658328533,-0.012446135548839811,-0.001785367313120514
1773790336421091800,6.783091796875,0.030214520999789236,-0.008695290548761841,0.0001721051638945937
1773790336441054700,6.8030546875,0.04532791897952557,0.0017826242272407397,0.005685991480853408
1773790336461016800,6.823016845703125,0.04458148452639579,-0.003392926092755806,-0.0048785292891785495
1773790336480979700,6.842979736328125,0.04278758684694767,-0.00858180482472817,0.0029422639969736335
1773790336500942600,6.862942626953125,0.04652852694094181,0.007290481235156767,0.005943108047079294
1773790336520905700,6.88290576171875,0.032760698351263995,-0.008718958547894727,-0.012561010083183645
1773790336540868900,6.902868896484375,0.030365327647328376,-0.0021876863376448456,-0.005154478420037776
1773790336560831500,6.92283154296875,0.03620119419395924,-0.005732296574302017,-0.011893595683015882
1773790336580794600,6.942794677734375,0.0432347460925579,0.013633547243609791,-0.0023429646632634102
1773790336600756700,6.9627568359375,0.044880759733915324,-0.006564294985611923,0.0008053798324428498
1773790336620719600,6.9827197265625,0.027521628654003143,-0.005313281144364737,-0.0072164889837615185
1773790336640682800,7.002682861328125,0.034403789383172984,0.004286943475287989,-0.0011557824390009046
1773790336660645600,7.022645751953125,0.04487959069013595,-0.00782027041305555,-0.006894106895290315
1773790336680608800,7.04260888671875,0.04099076655805111,-0.00013229352925591228,-0.0005615246065892278
1773790336700571600,7.062571533203125,0.03949439052045345,0.002405119490159268,-0.01238550738580525
1773790336720533500,7.082533447265625,0.02916998038291931,-0.001455526576923148,-0.0017997794309630988
1773790336740496600,7.10249658203125,0.044131402671337125,-0.00760299380851793,0.008525964147131889
1773790336760459800,7.122459716796875,0.040241994017362594,0.0014679448129681985,0.0022856815180741247
1773790336780422700,7.142422607421875,0.03769640118777752,-0.01378840330353705,0.0022456417686305937
1773790336800385800,7.1623857421875,0.04188683861494064,-0.0034342213655356316,0.002808225821144879
1773790336820348700,7.1823486328125,0.05699789850711822,0.0008678354112631496,-0.0015232823108322917
1773790336840310500,7.202310546875,0.04532674993574619,0.0019900461580444244,-0.01098051769239828
1773790336860273700,7.222273681640625,0.04158522531986236,-0.0017291002313722856,0.00043400750309228895
1773790336880236500,7.242236572265625,0.04562427157759666,-0.006452194646955467,-0.0014721549117937683
1773790336900199700,7.26219970703125,0.035301030483841894,-0.0012062656652342412,-0.0012448124293237923
1773790336920162600,7.28216259765625,0.043380292043089866,-0.0018347248780584777,0.0031355946119874713
1773790336940125700,7.302125732421875,0.033055297383666034,-0.0024153015304007566,-0.0026878143118694423
1773790336960088800,7.3220888671875,0.032007834157347675,-0.009339374305692035,-0.0038934455082751808
1773790336980050700,7.34205078125,0.04233399786055088,0.006089636953367152,-0.005899780362006277
1773790337000013600,7.362013671875,0.045026890206336975,-0.008268025026176474,-0.0025568266096524894
1773790337019976700,7.381976806640625,0.023480244308710096,0.0006276554238731478,-0.004881397099699825
1773790337039939600,7.401939697265625,0.046074937954545016,-0.014338020559912547,-0.009624554772488773
1773790337059902700,7.42190283203125,0.040836452779173846,-0.0014489664032735162,0.0016417210587300359
1773790337079865600,7.441865478515625,0.05265782347619533,0.00026444239077118254,-0.009876209712307899
1773790337099827700,7.46182763671875,0.039190439137816425,-0.004206623089450295,-0.008507624772842974
1773790337119790600,7.48179052734375,0.0379933383077383,0.0005230116280361472,0.004352185593824834
1773790337139753500,7.50175341796875,0.048615270087122915,-0.0015182342450789292,0.005236585479229688
1773790337159716600,7.521716552734375,0.0372439812451601,-0.0032620845210112747,-0.0011159984178841114
1773790337179679700,7.5416796875,0.05040916776657104,-0.0032622081040084593,-0.008268792781978845
1773790337199642600,7.561642578125,0.04352525347173214,0.002079149499014602,-0.0027035233376547694
1773790337219604700,7.581604736328125,0.039485622692108154,-0.0019260932413511908,-0.001079520598705858
1773790337239568000,7.60156787109375,0.047716275420784944,0.005345698134711711,0.003653481006249785
1773790337259530500,7.621530517578125,0.045021044987440105,0.004810211580854957,-0.0010081541292369365
1773790337279493600,7.64149365234375,0.04801204349696636,-0.0012644855295846353,-0.004964106947090477
1773790337299456500,7.66145654296875,0.0414268198877573,0.002515463979858032,-0.009381539796851576
1773790337319419600,7.681419677734375,0.053098552981019016,-0.0002166711762863997,0.008722381768375635
1773790337339381800,7.7013818359375,0.03768587979376316,0.01356322537868982,-0.0013003054762259125
1773790337359344600,7.7213447265625,0.03319675168097019,-0.0010838809664644941,0.0008021101631224155
1773790337379307800,7.741307861328125,0.034842180800437925,-0.008651586691886768,-0.007715159220900386
1773790337399270700,7.761270751953125,0.028856092128157613,-0.0027824492049607213,-0.003636182811576873
1773790337419233500,7.781233642578125,0.045317397585511204,-0.007760437976109097,-0.01311433311700821
1773790337439196700,7.80119677734375,0.03783551739752292,-0.006519527687056688,0.007823734161909669
1773790337459159600,7.82115966796875,0.046963995748758314,-0.0037258481269615003,0.004938040924072265
1773790337479121700,7.84112158203125,0.04816051205694675,0.0003037962260392305,0.008120561684016137
1773790337499085300,7.861085205078125,0.03963116864264011,0.006037318248485099,0.0028750257133506236
1773790337519048000,7.8810478515625,0.05294833085536956,0.006056081743637333,-0.005902830835618079
1773790337539011000,7.901010986328125,0.034841596278548236,-0.007385006530393729,-0.0061581755698658525
1773790337558974000,7.920973876953125,0.03633680327236652,0.007785521043371409,-0.012843407221138477
1773790337578937000,7.94093701171875,0.0397796372026205,-0.003254359299337375,-0.002575604375358671
1773790337598899200,7.960899169921875,0.03439151442348957,0.0027795334453781834,-0.0063821205188520245
1773790337618862000,7.980862060546875,0.04471534003913402,-0.0046238749643307524,-0.007665511392895132
1773790337638825200,8.0008251953125,0.033492519757151604,0.0029526318398275177,0.002194477836973965
1773790337658787800,8.020787841796874,0.02481470778286457,0.001853715560429555,0.0010858955405652522
1773790337678751000,8.0407509765625,0.040673955693840975,-0.006622625018638791,0.01093501631654799
1773790337698714000,8.060714111328124,0.049801265001296995,-0.011347098540555453,0.002156483914144337
1773790337718676000,8.080676025390625,0.03588496785163879,-0.0011373236201754479,-0.0012705131261609493
1773790337738639000,8.10063916015625,0.024213234758377073,-0.0037641745536981033,0.010240257251728325
1773790337758602200,8.120602294921875,0.04576338778734207,0.005624213681992842,-0.007726666995603591
1773790337778565000,8.140565185546874,0.05025134685635566,0.010084890876791906,0.011645192146208136
1773790337798528300,8.1605283203125,0.037084991291165346,-0.006932991300686262,-0.004012669707462191
1773790337818491000,8.180490966796874,0.04396773654222488,0.005767970675881952,0.004860226447507739
1773790337838453000,8.200452880859375,0.04037760309576988,0.00043477062096462755,-0.002235704896505922
1773790337858416000,8.220416015625,0.03574000642299652,0.002130776652852364,-0.009791234842594712
1773790337878379000,8.24037890625,0.03274666982591152,0.0020564441914510097,-0.0006399601376615464
1773790337898342100,8.260342041015624,0.05220072735846042,0.007695719301491044,0.008869334224704652
1773790337918305300,8.28030517578125,0.033197336202859876,-0.007622624382528011,-0.008519826667290181
1773790337938268200,8.30026806640625,0.040379941183328626,-0.0038932862488931276,0.0019525223072618244
1773790337958230000,8.32022998046875,0.032898645517230034,0.0026246559796200015,0.0020883323150686917
1773790337978193200,8.340193115234374,0.05654080238938331,-0.002219311740364355,-0.014669362272974103
1773790337998156000,8.360156005859375,0.04546878875494003,-0.005107305106087005,-0.004550886503700166
1773790338018119200,8.380119140625,0.03768821788132191,-0.004811604386920226,0.004111892298236489
1773790338038082000,8.40008203125,0.037539164799451824,0.006049301518045831,-0.005649988585710525
1773790338058045200,8.420045166015624,0.044423663616180414,0.007059059657546459,-0.0036316345006227493
1773790338078007000,8.440007080078125,0.036193595409393306,-0.006952959230591659,0.004887772041559219
1773790338097970000,8.459969970703124,0.039486207213997836,0.0003514698656113978,-0.000980992127675563
1773790338117933000,8.47993310546875,0.05684358472824096,0.0049130046642269,-0.022039123855996875
1773790338137896000,8.49989599609375,0.028413024535775183,-0.0023283342059454296,0.0058949580564163625
1773790338157859000,8.519859130859375,0.05130933147668838,-0.0019773841809379517,-0.0012194039934314788
1773790338177822200,8.539822265625,0.031109424012899397,-0.0005176456856936056,-0.0014658713014796376
1773790338197785000,8.55978515625,0.04382862033247947,-0.010805472794390515,-0.0030886501977220177
1773790338217747000,8.579746826171874,0.0344032048612833,-0.00013213362769893137,0.0020347206979990005
1773790338237710000,8.5997099609375,0.0406903223067522,-0.0033162683872942577,-0.0028834647481329736
1773790338257673000,8.6196728515625,0.03515431548953056,0.0045431393053731875,-0.0063660461668856435
1773790338277636000,8.639635986328125,0.032761282873153684,0.0015047071869921636,-0.005239142762497067
1773790338297599000,8.659598876953124,0.033062311646342275,-0.001129594616804752,-0.0025024112749844787
1773790338317561000,8.67956103515625,0.04039572327435016,-0.00043597912282566535,-0.004669197387434542
1773790338337524200,8.699524169921874,0.0368038362622261,0.0009023598770170792,-0.009127090111747383
1773790338357486800,8.71948681640625,0.05162029712200165,-0.004027884972080937,0.0031402525207959112
1773790338377450000,8.739449951171874,0.016457213804125785,-0.013063746857375371,0.006800985251739621
1773790338397413000,8.7594130859375,0.0469862075805664,0.0052597306052659405,0.0028849625854752954
1773790338417376000,8.7793759765625,0.0438449869453907,-0.004959036904684035,-0.010985029470734297
1773790338437338000,8.799338134765625,0.02828501424193382,0.008235300362686394,0.004755359567236155
1773790338457301200,8.81930126953125,0.04549158510863781,0.0030522169026720803,-0.0072804575980640945
1773790338477264100,8.83926416015625,0.02963350624144077,0.006696725155421882,-0.00958774815974757
1773790338497227800,8.859227783203124,0.039811785906553265,-0.0003669634417085035,-0.01243858927991241
1773790338517190700,8.879190673828125,0.0413093309879303,0.007637355019134702,-0.0030784027983434496
1773790338537153800,8.89915380859375,0.031133389410376546,0.004143266396500985,-0.0007969955965876579
1773790338557115600,8.91911572265625,0.04654489355385303,-0.006410959025091142,0.003156235541217029
1773790338577078500,8.93907861328125,0.030382863304018973,0.005149468313957913,-0.005758326064702123
1773790338597041700,8.959041748046875,0.05686755012571811,-0.003751732913944579,-0.00043809915632009506
1773790338617004500,8.979004638671874,0.03995966994464397,-0.007085740456028724,-0.01008636359795928
1773790338636967700,8.9989677734375,0.03367605963051319,0.0064377682585589355,-0.0025229060737416145
1773790338656930600,9.0189306640625,0.04699555993080139,-0.007888572138358722,-0.010998583072051406
1773790338676892700,9.038892578125,0.043108489364385605,-0.010253458084951853,-0.009292601138073951
1773790338696855600,9.05885546875,0.04295826723873615,0.006205902010487625,-0.0038700646326877176
1773790338716818700,9.078818603515625,0.0508902292817831,-0.00722849451538641,-0.001824475480802357
1773790338736781600,9.098781494140624,0.034730537119507784,-0.002544335879193386,-0.012826364754792301
1773790338756744700,9.11874462890625,0.03652735740840435,0.005338762645493261,-0.00690501188179478
1773790338776707600,9.13870751953125,0.03862345290482044,0.01022869810303091,-0.009070738548319785
1773790338796669700,9.158669677734375,0.04490881678462028,-0.005597498063358943,-0.0040190446493215855
1773790338816632800,9.1786328125,0.04101940813064575,0.0001747362259258807,-0.00021121333157643674
1773790338836595700,9.198595703125,0.04760346269607544,0.0038123913305535095,-0.01607272626487538
1773790338856558600,9.21855859375,0.03563362343907356,-0.0044424320061662,-0.0028139614421874284
1773790338876521500,9.238521484375,0.05613280611038208,0.008690387186425504,-0.010397950297780335
1773790338896484600,9.258484619140624,0.04072013292312622,-0.012647784184338524,-0.01608269966961816
1773790338916446700,9.27844677734375,0.052090837243199344,0.005011594784050249,-0.00129610422514379
1773790338936409600,9.29840966796875,0.040866263395547865,-0.005153669565040036,-0.008839450543094426
1773790338956372700,9.318372802734375,0.04041676606237888,0.0018730517329116991,-0.01341117890542373
1773790338976336000,9.3383359375,0.048798225438594814,-0.004950895839068107,0.0069634458044543854
1773790338996298500,9.358298583984375,0.04864858783483505,-0.0032778763160094967,0.00024343510074540973
1773790339016261600,9.37826171875,0.03577800034582615,0.0030006645265370025,-0.004462568899430334
1773790339036223700,9.3982236328125,0.04730068035721779,-0.004713877064788539,-0.002247998122498393
1773790339056186600,9.4181865234375,0.02859831797480583,-0.003605974902980961,0.003155797149799764
1773790339076149800,9.438149658203125,0.045507951721549034,-0.001752142324009037,-0.004054700484592467
1773790339096112600,9.458112548828124,0.03922258784174919,-0.0017821899742841195,-0.0005858370639383793
1773790339116075800,9.47807568359375,0.04116670764684677,-0.0005146858300993699,-0.008732994493935256
1773790339136038700,9.49803857421875,0.039969022294878954,-0.007854301117642898,-0.008859287754725664
1773790339156000500,9.51800048828125,0.031739538609981535,0.003941391144605586,-0.014733970208093522
1773790339175963600,9.537963623046876,0.04445756588578224,0.00005493779748621818,0.003877535553090274
1773790339195926800,9.5579267578125,0.036377135282754894,0.0012938827280107943,-0.004485164323728532
1773790339215889700,9.5778896484375,0.04445756588578224,-0.0063813419174286535,-0.008828326360881327
1773790339235852800,9.597852783203125,0.033386136773228645,-0.006458186567146913,-0.0018925357483327388
1773790339255815700,9.617815673828124,0.042214755395054815,-0.0028870203993545144,0.004820917350426316
1773790339275777500,9.637777587890625,0.04146656737625599,0.001874075074335269,0.0012600099984556436
1773790339295740700,9.65774072265625,0.035329672056436535,-0.0015668928382845477,-0.004929601889289916
1773790339315703600,9.67770361328125,0.03308569252192974,-0.0011401217903934592,0.003103884299471974
1773790339335666700,9.697666748046874,0.04101473195552826,0.0022733731652944695,0.0030546931291930376
1773790339355629600,9.717629638671875,0.03876958337724209,-0.002872283483704086,0.003535042258352041
1773790339375592700,9.7375927734375,0.051339142093062395,0.001143628065498342,-0.005711071123182773
1773790339395554600,9.757554443359375,0.033383798685669895,-0.0030705919533458655,-0.0032622166663408276
1773790339415517700,9.777517578125,0.04565583575963974,-0.00837371902775485,-0.004100987311732023
1773790339435480600,9.79748046875,0.04490881678462028,-0.010143025688640773,-0.0047726577619090675
1773790339455443700,9.817443603515626,0.03802607153356075,0.00424122204749583,-0.007050977957434952
1773790339475406600,9.837406494140625,0.04715454988479614,0.00027889072014440896,-0.014417707333154976
1773790339495368700,9.85736865234375,0.0372790525585413,-0.003344058578640397,-0.007734393644332886
1773790339515330800,9.877330810546875,0.03533434823155403,-0.004940462351666065,-0.0019086283666081725
1773790339535293700,9.897293701171876,0.030844635596871374,-0.005734349250781815,-0.0027994214601814744
1773790339555256800,9.9172568359375,0.030844635596871374,0.004156488350144354,-0.004139456158597022
1773790339575220000,9.937219970703126,0.030694413471221923,0.002443201319601212,0.0009874766673892736
1773790339595182800,9.957182861328125,0.04431260445713996,-0.010095938568835845,-0.005500241384096443
1773790339615144700,9.977144775390625,0.036680502143502235,-0.0036833010411894064,0.00019828078476712106
1773790339635107800,9.99710791015625,0.04341419431269169,-0.007505447722421376,-0.010269611210376024
1773790339655070700,10.01707080078125,0.049400867506861686,-0.001446314791644545,-0.007962375447619706
1773790339675033900,10.037033935546875,0.036382395979762075,-0.007107428843918023,0.009872410320024937
1773790339694996700,10.056996826171876,0.03712941495478153,-0.006760660091217141,0.007537811626307666
1773790339714960000,10.0769599609375,0.031443186011910436,0.0014126077432207239,0.0021485198033973575
1773790339734921700,10.096921630859375,0.04595628001093864,0.00005454701620456035,0.00242282496644184
1773790339754884600,10.116884521484375,0.04924830729365349,-0.012837935319932875,-0.007462938025500625
1773790339774847700,10.13684765625,0.025604981377720833,0.0013854864127381007,-0.009232413649745285
1773790339794811000,10.156810791015625,0.030544191345572468,-0.0014549500465436721,-0.007645016594137996
1773790339814773800,10.176773681640626,0.020220950251817704,0.00031555584034322233,-0.012235888048354536
1773790339834735900,10.19673583984375,0.04176934971511364,-0.0033808029717663883,-0.006142338679917156
1773790339854699000,10.216698974609375,0.04236731560826301,0.007956268792174523,-0.009098010147735477
1773790339874661600,10.23666162109375,0.045209845557808874,0.0011476131176881609,-0.004282919749896973
1773790339894624800,10.256624755859375,0.03937222544550895,-0.004745085910038324,0.0010418189368210733
1773790339914587600,10.276587646484375,0.022163316491246223,-0.0016291432778918532,-0.01041236241562292
1773790339934550800,10.29655078125,0.041017070043087,-0.01160158704156638,-0.008299553246423601
1773790339954513000,10.316512939453125,0.04176525806188583,0.007007069746227353,-0.0000785633952356875
1773790339974475800,10.336475830078125,0.04625555521845817,-0.011233882815402467,-0.003732574124448001
1773790339994439000,10.35643896484375,0.035333179187774656,0.0018016905435477382,-0.0025951127934269605
1773790340014401800,10.37640185546875,0.04640636186599731,-0.0035093900813983054,-0.0065033357457257805
1773790340034364700,10.39636474609375,0.05358955136835575,-0.01251700882796431,-0.01100157874673605
1773790340054326800,10.416326904296875,0.038327100306749344,0.0028804276888418825,0.0007673493769951164
1773790340074290000,10.4362900390625,0.03294073109328747,-0.0002044298594339125,-0.012433072854578495
1773790340094252800,10.456252685546875,0.03099427320063114,-0.009983502586750546,-0.0053328123953193425
1773790340114216000,10.4762158203125,0.04176876519322395,0.0020439066535749588,-0.007612995754368603
1773790340134178800,10.4961787109375,0.03488601994216442,-0.009418528501861145,0.0010293430477380753
1773790340154142000,10.516141845703125,0.03353928150832653,0.0015259471940764341,-0.011544289055000989
1773790340174103800,10.536103759765625,0.035333179187774656,-0.00669776804750436,0.0012968714101240038
1773790340194066700,10.556066650390624,0.02979483428299427,0.003247670976113295,-0.011624277222342789
1773790340214029800,10.57602978515625,0.040271220111846924,0.0021192179322715673,-0.009773297327104956
1773790340233992700,10.59599267578125,0.03428630048334598,0.00823888969241525,-0.007867792499344795
1773790340253955800,10.615955810546875,0.04730360296666622,-0.007359409152367152,-0.0068964084502309555
1773790340273919000,10.6359189453125,0.03054243777990341,-0.0008148360723105724,0.002340882304031402
1773790340293880600,10.655880615234375,0.0318891762137413,-0.004406696826615371,0.0009888466405682265
1773790340313843700,10.67584375,0.05119125805497169,-0.004421680908260168,-0.013008059730939566
1773790340333806800,10.695806884765625,0.04236147038936615,0.002224531052765087,0.0005274762065149843
1773790340353769700,10.715769775390624,0.03323357656002045,0.002004339687583706,-0.009497476060409099
1773790340373732900,10.73573291015625,0.042212417307496065,-0.00962540758079267,0.0022740276128984985
1773790340393695000,10.755695068359374,0.0354793096601963,-0.015513168711442267,0.0003200987998396158
1773790340413657900,10.775657958984375,0.03577916938960552,0.007383182753599248,0.002371332241222262
1773790340433620700,10.795620849609374,0.040867432439327236,0.0013221489850366195,-0.0035014870486222206
1773790340453583600,10.81558349609375,0.03203998286128044,-0.0021330776369708473,-0.0013261523035354912
1773790340473546800,10.835546630859374,0.035333179187774656,-0.0007287536649055254,-0.012193327548261731
1773790340493510000,10.855510009765625,0.04266542177200317,0.006562249729820177,-0.015465261891018598
1773790340513472000,10.875471923828124,0.046703883507847786,-0.007515082629624521,0.0021354959250427783
1773790340533435100,10.89543505859375,0.04176584258377552,0.004852872545647551,0.0009342851754277944
1773790340553398000,10.91539794921875,0.047450902482867235,-0.007778036423237063,0.006116254390589893
1773790340573361200,10.935361083984375,0.041913726621866224,-0.0006851655422229669,-0.006596859248075634
1773790340593324300,10.95532421875,0.04490589417517185,-0.001181771829144418,0.0009397650681436062
1773790340613286100,10.9752861328125,0.03547580252885818,-0.001963613381789764,-0.008909647968783975
1773790340633249000,10.9952490234375,0.03741875329017639,-0.0011137887653108918,-0.004420172796119004
1773790340653212200,11.015212158203125,0.049689621320366854,0.005837804487856919,-0.0008664441036060451
1773790340673175000,11.035175048828124,0.03741875329017639,-0.006628437129850499,0.0005094656257890165
1773790340693138200,11.05513818359375,0.048043023157119745,-0.004031507694906031,-0.00801492761876434
1773790340713101000,11.07510107421875,0.04355564860999584,-0.004607845707314846,-0.00003247749749571085
1773790340733063000,11.09506298828125,0.03472644546627998,0.0045652618035135675,-0.00030572321461513636
1773790340753026000,11.115026123046874,0.04235679421424866,-0.006378490089927799,-0.0032349085343070325
1773790340772989000,11.134989013671875,0.035624271088838574,-0.004067353899366571,0.0008939348987303673
1773790340792952000,11.1549521484375,0.018712299254536626,-0.00004428912796884105,-0.00703104941425845
1773790340812915200,11.174915283203125,0.03801613466143608,-0.013836136594024719,0.002389525485038757
1773790340832877000,11.194876953125,0.0426554848998785,0.0000697395192897602,0.0036951281908899542
1773790340852840200,11.214840087890625,0.05372749853432178,-0.0026937066235943347,-0.003420622098445892
1773790340872803000,11.234802978515624,0.03966097925901413,-0.006444078126692329,0.006944485375657677
1773790340892766000,11.254765869140625,0.036220483416318894,-0.012734702132677193,-0.010028897789679468
1773790340912729000,11.27472900390625,0.03726794664263725,-0.00206002438802534,-0.0040657333352603015
1773790340932692000,11.29469189453125,0.04879062665402889,0.004575405313259398,-0.001686290852818638
1773790340952654000,11.314654052734374,0.04609598074257373,-0.008274324048688867,0.014831585363671183
1773790340972617200,11.3346171875,0.04310205962359905,-0.00683186159308243,-0.009794888104405253
1773790340992580000,11.354580078125,0.04429974497556686,-0.0036855632094011524,0.000658792702294886
1773790341012543000,11.37454296875,0.026942951983213424,0.0015970527978191966,-0.00405161347836256
1773790341032506000,11.394506103515624,0.040859249132871624,-0.004479385034790903,0.0031106245675124227
1773790341052468000,11.414468017578125,0.039511926177144045,-0.010285464083345141,0.0019446860606782137
1773790341072431000,11.43443115234375,0.05043488672971725,0.0010144001366414158,0.0027524953122250733
1773790341092394200,11.454394287109375,0.04265373133420944,-0.01643633312958991,-0.010869951723702252
1773790341112357000,11.474357177734374,0.045645898887515066,0.005643422989250393,0.005637786691263318
1773790341132320300,11.4943203125,0.038163434177637096,-0.008523789314710302,-0.01260532414894551
1773790341152283100,11.514283203125,0.040108138504624365,-0.009619964220694964,-0.006576821107044816
1773790341172245000,11.534244873046875,0.0447469042211771,0.0050942932149977424,-0.005966361058503389
1773790341192208100,11.5542080078125,0.03801204300820827,-0.01112582732255687,-0.008893865877762436
1773790341212171000,11.5741708984375,0.0466898549824953,0.0020111677195309313,-0.0016530827029608188
1773790341232134100,11.594134033203124,0.03217559193968773,0.003011734766056179,-0.004511303411982953
1773790341252097000,11.614096923828125,0.029331308424472808,-0.015305639466072897,-0.004770776332076639
1773790341272059000,11.634058837890626,0.033820436537265776,-0.012512107748916606,-0.00670484966719523
1773790341292022000,11.65402197265625,0.046240357649326325,0.0028981440107454545,0.006162577750347555
1773790341311985000,11.67398486328125,0.041302901247143746,-0.002168381988498004,0.0028356983499601483
1773790341331948000,11.693947998046875,0.033224224209785456,0.00573863669600978,-0.00040806934423744676
1773790341351911200,11.7139111328125,0.0465419709444046,0.0023799867613692183,-0.0018985818966291844
1773790341371873000,11.733873046875,0.0422024804353714,-0.010652608903794316,0.006624605771526694
1773790341391836200,11.753836181640626,0.0314274039208889,-0.0015693750584381632,0.005511036772746593
1773790341411799300,11.77379931640625,0.03666530457437038,0.0029017812895355743,-0.00006897358298301697
1773790341431762000,11.793761962890626,0.04549392319619655,-0.0007260902087167778,-0.009798998023942112
1773790341451725000,11.81372509765625,0.03891045315265655,-0.0023391044784206315,-0.006827672329265624
1773790341471688000,11.83368798828125,0.03786532801389694,-0.009753911064978455,0.002141268078703433
1773790341491650000,11.853650146484375,0.04205459639728069,-0.0020855726753463387,0.0006826667682267725
1773790341511613000,11.873613037109376,0.04235270256102085,0.007386064263852313,0.001210069909505546
1773790341531575800,11.893575927734375,0.03801321205198765,0.0016863031254950329,-0.0014803564845584333
1773790341551539000,11.9135390625,0.03472352285683155,-0.007948035253369016,-0.006404752475768327
1773790341571502000,11.933502197265625,0.04250409373044967,-0.009988046331127407,-0.0026597572611644863
1773790341591463700,11.953463623046876,0.037568390893936154,-0.017066081258846677,0.0005163702906109392
1773790341611426800,11.9734267578125,0.046098903352022165,0.008330925632221623,-0.0062852542819455265
1773790341631390000,11.993389892578126,0.03741875329017639,-0.011763343199738301,0.0021616532796062526
1773790341651352800,12.013352783203125,0.04939093063473701,-0.007453743793003377,0.008231967902928591
1773790341671316000,12.03331591796875,0.03577507773637771,-0.003998608074424555,0.009656155487149954
1773790341691278800,12.05327880859375,0.03741933781206608,-0.006145970250485697,-0.005950286706537008
1773790341711241000,12.073240966796876,0.05253332031369209,-0.003309696511790389,-0.004657835743203759
1773790341731203800,12.093203857421875,0.027993337818980217,-0.006711426109276363,0.0023376126347109676
