time,seconds_elapsed,z,y,x
1773790329693606100,0.055606201171875,-0.00013582227984443307,0.0001411084085702896,0.00017727166414260864
1773790329713569300,0.0755693359375,0.00016596757632214576,-0.0005881381221115589,-0.00019622640684247017
1773790329733532200,0.0955322265625,-0.00043205730617046356,0.0010554322507232428,0.0014556418173015118
1773790329753495300,0.115495361328125,-0.0005350862047635019,-0.0007655809167772532,0.0009071403183043003
1773790329773458200,0.135458251953125,-0.0004975080955773592,0.0012340088142082095,-0.0003550541587173939
1773790329793421300,0.15542138671875,-0.001344896387308836,0.0011223354376852512,-0.000625841785222292
1773790329813384200,0.17538427734375,0.0010335043771192431,0.0005242135375738144,0.00022923201322555542
1773790329833347300,0.195347412109375,0.00016214139759540558,0.00015463330782949924,-0.0001901630312204361
1773790329853309200,0.21530908203125,0.0002231978578492999,-0.00004290090873837471,-0.0001958315260708332
1773790329873272000,0.23527197265625,0.0001719296706141904,-0.00031196908093988895,0.00026717083528637886
1773790329893235200,0.255235107421875,-0.00042550673242658377,0.00030672899447381496,0.0001456993632018566
1773790329913198300,0.2751982421875,-0.0004659667902160436,0.0011466550640761852,0.0000974312424659729
1773790329933161200,0.2951611328125,0.00022560027719009668,-0.00013133790343999863,-0.00031391391530632973
1773790329953124400,0.315124267578125,-0.000010004281648434699,-0.001102142734453082,-0.0010688132606446743
1773790329973087200,0.335087158203125,0.0012621956411749125,-0.0005926298908889294,-0.00046392902731895447
1773790329993050000,0.355050048828125,0.0002557527332101017,0.0005769515410065651,-0.001450253650546074
1773790330013013200,0.37501318359375,-0.0007728186319582164,-0.00016321009024977684,-0.00046523381024599075
1773790330032975000,0.39497509765625,0.000998510280624032,-0.000035629840567708015,-0.0009177564643323421
1773790330052938200,0.414938232421875,-0.00022390700178220868,-0.0010863833595067263,-0.0007043201476335526
1773790330072901400,0.4349013671875,-0.0005192940006963909,0.0011812630109488964,-0.000495412852615118
1773790330092864300,0.4548642578125,0.0006127167725935578,-0.00015329685993492603,-0.0001816069707274437
1773790330112827400,0.474827392578125,0.0001665087474975735,0.00047633005306124687,0.00015680072829127312
1773790330132790000,0.4947900390625,-0.0009012403897941113,-0.0004224225413054228,0.00029048509895801544
1773790330152753200,0.514753173828125,0.0005516656674444675,0.0005835895426571369,0.0012574871070683002
1773790330172716000,0.534716064453125,-0.0005209106020629406,0.0007928814738988876,0.0004141824319958687
1773790330192679200,0.55467919921875,0.0006889504147693515,-0.0001742183230817318,-0.0009541022591292858
1773790330212641300,0.574641357421875,0.00025691004702821374,0.00024388101883232594,0.0013806498609483242
1773790330232604200,0.594604248046875,0.0009150279802270234,0.001103202230297029,-0.0010651196353137493
1773790330252567300,0.6145673828125,-0.0009579348843544722,-0.0021045366302132607,-0.0009252899326384068
1773790330272530400,0.634530517578125,-0.00022086489479988813,-0.0012856952380388975,-0.00021027494221925735
1773790330292493000,0.6544931640625,0.00010173677583225071,-0.0004458946641534567,-0.000286951195448637
1773790330312456200,0.674456298828125,-0.0012084603076800704,-0.000691436231136322,0.00017488282173871994
1773790330332419000,0.694419189453125,0.0005672941915690899,0.00033632153645157814,0.00018814345821738243
1773790330352382200,0.71438232421875,0.0016268790932372212,0.0006892213132232428,0.000006873626261949539
1773790330372344300,0.73434423828125,0.00012106832582503557,-0.0006859812419861555,0.0004127449356019497
1773790330392307200,0.75430712890625,0.00030316002084873617,-0.00037448760122060776,0.00001559453085064888
1773790330412270300,0.774270263671875,-0.00019366174819879234,0.000007216352969408035,0.00008953828364610672
1773790330432233200,0.794233154296875,-0.0003349223406985402,0.0006941976025700569,0.0006872708909213543
1773790330452196000,0.814196044921875,-0.0008339941850863397,0.0009375268127769232,-0.0014305450022220612
1773790330472159200,0.8341591796875,0.000010646763257682323,0.0005147624760866165,-0.0007856818847358227
1773790330492121900,0.854121826171875,-0.0008266979712061584,-0.0009671335574239492,0.00015622936189174652
1773790330512085000,0.8740849609375,-0.0020492400508373976,-0.0015623641666024923,0.0019085458479821682
1773790330532046800,0.894046875,0.000038942351238802075,0.00023123272694647312,-0.0005671256221830845
1773790330552009700,0.914009765625,0.00019197541405446827,0.0009912573732435703,0.0001859157346189022
1773790330571972900,0.933972900390625,-0.0005198687431402504,-0.0015633171424269676,0.0009552356787025928
1773790330591936000,0.95393603515625,-0.0007610482862219214,-0.0008818756323307753,-0.0008188770152628422
1773790330611899000,0.97389892578125,-0.0001339066366199404,0.0003773451317101717,0.0013298261910676956
1773790330631862000,0.993862060546875,0.001206916756927967,-0.00025927391834557056,-0.0001331656239926815
1773790330651825000,1.013824951171875,0.00040738790994510055,0.000500689260661602,0.0013705110177397728
1773790330671788000,1.0337880859375,-0.0005663542542606592,0.0011088211322203279,0.00020010024309158325
1773790330691751000,1.0537509765625,-0.0007733116508461535,-0.0006065352354198694,0.0009824642911553383
1773790330711712800,1.073712646484375,-0.000942915678024292,0.00045868055894970894,0.000046807341277599335
1773790330731676000,1.093676025390625,-0.00022781570442020893,0.000059922924265265465,-0.0006359750404953957
1773790330751638800,1.113638671875,0.0006743120029568672,0.000783886294811964,0.0013598664663732052
1773790330771602000,1.133601806640625,0.0012676718179136515,-0.00010854750871658325,0.0008678860031068325
1773790330791565000,1.15356494140625,0.00021640861814375967,-0.0010156978387385607,-0.0004909425042569637
1773790330811528000,1.17352783203125,0.0011533109936863184,-0.00024354783818125725,0.0009381566196680069
1773790330831491000,1.193490966796875,0.0016375593841075897,0.001668960670940578,0.0005895998328924179
1773790330851454000,1.213453857421875,-0.0005232957191765308,0.00022438331507146358,-0.0010197237133979797
1773790330871415800,1.233415771484375,-0.00007756965351291001,-0.0006299084052443504,0.0006101913750171661
1773790330891379000,1.25337890625,-0.00046730099711567163,0.0011164448224008083,-0.00006599538028240204
1773790330911341800,1.273341796875,-0.0011158435372635722,0.0007650570478290319,0.0006729508750140667
1773790330931305000,1.293304931640625,0.0005571063375100493,0.00032283482141792774,0.0015641390345990658
1773790330951267800,1.313267822265625,0.0017055028583854437,0.0007012039422988892,0.0001315716654062271
1773790330971231000,1.33323095703125,0.00021227072284091264,0.00015094084665179253,0.0011799698695540428
1773790330991194000,1.353194091796875,0.0005645405617542565,0.0005893481429666281,-0.0007333052344620228
1773790331011156700,1.37315673828125,0.0004182772827334702,-0.0008287271484732628,-0.0003288337029516697
1773790331031120000,1.393119873046875,-0.0004036167520098388,-0.0004734878893941641,-0.00030205026268959045
1773790331051082000,1.41308203125,0.0012047810014337301,0.0004516211338341236,0.0023138124961405993
1773790331071044900,1.433044921875,0.0011589895002543926,-0.00029932474717497826,0.0006320355460047722
1773790331091008000,1.453008056640625,-0.001632255152799189,-0.00007069669663906097,-0.0012802425771951675
1773790331110971000,1.472970947265625,0.0008203599136322737,0.0005265739746391773,-0.00028578145429491997
1773790331130934000,1.49293408203125,0.000977001036517322,-0.000468225684016943,0.00043132388964295387
1773790331150897200,1.512897216796875,0.0008070391486398876,-0.0004865718074142933,-0.0004905564710497856
1773790331170859800,1.53285986328125,0.00013000915350858122,0.00044296449050307274,0.0010000932961702347
1773790331190822000,1.55282177734375,0.00024072894302662462,-0.0012685558758676052,0.0011587319895625114
1773790331210785000,1.572784912109375,0.0006624200032092631,-0.0002945393789559603,0.00012980913743376732
1773790331230748000,1.592747802734375,-0.001555525348521769,-0.000708673382177949,0.0007994808256626129
1773790331250711000,1.6127109375,-0.0003828509652521461,-0.0004124389961361885,0.0001612696796655655
1773790331270674000,1.632673828125,-0.0002925384615082294,-0.0002974171657115221,-0.0015790951438248158
1773790331290637000,1.652636962890625,-0.0014377430779859424,-0.0007418089080601931,-0.001590922474861145
1773790331310599700,1.672599609375,0.0000029245129553601146,0.00012201513163745403,0.00013767043128609657
1773790331330562800,1.692562744140625,0.00011480462126201019,-0.000274985795840621,0.0001804167404770851
1773790331350525000,1.71252490234375,-0.0016477382741868496,0.0005744774825870991,-0.0014331494458019733
1773790331370487800,1.73248779296875,0.00004113346221856773,-0.000598337035626173,0.00009147357195615768
1773790331390451000,1.752450927734375,-0.0002350436698179692,0.00041342410258948803,-0.0002178344875574112
1773790331410414000,1.7724140625,-0.0011273374548181891,-0.00092490972019732,0.000987050123512745
1773790331430377000,1.792376953125,0.0009670803556218743,-0.0006432239897549152,0.0000805961899459362
1773790331450339800,1.81233984375,0.00026247446658089757,0.0001763699110597372,0.0003090794198215008
1773790331470302700,1.832302734375,0.0007093096501193941,-0.00033626286312937737,0.00015962449833750725
1773790331490265600,1.852265625,0.0007034912123344839,0.00038540991954505444,-0.0005789645947515965
1773790331510227700,1.872227783203125,-0.0003813925141002983,-0.001189476577565074,0.00016552675515413284
1773790331530190600,1.892190673828125,0.0003823770093731582,-0.0005668352823704481,0.001173518132418394
1773790331550153700,1.91215380859375,0.00026351946871727705,0.00011310423724353313,0.00033224327489733696
1773790331570116900,1.932116943359375,-0.000582873122766614,-0.00033003208227455616,-0.0007481412030756474
1773790331590079500,1.95207958984375,-0.00042073862277902663,-0.0007418722379952669,0.00006697745993733406
1773790331610042600,1.972042724609375,-0.0008223396143876016,-0.0007579198572784662,0.000012173783034086227
1773790331630005500,1.992005615234375,-0.0013889612164348364,0.0006354055367410183,0.0005469196476042271
1773790331649968600,2.01196875,-0.0008991928189061582,-0.000833739759400487,0.0004861997440457344
1773790331669930800,2.0319306640625,0.0012418985133990645,-0.001833686139434576,0.00009184470400214195
1773790331689893600,2.0518935546875,0.0007180953398346901,0.00047329789958894253,0.000527549535036087
1773790331709856800,2.071856689453125,-0.001194051350466907,-0.0006518780719488859,0.0009071016684174538
1773790331729819600,2.091819580078125,-0.00010870740516111255,0.0005742737557739019,0.0009013069793581963
1773790331749782500,2.111782470703125,0.00042338360799476504,-0.0013144772965461016,-0.0009081629104912281
1773790331769745700,2.13174560546875,0.00014986182213760912,-0.00005229865200817585,-0.0011298386380076408
1773790331789708500,2.15170849609375,0.0002605831250548363,0.0006063608452677727,0.0001167389564216137
1773790331809670700,2.171670654296875,-0.0009089921368286014,-0.00029401620849967003,0.0005522393621504307
1773790331829633800,2.1916337890625,-0.00041217549005523324,-0.0001766858622431755,0.0008045881986618042
1773790331849596700,2.2115966796875,0.00009278684592572972,0.00021685659885406494,-0.0005111992359161377
1773790331869559800,2.231559814453125,-0.0007047852850519121,-0.00034516048617661,0.00003192014992237091
1773790331889522400,2.2515224609375,-0.001562472083605826,0.0004002212081104517,0.0011983159929513931
1773790331909485600,2.271485595703125,-0.000322787556797266,0.00012602191418409348,-0.00031436048448085785
1773790331929448700,2.29144873046875,-0.001048175385221839,0.00024683913215994835,0.0006957207806408405
1773790331949411600,2.31141162109375,-0.00034225863055326045,-0.00021820561960339546,-0.0001565231941640377
1773790331969373700,2.331373779296875,-0.000993106747046113,0.0007191828917711973,0.0009142840281128883
1773790331989336800,2.3513369140625,-0.00029117436497472227,-0.0006833318620920181,0.000585491769015789
1773790332009299700,2.3712998046875,-0.00022445700597018003,-0.00044139567762613297,0.0002114563249051571
1773790332029262600,2.3912626953125,0.001355084590613842,0.00018888432532548904,0.001105363480746746
1773790332049225500,2.4112255859375,-0.00012462493032217026,0.0007432862184941769,0.0010637762024998665
1773790332069188600,2.431188720703125,0.00041424622759222984,0.0010956882033497095,0.0003650966100394726
1773790332089151700,2.45115185546875,0.0007048010593280196,0.0006795059889554977,0.0008029746823012829
1773790332109114600,2.471114501953125,0.0001595562498550862,0.0009055756963789463,-0.00040644966065883636
1773790332129076700,2.49107666015625,-0.00068073341390118,0.0011095743393525481,0.00023333681747317314
1773790332149039900,2.511039794921875,-0.00016003436758182943,0.0005195050034672022,0.000036135781556367874
1773790332169002800,2.531002685546875,-0.00039620004827156663,-0.0013164491392672062,-0.0006376649253070354
1773790332188965600,2.550965576171875,-0.0005611060769297183,-0.0003108386881649494,0.00010103592649102211
1773790332208928500,2.570928466796875,0.00010746144107542932,0.0004605406429618597,-0.0009845406748354435
1773790332228891600,2.5908916015625,-0.001669052871875465,-0.0012913087848573923,0.0001649586483836174
1773790332248854500,2.6108544921875,0.000501012138556689,0.0002928306348621845,0.00009487755596637726
1773790332268816600,2.630816650390625,-0.0016487962566316128,-0.0005626613274216652,0.0012147757224738598
1773790332288779800,2.65077978515625,0.0008034823695197701,0.0000616458710283041,-0.000022712163627147675
1773790332308742700,2.67074267578125,0.0004994843620806932,0.0014333201106637716,0.0006069652736186981
1773790332328705500,2.69070556640625,0.00002319415216334164,-0.0007795775309205055,0.001558726653456688
1773790332348668700,2.710668701171875,0.0008981723804026842,-0.00001810723915696144,0.0008910107426345348
1773790332368631600,2.730631591796875,-0.000110465451143682,-0.00113203888759017,-0.000574156641960144
1773790332388594700,2.7505947265625,-0.0005689371610060334,0.0006036015693098307,0.000004067551344633102
1773790332408557600,2.7705576171875,-0.00032344620558433235,-0.0009070970118045807,-0.0005244906060397625
1773790332428519700,2.790519775390625,-0.0005165520124137402,-0.0007998393848538399,-0.0006132652051746845
1773790332448482800,2.81048291015625,-0.0010418305173516273,0.00020552217029035091,-0.0006177173927426338
1773790332468445700,2.83044580078125,0.00021983297483529896,0.0005219609010964632,0.0009313910268247128
1773790332488408600,2.85040869140625,-0.0007024441729299724,-0.0002130430657416582,-0.002423520665615797
1773790332508372200,2.870372314453125,0.0005360174109227955,-0.00008307513780891895,-0.0005695577710866928
1773790332528335000,2.890335205078125,0.00017280119936913252,0.000018888385966420174,-0.0011823116801679134
1773790332548298200,2.91029833984375,-0.000049243433750234544,0.0009200489148497581,0.00026514753699302673
1773790332568261000,2.93026123046875,0.00011147285113111138,-0.0003333217464387417,0.0011385362595319748
1773790332588223200,2.95022314453125,0.0005413112230598927,-0.0009735687635838985,0.0002976413816213608
1773790332608186400,2.970186279296875,0.00023223563039209694,0.00009728968143463135,-0.0005387482233345509
1773790332628149200,2.990149169921875,-0.00020305807993281633,-0.000948604429140687,-0.00018491968512535095
1773790332648112400,3.0101123046875,-0.00024414248764514923,0.0005102043505758047,-0.0006858184933662415
1773790332668075000,3.030074951171875,-0.0012214492307975888,-0.0014250720851123333,-0.0018683713860809803
1773790332688038100,3.0500380859375,0.0003922457981389016,-0.00042814575135707855,-0.00015399232506752014
1773790332708001000,3.0700009765625,-0.00043543806532397866,-0.0005248712841421366,-0.00008949870243668556
1773790332727963100,3.089963134765625,0.0011708233505487442,-0.00037106219679117203,0.00022595049813389778
1773790332747926300,3.10992626953125,0.0018158070743083954,-0.0014013366308063269,0.0011265701614320278
1773790332767889200,3.12988916015625,-0.00044598017120733857,-0.001150771277025342,0.00013528717681765556
1773790332787852300,3.149852294921875,0.0002927566529251635,0.0011207731440663338,0.0007989159785211086
1773790332807815400,3.1698154296875,-0.0002734512381721288,0.0003233714960515499,-0.0001170760951936245
1773790332827778000,3.189778076171875,-0.0011269266251474619,0.00013244966976344585,-0.00045090727508068085
1773790332847741200,3.2097412109375,0.000831550860311836,0.0014467157889157534,0.00030680978670716286
1773790332867703300,3.229703369140625,-0.0005529570044018328,-0.0007008062675595284,-0.0010079448111355305
1773790332887666200,3.249666259765625,-0.00039785075932741165,0.0014758059987798333,0.000947633758187294
1773790332907629300,3.26962939453125,-0.0003446894697844982,-0.0000448466744273901,-0.0013018320314586163
1773790332927592200,3.28959228515625,-0.0004907646798528731,-0.00028821732848882675,-0.0011339979246258736
1773790332947555300,3.309555419921875,-0.00040455657290294766,-0.0007652237545698881,-0.000053608324378728867
1773790332967518200,3.329518310546875,-0.0011322797508910298,-0.000047829002141952515,-0.0018501193262636662
1773790332987481000,3.349481201171875,0.00010805831698235124,0.000786829274147749,-0.0004467964172363281
1773790333007444200,3.3694443359375,0.00008188177889678627,0.00013547996059060097,-0.0005764965899288654
1773790333027406300,3.38940625,-0.0005330265848897398,0.0004860786721110344,-0.0010974104516208172
1773790333047369200,3.409369140625,-0.00007216469384729862,0.000985526479780674,0.000008177012205123901
1773790333067332400,3.429332275390625,0.00046369366464205086,-0.0009536398574709892,-0.0006759427487850189
1773790333087295200,3.449295166015625,-0.0010696925455704331,-0.0001682231668382883,0.0009742616675794125
1773790333107258400,3.46925830078125,0.0001296766713494435,-0.001206657150760293,0.000861714594066143
1773790333127221000,3.489220947265625,0.0007726810872554779,0.0012946976348757744,-0.0006060046143829823
1773790333147184000,3.50918408203125,0.00030845729634165764,0.00016809767112135887,0.0010253386572003365
1773790333167146200,3.529146240234375,0.00022509302652906626,-0.00044865161180496216,-0.0010201102122664452
1773790333187109000,3.549109130859375,-0.0006830599741078913,0.0003734689671546221,0.001042208168655634
1773790333207072300,3.569072265625,-0.0012788495514541864,-0.0006027291528880596,-0.0005172132514417171
1773790333227035400,3.589035400390625,0.00012429514026734978,-0.0004132566973567009,0.0017085629515349865
1773790333246998300,3.608998291015625,-0.0008193981484510005,0.00028671883046627045,-0.0011090170592069626
1773790333266961200,3.628961181640625,0.0014568871119990945,0.00017217407003045082,0.00047301454469561577
1773790333286924000,3.648924072265625,0.0001886633544927463,0.0009341479744762182,-0.0007418910972774029
1773790333306886100,3.66888623046875,-0.0006225936231203377,-0.00004556355997920036,-0.00018603447824716568
1773790333326849300,3.688849365234375,0.001926191383972764,0.00045996159315109253,0.0005961256101727486
1773790333346812200,3.708812255859375,-0.00012553200940601528,0.0008050170727074146,0.0006190268322825432
1773790333366775300,3.728775390625,-0.0007524798274971545,0.00029289466328918934,-0.0011516474187374115
1773790333386738200,3.74873828125,-0.00007802489562891424,0.00004637870006263256,0.0009549972601234913
1773790333406701000,3.768701171875,-0.001302586286328733,0.000045388005673885345,0.0007149060256779194
1773790333426664200,3.788664306640625,0.00029883638489991426,0.0007835484575480223,-0.00004487251862883568
1773790333446627000,3.808626953125,0.00011084959260188043,0.0002504850272089243,0.0000074892304837703705
1773790333466589200,3.828589111328125,-0.0006314038182608783,0.0014182012528181076,0.0013288464397192001
1773790333486552300,3.84855224609375,0.00003128411481156945,0.0004222656134516001,0.000034182798117399216
1773790333506515200,3.86851513671875,0.00017386792751494795,-0.00020458153448998928,-0.0015844381414353848
1773790333526478300,3.888478271484375,0.00021870499767828733,0.00016477867029607296,0.00045158853754401207
1773790333546441200,3.908441162109375,0.000763352494686842,0.001210253220051527,-0.0012506917119026184
1773790333566404400,3.928404296875,0.0005552879301831126,0.0011298756580799818,-0.00008022552356123924
1773790333586367500,3.948367431640625,-0.00011861062375828624,0.00007856078445911407,-0.0001338990405201912
1773790333606329000,3.9683291015625,-0.0007586641586385667,0.0004798423033207655,0.0007232171483337879
1773790333626292200,3.988292236328125,0.0002735245507210493,0.0001676271203905344,0.00007214676588773727
1773790333646255400,4.00825537109375,-0.00009311316534876823,0.0006227488629519939,0.000501308124512434
1773790333666218200,4.02821826171875,0.0004483516968321055,-0.0013802102766931057,0.0011465712450444698
1773790333686181400,4.048181396484375,0.0003088141675107181,-0.0006826044991612434,-0.0011859098449349403
1773790333706144300,4.068144287109375,-0.000028059788746759295,0.0012646365212276578,0.0004629967734217644
1773790333726107400,4.088107421875,0.001819069730117917,0.0011939886026084423,-0.0017690015956759453
1773790333746069200,4.1080693359375,-0.0004105265543330461,-0.00037869811058044434,0.0002080937847495079
1773790333766032100,4.1280322265625,0.000384468148695305,-0.0007868052925914526,0.0007504308596253395
1773790333785995300,4.147995361328125,0.0008787066908553243,0.0011273093987256289,-0.0012059956789016724
1773790333805958100,4.167958251953125,0.0010381569154560566,0.000008772360160946846,0.00034188060089945793
1773790333825921300,4.18792138671875,-0.00045561822480522096,-0.0004145931452512741,-0.0007930747233331203
1773790333845884400,4.207884521484375,0.00010046012175735086,-0.0006092761177569628,0.0012658098712563515
1773790333865847300,4.227847412109375,-0.0007615459617227316,-0.0005244894418865442,0.0010315058752894402
1773790333885809200,4.24780908203125,-0.000875990663189441,-0.0016482044011354446,-0.0009363265708088875
1773790333905772300,4.267772216796875,-0.00001573060580994934,-0.00015886779874563217,-0.0006068400107324123
1773790333925735200,4.287735107421875,0.00004162199911661446,-0.0007564474362879992,0.0002771061845123768
1773790333945698300,4.3076982421875,-0.0019920445047318935,0.00025535537861287594,0.0007578921504318714
1773790333965661200,4.3276611328125,-0.0004319235449656844,0.00031900079920887947,0.0002416973002254963
1773790333985624300,4.347624267578125,0.00034821091685444117,0.0000702952966094017,-0.0013481671921908855
1773790334005587500,4.36758740234375,-0.0007325794431380928,-0.00006218627095222473,-0.000599391758441925
1773790334025549000,4.387549072265625,0.00019137293566018343,-0.00019216304644942284,0.0009608943946659565
1773790334045512200,4.40751220703125,-0.0005781694198958576,0.0001016336027532816,0.00030795857310295105
1773790334065475300,4.427475341796875,0.0002492788480594754,0.0005102187860757113,0.00004916451871395111
1773790334085438200,4.447438232421875,-0.000307434587739408,0.000003112480044364929,-0.001042529009282589
1773790334105401300,4.4674013671875,-0.00012190423149149865,-0.0011689604725688696,-0.0005890801548957825
1773790334125364200,4.4873642578125,0.00045614311238750815,-0.0010371454991400242,-0.0002915943041443825
1773790334145327400,4.507327392578125,0.00047302822349593043,0.00003100372850894928,0.0006792424246668816
1773790334165289500,4.52728955078125,-0.0010773974936455488,-0.00009550340473651886,-0.00036816205829381943
1773790334185252000,4.547252197265625,0.0017652777023613453,0.0006391939241439104,0.00009182514622807503
1773790334205215200,4.56721533203125,-0.0001662474824115634,-0.0006399636622518301,0.0001083938404917717
1773790334225178400,4.587178466796875,0.0007105425465852022,0.00045224186033010483,0.000329513568431139
1773790334245141200,4.607141357421875,0.0010337462881579995,-0.0007283042650669813,0.00036616669967770576
1773790334265104400,4.6271044921875,-0.0006951905670575798,-0.000406583771109581,0.00012731458991765976
1773790334285067300,4.6470673828125,0.0008927416056394577,0.000507317716255784,-0.0001125996932387352
1773790334305029400,4.667029296875,0.00026931686443276703,0.0003802881110459566,0.0006365720182657242
1773790334324992300,4.6869921875,0.00021716859191656113,-0.0006901456508785486,-0.0009949272498488426
1773790334344955100,4.706955078125,-0.00008076125232037157,-0.0005326918326318264,0.0003841305151581764
1773790334364918300,4.726918212890625,-0.0001569793384987861,-0.0004821065813302994,0.0006389138288795948
1773790334384881200,4.746881103515625,0.0012512942776083946,-0.0006231304723769426,-0.0005196142010390759
1773790334404844300,4.76684423828125,-0.00020747804956045002,0.00006099720485508442,-0.0020413477905094624
1773790334424807400,4.786807373046875,0.00007200568506959826,-0.0004573517944663763,-0.0017475197091698647
1773790334444769300,4.806769287109375,-0.0007396524306386709,-0.00004664878360927105,-0.00021234573796391487
1773790334464732200,4.826732177734375,-0.0013808466028422117,-0.0006835279054939747,-0.0003893752582371235
1773790334484695300,4.8466953125,0.0001480922510381788,0.0011527331080287695,0.00017512217164039612
1773790334504658400,4.866658447265625,-0.0009649815037846565,0.0002592636737972498,0.001188604161143303
1773790334524621600,4.88662158203125,-0.0004627155140042305,-0.00033405888825654984,-0.0004908698610961437
1773790334544584400,4.90658447265625,-0.001049163518473506,-0.000014946796000003815,-0.001834760420024395
1773790334564547600,4.926547607421875,-0.0006228627171367407,0.0008078522514551878,0.000290862750262022
1773790334584509700,4.946509765625,-0.0004527382552623749,0.00014325091615319252,-0.00040469830855727196
1773790334604472600,4.96647265625,-0.00009064859477803111,-0.0002911651972681284,-0.0009696781635284424
1773790334624435500,4.986435546875,0.0006046924972906709,-0.0006174996960908175,0.00006271852180361748
1773790334644398300,5.0063984375,-0.0005357731715776026,-0.00008133263327181339,0.0003154235891997814
1773790334664361500,5.026361572265625,-0.00005734758451581001,-0.00030660233460366726,-0.0018999939784407616
1773790334684324600,5.04632470703125,0.0013995373155921698,0.0001261914148926735,-0.000561961904168129
1773790334704287500,5.06628759765625,0.00008493202039971948,-0.0003993394784629345,-0.00012091360986232758
1773790334724249600,5.08624951171875,0.0008666639914736152,-0.0007542502135038376,0.0010236562229692936
1773790334744212700,5.106212646484375,-0.0008909525931812823,0.00008151051588356495,-0.00009014317765831947
1773790334764175600,5.126175537109375,0.0004904157249256968,-0.00032030767761170864,-0.00039363186806440353
1773790334784138500,5.146138427734375,0.00040389009518548846,0.00014818459749221802,0.0007860669866204262
1773790334804101400,5.166101318359375,0.00028069299878552556,0.00010572979226708412,-0.00017099780961871147
1773790334824064500,5.186064453125,0.0009551240364089608,-0.0008358203340321779,-0.00016546109691262245
1773790334844027400,5.20602734375,0.00018055463442578912,0.00029768957756459713,-0.00023759342730045319
1773790334863989500,5.225989501953125,-0.0008872264297679067,-0.00008764583617448807,-0.0004910421557724476
1773790334883952600,5.24595263671875,0.00043149711564183235,0.0004824178759008646,0.0008706445805728436
1773790334903915500,5.26591552734375,-0.00021330392337404191,-0.0005859390366822481,-0.0006621573120355606
1773790334923878400,5.28587841796875,0.0009370046318508685,-0.0006584413349628448,0.0005782810039818287
1773790334943841500,5.305841552734375,0.0014665406197309494,0.00012315716594457626,-0.000699169933795929
1773790334963804400,5.325804443359375,0.0005873108748346567,-0.0002806219272315502,0.0003302786499261856
1773790334983767600,5.345767578125,0.0003800669510383159,0.0012493021786212921,-0.000105992890894413
1773790335003729700,5.365729736328125,0.0010070287389680743,0.00010942062363028526,0.0006059561856091022
1773790335023692500,5.385692626953125,0.0009672014275565743,-0.001400568289682269,0.0003627557307481766
1773790335043655700,5.40565576171875,0.0006034967955201864,-0.0004981216043233871,0.00007608113810420036
1773790335063618300,5.425618408203125,0.0011766490060836077,-0.0007219561375677586,0.00011563533917069435
1773790335083581400,5.44558154296875,-0.00011291075497865677,-0.0009366492740809917,0.0003331354819238186
1773790335103544600,5.465544677734375,0.0006716703064739704,0.0010130936279892921,-0.0005665300413966179
1773790335123507500,5.485507568359375,-0.0005174186080694199,-0.0010572134051471949,0.00034987274557352066
1773790335143469600,5.505469482421875,0.0000045160704758018255,-0.0017324641812592745,0.0006674542091786861
1773790335163432700,5.5254326171875,0.0000285309215541929,0.0006694099865853786,0.0003721187822520733
1773790335183395600,5.5453955078125,0.0001470826391596347,0.00009733112528920174,-0.0014261244796216488
1773790335203358700,5.565358642578125,0.0003517824225127697,0.0012556888395920396,0.00040377257391810417
1773790335223321300,5.5853212890625,0.0009276975179091096,-0.001212569186463952,-0.0004058685153722763
1773790335243284500,5.605284423828125,-0.00008298450848087668,-0.0006486575584858656,0.0017705964855849743
1773790335263247600,5.62524755859375,0.0006515216664411128,-0.00023477338254451752,0.0006744158454239368
1773790335283209500,5.64520947265625,-0.00007868045940995216,0.00005186768248677254,-0.0015374301001429558
1773790335303172600,5.665172607421875,0.00011553973308764398,0.0004974466282874346,0.00119350990280509
1773790335323135500,5.685135498046875,0.0019507115939632058,-0.00016769603826105595,-0.00020022597163915634
1773790335343098600,5.7050986328125,-0.00045964939636178315,-0.000016898848116397858,0.0011386028490960598
1773790335363061500,5.7250615234375,0.0010338531574234366,0.0013715412933379412,-0.0011265072971582413
1773790335383024400,5.7450244140625,0.0008914549835026264,-0.0003961652982980013,-0.0009736618958413601
1773790335402986500,5.764986572265625,0.0007085540564730763,0.00023978413082659245,-0.00046984897926449776
1773790335422949600,5.78494970703125,-0.0002877275110222399,-0.0002379522193223238,0.0000045835040509700775
1773790335442912500,5.80491259765625,-0.00023132428759709,-0.0002501443959772587,-0.00038879038766026497
1773790335462875600,5.824875732421875,0.0013214919017627835,0.0010473986621946096,-0.0007284828461706638
1773790335482838500,5.844838623046875,0.0006630407297052443,-0.001193813281133771,-0.0009863530285656452
1773790335502800600,5.864800537109375,0.00031007936922833323,-0.0006968195084482431,0.0007963343523442745
1773790335522763800,5.884763671875,-0.0008776867762207985,0.0015954592963680625,0.00020103715360164642
1773790335542726000,5.904725830078125,-0.000039344216929748654,-0.0009111019317060709,0.0004180637188255787
1773790335562688800,5.924688720703125,-0.00006577622843906283,0.0014061459805816412,-0.0005583283491432667
1773790335582652000,5.94465185546875,-0.00003931808168999851,-0.0006855435203760862,0.0007735481485724449
1773790335602614800,5.96461474609375,-0.00114718871191144,-0.00006240955553948879,0.00002031354233622551
1773790335622577700,5.98457763671875,0.00017139791452791542,0.0007493656594306231,-0.0003293994814157486
1773790335642540800,6.004540771484375,0.00008058108505792916,0.000271777156740427,0.00009777303785085678
1773790335662503700,6.024503662109375,-0.0006113516865298152,-0.0010203400161117315,-0.0019674752838909626
1773790335682465800,6.0444658203125,-0.0013366884086281061,0.0001618273090571165,0.0009460626170039177
1773790335702429000,6.064428955078125,0.0006964387139305472,-0.000733615830540657,0.0012162281200289726
1773790335722391800,6.084391845703125,0.0015136003494262695,0.0003053999971598387,0.0005681351758539677
1773790335742355000,6.10435498046875,-0.00033782387617975473,0.001595469657331705,0.0002033403143286705
1773790335762317800,6.12431787109375,-0.0011812762822955847,0.0026718636509031057,-0.0001395666040480137
1773790335782280700,6.14428076171875,0.0005441156681627035,-0.0006477432325482368,0.00014910800382494926
1773790335802242800,6.164242919921875,0.0006257336353883147,-0.00030398136004805565,-0.00029729539528489113
1773790335822205700,6.184205810546875,-0.00143733574077487,-0.00027942657470703125,-0.0007576905190944672
1773790335842168800,6.2041689453125,-0.0010750829242169857,0.0008786669932305813,0.0012407372705638409
1773790335862131700,6.224131591796875,0.0006274508778005838,0.00004456774331629276,-0.0002405247651040554
1773790335882094800,6.2440947265625,-0.0006873607635498047,0.00022718822583556175,-0.0003940626047551632
1773790335902058000,6.26405810546875,-0.0004408686945680529,-0.00034748599864542484,0.0010856585577130318
1773790335922020600,6.2840205078125,0.00009734457125887275,-0.00012587127275764942,-0.001089809462428093
1773790335941982700,6.303982666015625,-0.000944885890930891,0.00012948410585522652,0.00031699473038315773
1773790335961945900,6.32394580078125,0.0013026103843003511,-0.0005514335352927446,0.0005281516350805759
1773790335981908700,6.34390869140625,-0.0008367414702661335,-0.0012002992443740368,-0.000061021652072668076
1773790336001872000,6.363871826171875,-0.00012646595132537186,0.0007770324591547251,0.00021608080714941025
1773790336021834800,6.383834716796875,-0.00009415202657692134,0.0002286299131810665,-0.0002059582620859146
1773790336041798000,6.4037978515625,0.0008518671384081244,0.0007310798391699791,0.0006200568750500679
1773790336061759700,6.423759765625,-0.00051635573618114,0.00044593517668545246,-0.001055531669408083
1773790336081722600,6.44372265625,0.00013392537948675454,0.0011000509839504957,0.0007234886288642883
1773790336101685800,6.463685791015625,0.0007105685072019696,-0.0004224230069667101,-0.00009020185098052025
1773790336121649000,6.48364892578125,0.0007878638571128249,0.00006259768269956112,0.0006207595579326153
1773790336141611800,6.50361181640625,0.0017255590064451098,-0.0005698250606656075,0.00032828887924551964
1773790336161575000,6.523574951171875,0.0011877347715198994,0.000671345042064786,0.0007356074638664722
1773790336181537800,6.543537841796875,-0.000327440066030249,0.00026313262060284615,-0.000012340955436229706
1773790336201499600,6.563499755859375,0.00015808900934644043,0.00020353030413389206,-0.00001294165849685669
1773790336221462800,6.583462890625,0.0004581573011819273,-0.00042615411803126335,0.0003716559149324894
1773790336241425700,6.60342578125,-0.0008875568164512515,0.00003266683779656887,0.0005684578791260719
1773790336261388800,6.623388916015625,-0.00034441580646671355,-0.0005342361982911825,0.0006040274165570736
1773790336281351700,6.6433515625,0.00033426290610805154,-0.0007991623133420944,-0.00067098718136549
1773790336301314800,6.663314697265625,0.0008497625822201371,-0.00007944577373564243,-0.00010379450395703316
1773790336321278000,6.68327783203125,0.00008551750215701759,0.00011822790838778019,-0.0005181888118386269
1773790336341239800,6.70323974609375,0.0002063442807411775,0.0005007819272577763,-0.00023336056619882584
1773790336361202700,6.72320263671875,0.0012175568845123053,-0.00030400347895920277,-0.00047493213787674904
1773790336381165800,6.743165771484375,0.001303250901401043,-0.000378988916054368,-0.0005647856742143631
1773790336401128700,6.763128662109375,0.0009965242352336645,-0.000654066214337945,0.0007987022399902344
1773790336421091800,6.783091796875,0.00007168261799961329,-0.00010370975360274315,0.0003266516141593456
1773790336441054700,6.8030546875,-0.00043091096449643373,-0.0006788040045648813,-0.0003850124776363373
1773790336461016800,6.823016845703125,0.00022292454377748072,-0.00024437066167593,-0.00017755012959241867
1773790336480979700,6.842979736328125,-0.0006110410904511809,0.00016644573770463467,0.0005475529469549656
1773790336500942600,6.862942626953125,-0.0000886443885974586,-0.0007350468076765537,0.0003963075578212738
1773790336520905700,6.88290576171875,0.00047659361734986305,-0.00008738785982131958,0.0020069831516593695
1773790336540868900,6.902868896484375,0.0014427818823605776,0.00010865670628845692,-0.0004416392184793949
1773790336560831500,6.92283154296875,-0.0008678028243593872,0.00010696682147681713,0.0005325847305357456
1773790336580794600,6.942794677734375,0.0009563262574374676,0.0005496430676430464,-0.0016168812289834023
1773790336600756700,6.9627568359375,0.0003690150042530149,-0.0008492078632116318,0.0008373670279979706
1773790336620719600,6.9827197265625,0.00002374098403379321,-0.0010310406796634197,0.00012396322563290596
1773790336640682800,7.002682861328125,-0.0005998485721647739,-0.0003256059717386961,0.0005252356640994549
1773790336660645600,7.022645751953125,0.0007586171850562096,0.0005845178384333849,-0.000026018358767032623
1773790336680608800,7.04260888671875,0.0005451561883091927,-0.000008777948096394539,-0.0002608965151011944
1773790336700571600,7.062571533203125,0.0004272700462024659,-0.0002577889245003462,0.0006181681528687477
1773790336720533500,7.082533447265625,0.0002820551162585616,0.0001563935074955225,-0.0002985866740345955
1773790336740496600,7.10249658203125,-0.0002538695989642292,-0.0005084220319986343,-0.0001187305897474289
1773790336760459800,7.122459716796875,-0.00003724114503711462,0.0004491605795919895,-0.00022665131837129593
1773790336780422700,7.142422607421875,-0.00003137232852168381,-0.00035466975532472134,0.00027168914675712585
1773790336800385800,7.1623857421875,-0.0000605759269092232,-0.0001811925321817398,-0.0014209537766873837
1773790336820348700,7.1823486328125,0.0001728232455207035,0.00046596978791058064,-0.00003358861431479454
1773790336840310500,7.202310546875,0.0015702672535553575,-0.0005101524293422699,0.0005355724133551121
1773790336860273700,7.222273681640625,-0.00016684929141774774,-0.0010139155201613903,-0.000011175870895385742
1773790336880236500,7.242236572265625,-0.000004609813913702965,0.0014588494086638093,-0.0012872591614723206
1773790336900199700,7.26219970703125,0.0007211522897705436,-0.0004513426683843136,-0.000277186743915081
1773790336920162600,7.28216259765625,0.00007487538096029311,-0.0008773754816502333,-0.0006974018178880215
1773790336940125700,7.302125732421875,-0.000854992656968534,-0.0005290692206472158,-0.00006907526403665543
1773790336960088800,7.3220888671875,0.00033403668203391135,-0.0003922425676137209,0.00030835671350359917
1773790336980050700,7.34205078125,0.0001070031285053119,-0.00024628336541354656,-0.0020029954612255096
1773790337000013600,7.362013671875,0.0006003206362947822,0.0006617025937885046,-0.00181667972356081
1773790337019976700,7.381976806640625,-0.00005376420449465513,-0.001286857295781374,-0.0004727533087134361
1773790337039939600,7.401939697265625,0.00021739982184953988,0.0003750724717974663,-0.0007659452967345715
1773790337059902700,7.42190283203125,-0.000874690362252295,-0.000405516242608428,0.0006818887777626514
1773790337079865600,7.441865478515625,0.00011539639672264457,0.0008839950896799564,-0.00026016123592853546
1773790337099827700,7.46182763671875,0.0010706958128139377,0.0007556856144219637,0.00034536467865109444
1773790337119790600,7.48179052734375,-0.0015306854620575905,-0.0014778831973671913,0.0002464447170495987
1773790337139753500,7.50175341796875,0.00002774308086372912,0.000433553708717227,0.001059777569025755
1773790337159716600,7.521716552734375,0.0012930179946124554,-0.0008564868476241827,-0.0003725150600075722
1773790337179679700,7.5416796875,0.0008567849290557206,0.0011289723915979266,-0.0012692362070083618
1773790337199642600,7.561642578125,-0.0007221513660624623,-0.00003096950240433216,-0.0007166811265051365
1773790337219604700,7.581604736328125,0.000902739935554564,0.0006487136706709862,-0.000018898863345384598
1773790337239568000,7.60156787109375,-0.000019141269149258733,0.0012370077893137932,-0.0007719756104052067
1773790337259530500,7.621530517578125,0.00021108455257490277,-0.0012039903085678816,0.000016505364328622818
1773790337279493600,7.64149365234375,-0.000622399675194174,-0.0012788607273250818,-0.00011363904923200607
1773790337299456500,7.66145654296875,-0.00043255958007648587,-0.00045153358951210976,-0.0002883598208427429
1773790337319419600,7.681419677734375,-0.0017533422214910388,0.000478735426440835,-0.0007475572638213634
1773790337339381800,7.7013818359375,-0.000041776656871661544,0.0010655316291376948,-0.00011502904817461967
1773790337359344600,7.7213447265625,0.00003774708602577448,-0.00013800989836454391,-0.0016649281606078148
1773790337379307800,7.741307861328125,-0.001437598024494946,-0.0006106984801590443,0.0007996838539838791
1773790337399270700,7.761270751953125,0.0006023675668984652,-0.00026169815100729465,-0.00037646200507879257
1773790337419233500,7.781233642578125,-0.0003965904179494828,0.00007816427387297153,0.001089522149413824
1773790337439196700,7.80119677734375,-0.0005530616035684943,0.00018869549967348576,0.00011110259220004082
1773790337459159600,7.82115966796875,-0.001381234498694539,-0.000332145718857646,0.0007793880067765713
1773790337479121700,7.84112158203125,0.000196048102225177,-0.00009971670806407928,-0.001924675889313221
1773790337499085300,7.861085205078125,-0.0009668573038652539,-0.0001911506988108158,0.000043437816202640533
1773790337519048000,7.8810478515625,0.0003684030089061707,0.0002603537868708372,0.0012921574525535107
1773790337539011000,7.901010986328125,-0.0006813714862801135,-0.0004682184662669897,-0.0002790512517094612
1773790337558974000,7.920973876953125,-0.00043221781379543245,0.0004938014317303896,0.0006493390537798405
1773790337578937000,7.94093701171875,-0.0013018804602324963,0.00025080633349716663,-0.000033978838473558426
1773790337598899200,7.960899169921875,0.0004397061711642891,-0.00018601492047309875,0.0007927119731903076
1773790337618862000,7.980862060546875,-0.0010806955397129059,0.0012101464672014117,0.0006135045550763607
1773790337638825200,8.0008251953125,-0.0012812805362045765,-0.0008298787288367748,-0.0003330335021018982
1773790337658787800,8.020787841796874,0.0012746556894853711,0.0007616952061653137,-0.00012936536222696304
1773790337678751000,8.0407509765625,0.0008044682908803225,-0.0002871525939553976,0.0006457432173192501
1773790337698714000,8.060714111328124,-0.0009312212932854891,-0.000409573782235384,0.00020972965285182
1773790337718676000,8.080676025390625,-0.0010846888180822134,-0.00031563802622258663,0.00030955299735069275
1773790337738639000,8.10063916015625,0.00014241531607694924,0.0005062941927462816,0.0008983379229903221
1773790337758602200,8.120602294921875,-0.0006239786744117737,0.00015294109471142292,0.0003403141163289547
1773790337778565000,8.140565185546874,0.0012926383642479777,0.0004083805251866579,-0.00005998089909553528
1773790337798528300,8.1605283203125,0.001854780944995582,-0.00039149634540081024,0.0011006975546479225
1773790337818491000,8.180490966796874,-0.0004549581790342927,-0.0009135699365288019,0.0006772498600184917
1773790337838453000,8.200452880859375,-0.0005961169954389334,-0.00014763325452804565,-0.00011629192158579826
1773790337858416000,8.220416015625,0.001215188531205058,0.00006993929855525494,-0.0006094775162637234
1773790337878379000,8.24037890625,0.00023685589258093387,-0.00025199633091688156,0.00016557145863771439
1773790337898342100,8.260342041015624,0.000411027402151376,-0.00043446500785648823,-0.0021559083834290504
1773790337918305300,8.28030517578125,-0.00013079978816676885,0.0004998391959816217,-0.0007190592586994171
1773790337938268200,8.30026806640625,0.0009172516292892396,-0.0004940275102853775,-0.0007876111194491386
1773790337958230000,8.32022998046875,-0.0008584686438553035,0.00051882304251194,0.00005775643512606621
1773790337978193200,8.340193115234374,-0.0013699590926989913,0.00006074109114706516,-0.0017729573883116245
1773790337998156000,8.360156005859375,0.0009428848279640079,0.0003353864885866642,-0.00017893919721245766
1773790338018119200,8.380119140625,-0.0003738231025636196,0.00017053494229912758,-0.0008019385859370232
1773790338038082000,8.40008203125,-0.0005934254731982946,0.0014664441114291549,-0.0013765934854745865
1773790338058045200,8.420045166015624,-0.0005877913208678365,-0.00014239433221518993,-0.0013333316892385483
1773790338078007000,8.440007080078125,-0.00040942642954178154,-0.0003069797530770302,-0.0004856875166296959
1773790338097970000,8.459969970703124,0.00026829488342627883,-0.0004995409399271011,-0.0018499549478292465
1773790338117933000,8.47993310546875,-0.00010842058691196144,0.00047556660138070583,-0.000041637104004621506
1773790338137896000,8.49989599609375,0.0004939773352816701,0.00039470638148486614,-0.001391788013279438
1773790338157859000,8.519859130859375,0.0017962799174711108,0.0007089835125952959,-0.00032322853803634644
1773790338177822200,8.539822265625,-0.0005447875009849668,-0.0005039807874709368,0.00009430991485714912
1773790338197785000,8.55978515625,0.0005479807150550187,-0.000005666399374604225,-0.0003042379394173622
1773790338217747000,8.579746826171874,-0.0008018681546673179,-0.0000921604223549366,0.0009538396261632442
1773790338237710000,8.5997099609375,-0.0015392289496958256,0.001167980721220374,0.0002877018414437771
1773790338257673000,8.6196728515625,0.00038318903534673154,0.0006287572905421257,0.000356932170689106
1773790338277636000,8.639635986328125,-0.0003838074626401067,0.0009440751746296883,0.0013908282853662968
1773790338297599000,8.659598876953124,0.00013766263145953417,0.00023833848536014557,0.00000890437513589859
1773790338317561000,8.67956103515625,-0.00013403338380157948,-0.0014699429739266634,-0.0004882970824837685
1773790338337524200,8.699524169921874,-0.001116371713578701,0.0007607124280184507,0.0015089679509401321
1773790338357486800,8.71948681640625,-0.00128383026458323,-0.00028877612203359604,-0.0005851639434695244
1773790338377450000,8.739449951171874,0.0009522191248834133,0.0007379413582384586,-0.0016466639935970306
1773790338397413000,8.7594130859375,0.00023549440084025264,-0.000050758710131049156,-0.0005014068447053432
1773790338417376000,8.7793759765625,0.0019792900420725346,0.0002419678494334221,-0.00012527266517281532
1773790338437338000,8.799338134765625,-0.00034216203493997455,-0.001177151221781969,0.001581492368131876
1773790338457301200,8.81930126953125,-0.0013045808300375938,-0.00007926882244646549,0.0007678568363189697
1773790338477264100,8.83926416015625,0.00008071053889580071,0.002316416474059224,0.0012539457529783249
1773790338497227800,8.859227783203124,0.0007177665829658508,0.0003795942757278681,0.00005299225449562073
1773790338517190700,8.879190673828125,0.00025615812046453357,-0.0006657694466412067,-0.000434371642768383
1773790338537153800,8.89915380859375,0.0002605584159027785,-0.0003084226045757532,-0.0001436350867152214
1773790338557115600,8.91911572265625,0.00035981781547889113,0.000003848224878311157,0.0014507453888654709
1773790338577078500,8.93907861328125,-0.0004894962767139077,-0.0008530453778803349,-0.0006718053482472897
1773790338597041700,8.959041748046875,0.00010219641262665391,-0.000536993145942688,0.0008495231159031391
1773790338617004500,8.979004638671874,0.0008181773009710014,0.0005714208818972111,-0.000940319150686264
1773790338636967700,8.9989677734375,-0.0006989199318923056,0.0010424063075333834,-0.0007345047779381275
1773790338656930600,9.0189306640625,-0.0007178387604653835,0.00032565114088356495,0.0010292809456586838
1773790338676892700,9.038892578125,0.00023905193665996194,0.00031731068156659603,0.0008035339415073395
1773790338696855600,9.05885546875,-0.0009440858848392963,0.00032119988463819027,-0.0023545967414975166
1773790338716818700,9.078818603515625,-0.0010511393193155527,0.0006264750845730305,-0.00018474506214261055
1773790338736781600,9.098781494140624,-0.0001371782855130732,0.0020175338722765446,-0.0012324047274887562
1773790338756744700,9.11874462890625,0.00006428052438423038,-0.00031933956779539585,-0.0011921534314751625
1773790338776707600,9.13870751953125,0.000767085759434849,0.00007764319889247417,-0.0004986543208360672
1773790338796669700,9.158669677734375,-0.00024048099294304848,0.00028320797719061375,-0.0004243352450430393
1773790338816632800,9.1786328125,-0.00007321417797356844,0.0005661358591169119,0.00036182207986712456
1773790338836595700,9.198595703125,-0.00020241568563506007,0.0007045730017125607,0.0007262704893946648
1773790338856558600,9.21855859375,-0.0009581904741935432,-0.00042344373650848866,0.0011510229669511318
1773790338876521500,9.238521484375,0.0008261193288490176,0.0003720128443092108,-0.0007101553492248058
1773790338896484600,9.258484619140624,0.0003761403204407543,0.0007256979588419199,-0.0008694804273545742
1773790338916446700,9.27844677734375,0.00025404078769497573,-0.000713602639734745,-0.0005556331016123295
1773790338936409600,9.29840966796875,-0.0004606442525982857,-0.0020007214043289423,-0.0010269670747220516
1773790338956372700,9.318372802734375,-0.0011350673157721758,0.0003432061057537794,-0.0007178913801908493
1773790338976336000,9.3383359375,-0.00022735403035767376,0.0006927200593054295,-0.0003091101534664631
1773790338996298500,9.358298583984375,0.0010621645487844944,-0.0007091653533279896,0.00017609167844057083
1773790339016261600,9.37826171875,0.0002899697865359485,-0.00021007726900279522,0.0008724289946258068
1773790339036223700,9.3982236328125,-0.0005545008461922407,0.000037867575883865356,0.0002292976714670658
1773790339056186600,9.4181865234375,0.0014880968956276774,-0.00028227269649505615,-0.0013733725063502789
1773790339076149800,9.438149658203125,-0.00026697112480178475,-0.0008450169116258621,0.0000019618310034275055
1773790339096112600,9.458112548828124,0.0002227768418379128,0.00009670853614807129,-0.0002061976119875908
1773790339116075800,9.47807568359375,-0.0005055476212874055,-0.0005747913382947445,0.0007231095805764198
1773790339136038700,9.49803857421875,-0.00022565085964743048,0.0003763977438211441,0.0005013840273022652
1773790339156000500,9.51800048828125,-0.0007453992147929966,0.0003037650603801012,-0.00042306166142225266
1773790339175963600,9.537963623046876,0.000050367729272693396,0.0008565825410187244,0.0008852495811879635
1773790339195926800,9.5579267578125,-0.0001235782983712852,-0.0006098211742937565,0.00019617797806859016
1773790339215889700,9.5778896484375,0.001188941765576601,-0.0006032770033925772,0.0007607494480907917
1773790339235852800,9.597852783203125,-0.0009413316729478538,-0.001233804738149047,-0.00013867206871509552
1773790339255815700,9.617815673828124,0.0006049690418876708,-0.00031770230270922184,-0.00032728398218750954
1773790339275777500,9.637777587890625,-0.0003679790534079075,-0.000587433809414506,-0.001945345662534237
1773790339295740700,9.65774072265625,0.0010910098208114505,0.0006535099819302559,0.0010794037953019142
1773790339315703600,9.67770361328125,0.0006499820738099515,0.0006041291635483503,0.0006748861633241177
1773790339335666700,9.697666748046874,-0.0010586754651740193,-0.0003340565599501133,0.00021949782967567444
1773790339355629600,9.717629638671875,-0.0024613800924271345,-0.0008552521467208862,-0.00020946701988577843
1773790339375592700,9.7375927734375,0.0008438137592747808,-0.0002189932856708765,-0.0003607883118093014
1773790339395554600,9.757554443359375,0.0001746168127283454,0.0004983569961041212,-0.000802353024482727
1773790339415517700,9.777517578125,0.000497841858305037,-0.00017328374087810516,-0.0003557954914867878
1773790339435480600,9.79748046875,-0.0004593495395965874,0.0006073827389627695,-0.00003261398524045944
1773790339455443700,9.817443603515626,0.0002936335513368249,-0.00008322461508214474,-0.000016787555068731308
1773790339475406600,9.837406494140625,0.0002951044007204473,-0.00007377215661108494,-0.0016494393348693848
1773790339495368700,9.85736865234375,0.00040002993773669004,0.0010181774850934744,0.000008686445653438568
1773790339515330800,9.877330810546875,0.0001457638427382335,-0.0006490740925073624,0.00004484178498387337
1773790339535293700,9.897293701171876,-0.0002556599210947752,0.0003585482481867075,0.0005427212454378605
1773790339555256800,9.9172568359375,-0.0012712094467133284,0.0007345746271312237,0.0007489924319088459
1773790339575220000,9.937219970703126,-0.0006567796226590872,-0.000033800723031163216,-0.0005820579826831818
1773790339595182800,9.957182861328125,0.00004354519478511065,0.0003881710581481457,0.0002603614702820778
1773790339615144700,9.977144775390625,-0.00006478815339505672,-0.00009238929487764835,0.00005085719749331474
1773790339635107800,9.99710791015625,0.00027669689734466374,0.0014673182740807533,-0.0004337565042078495
1773790339655070700,10.01707080078125,0.00028149777790531516,0.0004012999124825001,0.0006054812110960484
1773790339675033900,10.037033935546875,0.0009866846958175302,0.0003553698770701885,-0.0007760096341371536
1773790339694996700,10.056996826171876,-0.0007464144146069884,-0.0004730022046715021,-0.0007883845828473568
1773790339714960000,10.0769599609375,0.001472464413382113,0.0007207368034869432,-0.0003976901061832905
1773790339734921700,10.096921630859375,0.0006347191520035267,-0.00006975117139518261,0.0006767981685698032
1773790339754884600,10.116884521484375,0.00013896079326514155,-0.0013426351360976696,0.0006229919381439686
1773790339774847700,10.13684765625,-0.0009704307303763926,-0.00047405902296304703,0.0016208197921514511
1773790339794811000,10.156810791015625,-0.00038516419590450823,0.0008048303425312042,-0.00013032229617238045
1773790339814773800,10.176773681640626,-0.00031190202571451664,0.00023281830362975597,-0.00005221040919423103
1773790339834735900,10.19673583984375,0.00041652354411780834,0.0012918120482936502,0.00010340660810470581
1773790339854699000,10.216698974609375,0.0014161288272589445,0.0005102397408336401,-0.0000058962032198905945
1773790339874661600,10.23666162109375,0.00015318021178245544,-0.0008686578366905451,-0.0015545315109193325
1773790339894624800,10.256624755859375,0.000522076094057411,-0.00014417781494557858,-0.0025038751773536205
1773790339914587600,10.276587646484375,0.00032048465800471604,-0.0010901375208050013,0.0021253370214253664
1773790339934550800,10.29655078125,0.0008596116676926613,-0.00012113689444959164,0.00023619923740625381
1773790339954513000,10.316512939453125,-0.0012323663104325533,0.00022145593538880348,0.0004163668490946293
1773790339974475800,10.336475830078125,-0.0004280410357750952,0.0005494235083460808,0.0003257766366004944
1773790339994439000,10.35643896484375,0.0000749698665458709,0.0009908031206578016,-0.00018190499395132065
1773790340014401800,10.37640185546875,0.00045171205420047045,0.0003695471677929163,-0.0023590954951941967
1773790340034364700,10.39636474609375,0.0001596042129676789,0.000995988491922617,0.00010932888835668564
1773790340054326800,10.416326904296875,0.00033627849188633263,-0.0000650966539978981,0.0007033473812043667
1773790340074290000,10.4362900390625,0.00006111443508416414,-0.0009062406606972218,0.0002494058571755886
1773790340094252800,10.456252685546875,-0.0005921163829043508,0.00046083051711320877,0.0008309520781040192
1773790340114216000,10.4762158203125,0.0010147688444703817,0.0021125483326613903,-0.0017616599798202515
1773790340134178800,10.4961787109375,0.0009861690923571587,-0.00040708109736442566,0.00032744230702519417
1773790340154142000,10.516141845703125,0.002594318240880966,-0.0004353695549070835,0.0007883920334279537
1773790340174103800,10.536103759765625,0.0005964194424450397,-0.0007607406005263329,0.00025327177718281746
1773790340194066700,10.556066650390624,-0.00016233682981692255,0.0004599627573043108,-0.000942726619541645
1773790340214029800,10.57602978515625,-0.00007681845454499125,0.0007888309191912413,-0.0005899714305996895
1773790340233992700,10.59599267578125,0.001673986786045134,-0.0003682535607367754,-0.00006502587348222733
1773790340253955800,10.615955810546875,-0.00027120590675622225,-0.0016982147935777903,-0.0003642984665930271
1773790340273919000,10.6359189453125,-0.0005275153089314699,0.0004970559384673834,-0.0007839514873921871
1773790340293880600,10.655880615234375,0.0013877905439585447,0.0006424011662602425,-0.0009867050684988499
1773790340313843700,10.67584375,0.000765948323532939,-0.00025473395362496376,-0.000784335657954216
1773790340333806800,10.695806884765625,0.001617240603081882,-0.00011719297617673874,0.0014429157599806786
1773790340353769700,10.715769775390624,0.0005487113958224654,0.0003751844633370638,0.0007174033671617508
1773790340373732900,10.73573291015625,0.00036308332346379757,-0.000046367524191737175,-0.0009534033015370369
1773790340393695000,10.755695068359374,0.0002656581054907292,0.000496760243549943,0.000047466251999139786
1773790340413657900,10.775657958984375,0.000562045257538557,-0.0005380550865083933,-0.0006918171420693398
1773790340433620700,10.795620849609374,0.00006214229506440461,0.0007174694910645485,0.0008179862052202225
1773790340453583600,10.81558349609375,0.00025850857491604984,-0.001065537566319108,0.00043640099465847015
1773790340473546800,10.835546630859374,-0.0002826178097166121,-0.0000551808625459671,0.0013900804333388805
1773790340493510000,10.855510009765625,-0.0015799666289240122,-0.00017059221863746643,-0.001074508298188448
1773790340513472000,10.875471923828124,0.0010978041682392359,0.0005475170910358429,-0.0010487032122910023
1773790340533435100,10.89543505859375,-0.0001708107301965356,-0.00047780503518879414,0.0009838943369686604
1773790340553398000,10.91539794921875,-0.0003286314895376563,-0.0009630238637328148,-0.0011712289415299892
1773790340573361200,10.935361083984375,-0.0006189193809404969,0.00021879863925278187,0.0002048923633992672
1773790340593324300,10.95532421875,-0.0005363051313906908,-0.0009165164083242416,0.0009725559502840042
1773790340613286100,10.9752861328125,-0.00006593464058823884,-0.0010025158990174532,-0.0004168730229139328
1773790340633249000,10.9952490234375,-9.781797416508198e-7,0.00027708965353667736,-0.0017923773266375065
1773790340653212200,11.015212158203125,-0.00010613998165354133,0.00005859043449163437,0.00011999765411019325
1773790340673175000,11.035175048828124,0.0009596102172508836,-0.00029311166144907475,-0.0003822045400738716
1773790340693138200,11.05513818359375,-0.0002730112464632839,-0.00027271872386336327,0.0006817076355218887
1773790340713101000,11.07510107421875,0.0006642704247497022,0.0006247230339795351,-0.0001976722851395607
1773790340733063000,11.09506298828125,0.00028402521274983883,-0.0012211091816425323,-0.0017511947080492973
1773790340753026000,11.115026123046874,-0.00019123093807138503,0.0004596114158630371,0.00044563785195350647
1773790340772989000,11.134989013671875,0.001528688706457615,0.000025551998987793922,0.000730093102902174
1773790340792952000,11.1549521484375,-0.00033118209103122354,0.00033575389534235,-0.00010968232527375221
1773790340812915200,11.174915283203125,0.000745099619962275,0.00038136355578899384,-0.0018443875014781952
1773790340832877000,11.194876953125,0.0013750115176662803,0.00098201516084373,-0.0006157620809972286
1773790340852840200,11.214840087890625,0.0001275529502891004,0.00012054573744535446,0.00047934381291270256
1773790340872803000,11.234802978515624,-0.0014664221089333296,0.00026926957070827484,0.0007084188982844353
1773790340892766000,11.254765869140625,0.0007672704523429275,0.00039013009518384933,0.0000035474076867103577
1773790340912729000,11.27472900390625,0.000033961376175284386,0.00030637532472610474,-0.00020399736240506172
1773790340932692000,11.29469189453125,0.0000298917293548584,0.0008140681311488152,0.0007125427946448326
1773790340952654000,11.314654052734374,-0.00140955054666847,-0.00046192482113838196,-0.0006395592354238033
1773790340972617200,11.3346171875,0.0006971335969865322,0.00029672449454665184,-0.000807824544608593
1773790340992580000,11.354580078125,0.0006052723620086908,0.000142714474350214,0.0009427852928638458
1773790341012543000,11.37454296875,0.0001953870232682675,-0.0005040112882852554,-0.0018738256767392159
1773790341032506000,11.394506103515624,0.0013100826181471348,-0.0007185298018157482,-0.0005452064797282219
1773790341052468000,11.414468017578125,0.00022107688710093498,0.0003305859863758087,-0.0017833341844379902
1773790341072431000,11.43443115234375,0.00015387972234748304,0.00023928610607981682,0.0005957284010946751
1773790341092394200,11.454394287109375,-0.0002800689253490418,0.00021490082144737244,0.0003629927523434162
1773790341112357000,11.474357177734374,0.00006460319855250418,0.0017193167004734278,0.0010340437293052673
1773790341132320300,11.4943203125,-0.00003192300209775567,0.0006041720043867826,0.0001920699141919613
1773790341152283100,11.514283203125,0.0006602174835279584,-0.0013300224673002958,-0.0006287815049290657
1773790341172245000,11.534244873046875,-0.000025974761229008436,0.0010901237837970257,-0.0009572291746735573
1773790341192208100,11.5542080078125,-0.00011307367822155356,0.00008870498277246952,-0.0010250243358314037
1773790341212171000,11.5741708984375,-0.0012234249152243137,0.0009287567809224129,0.0003815852105617523
1773790341232134100,11.594134033203124,0.0007090396247804165,-0.000893373042345047,0.0003484250046312809
1773790341252097000,11.614096923828125,-0.0013026725500822067,-0.0011931087356060743,0.001453249715268612
1773790341272059000,11.634058837890626,-0.00044882300426252186,-0.0004680871497839689,-0.0006923908367753029
1773790341292022000,11.65402197265625,-0.00010870068217627704,0.002230963436886668,-0.0010759076103568077
1773790341311985000,11.67398486328125,-0.0014219265431165695,0.000054135220125317574,-0.0002838452346622944
1773790341331948000,11.693947998046875,0.0003505351778585464,0.0010751087684184313,0.001039378810673952
1773790341351911200,11.7139111328125,-0.0002722232020460069,-0.0000501023605465889,0.0009135231375694275
1773790341371873000,11.733873046875,0.00020914082415401936,-0.0006937200669199228,0.0005650045350193977
1773790341391836200,11.753836181640626,0.0009761074325069785,-0.0005214081611484289,0.0005438150838017464
1773790341411799300,11.77379931640625,-0.0013984562829136848,-0.00045577739365398884,-0.00042746448889374733
1773790341431762000,11.793761962890626,-0.0012511205859482288,-0.000022985972464084625,-0.0006220727227628231
1773790341451725000,11.81372509765625,0.0006784405559301376,-0.0006992262788116932,-0.0003842976875603199
1773790341471688000,11.83368798828125,0.0003826534375548363,-0.0005153936799615622,0.000478857196867466
1773790341491650000,11.853650146484375,-0.0015881246654316783,-0.00020152959041297436,0.0008773109875619411
1773790341511613000,11.873613037109376,-0.000632875133305788,-0.000006652669981122017,-0.0010050730779767036
1773790341531575800,11.893575927734375,0.0007427294040098786,0.0001964832190424204,-0.0006429501809179783
1773790341551539000,11.9135390625,-0.00040954170981422067,-0.0001322657335549593,-0.0015573641285300255
1773790341571502000,11.933502197265625,0.0011856817873194814,0.00013543525710701942,0.0004735207185149193
1773790341591463700,11.953463623046876,-0.0018202860374003649,0.0008480225224047899,-0.0017820410430431366
1773790341611426800,11.9734267578125,0.000028239897801540792,-0.0010992477182298899,-0.00039245281368494034
1773790341631390000,11.993389892578126,-0.001152032520622015,0.000047359615564346313,-0.0017968174070119858
1773790341651352800,12.013352783203125,-0.0006890938966535032,-0.0002129077911376953,0.0006429841741919518
1773790341671316000,12.03331591796875,-0.000310234900098294,0.0008981563150882721,0.0009397156536579132
1773790341691278800,12.05327880859375,0.0004498153575696051,-0.0003030323423445225,-0.00034784572198987007
1773790341711241000,12.073240966796876,-0.0007510576397180557,-0.0007252076175063848,-0.0005431096069514751
1773790341731203800,12.093203857421875,0.0003784569853451103,0.0008051842451095581,-0.000487753190100193
