time,seconds_elapsed,z,y,x
1773790329682377200,0.044377197265625,0.0001411475386703387,-0.0029286781791597605,-0.003760383464396
1773790329702340000,0.064340087890625,0.00009614011651137844,-0.0033427998423576355,-0.005614742636680603
1773790329722303200,0.08430322265625,0.0002460760879330337,-0.0031212246976792812,-0.0054823835380375385
1773790329742266000,0.10426611328125,-0.0002687129599507898,-0.0020929782185703516,-0.006596117280423641
1773790329762229200,0.124229248046875,-0.001166198286227882,-0.0023880566004663706,-0.005938583053648472
1773790329782191400,0.14419140625,-0.0012418320402503014,-0.00245117349550128,-0.006488792132586241
1773790329802154200,0.164154296875,-0.0010285128373652697,-0.002517752582207322,-0.006352438125759363
1773790329822117000,0.1841171875,-0.0009182579233311117,-0.0030152308754622936,-0.00433109886944294
1773790329842080000,0.204080078125,-0.00015579492901451886,-0.005567871034145355,-0.005269596818834543
1773790329862043100,0.224043212890625,-0.0009957558941096067,-0.0012479572324082255,-0.004791026934981346
1773790329882006300,0.24400634765625,-0.00005858954318682663,-0.002520682057365775,-0.005391303449869156
1773790329901969200,0.26396923828125,-0.0006141249323263764,-0.0025505092926323414,-0.005393433850258589
1773790329921932300,0.283932373046875,0.0015014902455732226,-0.002570749493315816,-0.00546294217929244
1773790329941894400,0.303894287109375,-0.00043782367720268667,-0.0021973741240799427,-0.0061508365906775
1773790329961857300,0.323857177734375,-0.0004958806093782187,-0.0030067088082432747,-0.0057100835256278515
1773790329981820200,0.343820068359375,0.0008721852791495621,-0.0033803503029048443,-0.006939398590475321
1773790330001783000,0.363782958984375,-0.0003350256592966616,-0.0035931370221078396,-0.0054541537538170815
1773790330021746200,0.38374609375,0.0006647250265814364,-0.0031348068732768297,-0.0073410035111010075
1773790330041709300,0.403709228515625,0.000029294771593413316,-0.003197657410055399,-0.005250688176602125
1773790330061672200,0.423672119140625,0.0004426173691172153,-0.0018844527658075094,-0.007247793022543192
1773790330081635300,0.44363525390625,-0.0006274407496675849,-0.0025425199419260025,-0.00621129060164094
1773790330101598200,0.46359814453125,0.0010013486025854945,-0.002966228872537613,-0.006060821935534477
1773790330121560000,0.48356005859375,0.00010812433902174234,-0.004441353492438793,-0.006043245084583759
1773790330141523200,0.503523193359375,0.00004234426160110161,-0.0031547807157039642,-0.006185191683471203
1773790330161486000,0.523486083984375,-0.00046365635353140533,-0.004769987892359495,-0.0057252636179327965
1773790330181449200,0.54344921875,-0.0008817726047709584,-0.0029798108153045177,-0.006657902617007494
1773790330201412000,0.563412109375,0.0005640574963763356,-0.002183792181313038,-0.005898901727050543
1773790330221375200,0.583375244140625,0.000681236619129777,-0.0033366745337843895,-0.005244030617177486
1773790330241338400,0.60333837890625,-0.00138058268930763,-0.0030858046375215054,-0.0063154203817248344
1773790330261301200,0.62330126953125,0.0003235740587115288,-0.0020005665719509125,-0.005458415020257235
1773790330281264400,0.643264404296875,-0.000794420950114727,-0.0029888655990362167,-0.005422195885330439
1773790330301226200,0.663226318359375,-0.001642637769691646,-0.0026019082870334387,-0.005632053129374981
1773790330321189000,0.683189208984375,0.0003683151735458523,-0.003929493948817253,-0.005366003140807152
1773790330341152300,0.70315234375,0.001112935016863048,-0.003811249742284417,-0.00598518829792738
1773790330361115100,0.723115234375,0.0005629922379739583,-0.00224930583499372,-0.005590241402387619
1773790330381078300,0.743078369140625,0.00030652983696199954,-0.0031198931392282248,-0.0054613444954156876
1773790330401041200,0.763041259765625,-0.00014993596414569765,-0.003602457931265235,-0.005644037388265133
1773790330421004300,0.78300439453125,-0.0011920308461412787,-0.0027052389923483133,-0.0057532270438969135
1773790330440967400,0.802967529296875,0.0006210491410456598,-0.003575559938326478,-0.005991047248244286
1773790330460929300,0.82292919921875,0.0002972087822854519,-0.004004328977316618,-0.005672266706824303
1773790330480892200,0.84289208984375,-0.0011249192757532,-0.002557699801400304,-0.006414223462343216
1773790330500855000,0.86285498046875,0.0003174488083459437,-0.0031963258516043425,-0.006401173770427704
1773790330520818000,0.88281787109375,-0.000025300030756625347,-0.00415319949388504,-0.0059934440068900585
1773790330540781000,0.902781005859375,-0.00015206649550236762,-0.0020642161834985018,-0.005657086614519358
1773790330560744000,0.922743896484375,-0.0004111920716241002,-0.00321869645267725,-0.005845105741173029
1773790330580706800,0.942706787109375,0.0011914982460439205,-0.003634948516264558,-0.005338040180504322
1773790330600670000,0.962669921875,0.0007408913807012141,-0.0018551580142229795,-0.007104780990630388
1773790330620631800,0.9826318359375,0.00027856664382852614,-0.003655987558886409,-0.005791310220956802
1773790330640595000,1.002594970703125,0.0009374326909892261,-0.004111121874302626,-0.006453638430684805
1773790330660558000,1.02255810546875,-0.0019204054260626435,-0.0020072245970368385,-0.00580888707190752
1773790330680521000,1.04252099609375,0.0007629956235177815,-0.0030027141328901052,-0.005452289711683989
1773790330700483800,1.06248388671875,0.0004894890007562935,-0.004114584065973759,-0.007005977910012007
1773790330720446700,1.08244677734375,-0.0016245282022282481,-0.002083124592900276,-0.006416353862732649
1773790330740409900,1.102409912109375,-0.0005531385540962219,-0.0024586303625255823,-0.005371329374611378
1773790330760373000,1.122373046875,-0.00014540860138367862,-0.0032900692895054817,-0.005527923349291086
1773790330780335900,1.1423359375,-0.0017526262672618032,-0.0020037624053657055,-0.007497064769268036
1773790330800298000,1.162298095703125,0.00014381069922819734,-0.0029619678389281034,-0.006103432737290859
1773790330820261000,1.18226123046875,0.001193096162751317,-0.0029372002463787794,-0.005557218100875616
1773790330840224000,1.20222412109375,-0.001583249308168888,-0.0024519723374396563,-0.006398510653525591
1773790330860187000,1.222186767578125,-0.0007126618875190616,-0.003192597534507513,-0.0037526602391153574
1773790330880149800,1.242149658203125,0.0007030745036900043,-0.0033369408920407295,-0.0062823970802128315
1773790330900113000,1.26211279296875,-0.0016990967560559511,-0.0033981935121119022,-0.005314604379236698
1773790330920075800,1.28207568359375,-0.00013928332191426307,-0.002953978255391121,-0.006334328558295965
1773790330940039000,1.302038818359375,-0.0004269047058187425,-0.002323608146980405,-0.007631554268300533
1773790330960001000,1.3220009765625,-0.0013403689954429865,-0.003245860803872347,-0.005932457745075226
1773790330979964000,1.3419638671875,-0.00022423815971706063,-0.0026559706311672926,-0.005313006229698658
1773790330999926800,1.3619267578125,-0.00046365635353140533,-0.0031369375064969063,-0.006880276836454868
1773790331019890000,1.381889892578125,-0.0006378270918503404,-0.003186738584190607,-0.006713829003274441
1773790331039852800,1.401852783203125,-0.0005792375304736197,-0.0028815402183681726,-0.005675462540239096
1773790331059816000,1.42181591796875,0.00004447478931979276,-0.0031641016248613596,-0.006617156323045492
1773790331079778800,1.44177880859375,-0.0009771138429641724,-0.0023752732668071985,-0.006654706783592701
1773790331099741000,1.461740966796875,0.00043356261448934674,-0.003912449814379215,-0.0059686764143407345
1773790331119704000,1.4817041015625,-0.0009267800487577915,-0.003870105603709817,-0.005401955917477608
1773790331139666700,1.501666748046875,-0.00038642468280158937,-0.0031941954512149096,-0.006506635341793299
1773790331159629800,1.5216298828125,-0.0019355855183675885,-0.003054911969229579,-0.005651227664202452
1773790331179593000,1.541593017578125,-0.00019707392493728548,-0.0029856697656214237,-0.005398227367550135
1773790331199555800,1.561555908203125,-0.0005094627267681062,-0.003914846573024988,-0.004621915984898806
1773790331219519000,1.58151904296875,0.0003073287953156978,-0.002858903491869569,-0.005898901727050543
1773790331239481900,1.60148193359375,-0.000031158982892520726,-0.003436010330915451,-0.007164968643337488
1773790331259445000,1.621445068359375,-0.0004902879591099918,-0.0018745990237221122,-0.004746019374579191
1773790331279407000,1.641406982421875,-0.0015523566398769617,-0.0038250982761383057,-0.0062794676050543785
1773790331299369700,1.66136962890625,0.0010527475969865918,-0.0031342741567641497,-0.004375573713332415
1773790331319332900,1.681332763671875,-0.0004114583716727793,-0.004316984210163355,-0.005572664551436901
1773790331339295700,1.701295654296875,-0.00046152580762282014,-0.002344913315027952,-0.005654423497617245
1773790331359259000,1.7212587890625,-0.0002633866388350725,-0.0028333370573818684,-0.007364439312368631
1773790331379222000,1.741221923828125,0.0009028115891851485,-0.0029843382071703672,-0.0046751792542636395
1773790331399185000,1.761184814453125,0.0010359697043895721,-0.00421391986310482,-0.006066947244107723
1773790331419148000,1.78114794921875,0.0009661948424763978,-0.0027662254869937897,-0.0068238177336752415
1773790331439110000,1.80110986328125,0.0008018778171390295,-0.0013938985066488385,-0.006256031803786755
1773790331459072800,1.82107275390625,-0.00040240364614874125,-0.002659166231751442,-0.005393433850258589
1773790331479036000,1.841035888671875,0.0007960188668221235,-0.002910302486270666,-0.00583844818174839
1773790331498998500,1.86099853515625,-0.00024767397553659976,-0.0010343717876821756,-0.0055031562224030495
1773790331518961700,1.880961669921875,-0.0011789813870564103,-0.002436259761452675,-0.004810734186321497
1773790331538924800,1.9009248046875,-0.00035899411886930466,-0.0035475967451930046,-0.0054967645555734634
1773790331558887700,1.9208876953125,-0.0009302421822212636,-0.002118811011314392,-0.004703941289335489
1773790331578849500,1.940849609375,0.0002585929469205439,-0.003653058083727956,-0.005209409166127443
1773790331598812700,1.960812744140625,0.00006125270738266408,-0.003500991500914097,-0.005233644042164087
1773790331618775600,1.980775634765625,-0.0008333030855283141,-0.004006992094218731,-0.004729241598397493
1773790331638738700,2.00073876953125,0.00047164582065306604,-0.0031912659760564566,-0.005654956214129925
1773790331658701600,2.02070166015625,0.0006269080913625658,-0.002772350562736392,-0.005203284323215485
1773790331678664700,2.040664794921875,-0.000511593243572861,-0.0028519791085273027,-0.005096757784485817
1773790331698627600,2.060627685546875,-0.0007185208378359675,-0.0028133634477853775,-0.00700944010168314
1773790331718590700,2.0805908203125,0.0002633866388350725,-0.003468234557658434,-0.006130330264568329
1773790331738552600,2.100552490234375,-0.00038509309524670243,-0.002359294332563877,-0.004708468914031982
1773790331758515700,2.120515625,-0.002192314248532057,-0.0037555897142738104,-0.005678392015397549
1773790331778478600,2.140478515625,-0.000892691605258733,-0.003203516360372305,-0.004461327567696571
1773790331798441700,2.160441650390625,0.00025060345069505274,-0.0027108315844088793,-0.00700757559388876
1773790331818404600,2.180404541015625,-0.0001525991247035563,-0.0020692760590463877,-0.006193447392433882
1773790331838367700,2.20036767578125,-0.0008048072922974825,-0.0033100428991019726,-0.00526533555239439
1773790331858330600,2.22033056640625,-0.0005603290628641844,-0.0027515781112015247,-0.00624165078625083
1773790331878293800,2.240293701171875,-0.0004655205411836505,-0.0022714100778102875,-0.004984638653695583
1773790331898255600,2.260255615234375,-0.0002495381922926754,-0.0022985744290053844,-0.00628905463963747
1773790331918218500,2.280218505859375,-0.00038988678716123104,-0.0023307986557483673,-0.004718588665127754
1773790331938181600,2.300181640625,-0.001639441936276853,-0.0030218889005482197,-0.005860019475221634
1773790331958144800,2.320144775390625,-0.00017443705291952938,-0.0016932378057390451,-0.006144711747765541
1773790331978107600,2.340107666015625,0.0005962817813269794,-0.0037294907961040735,-0.005107410252094269
1773790331998070800,2.36007080078125,0.00019387812062632293,-0.00301709515042603,-0.004613926634192467
1773790332018033700,2.38003369140625,-0.00098217383492738,-0.0034674357157200575,-0.006373210810124874
1773790332037995500,2.39999560546875,-0.00020266656065359712,-0.002264219569042325,-0.005028048064559698
1773790332057958700,2.419958740234375,-0.0001304948964389041,-0.002433863002806902,-0.004427238833159208
1773790332077921500,2.439921630859375,-0.0010524812387302518,-0.004481567535549402,-0.00631994754076004
1773790332097884700,2.459884765625,-0.0003352919884491712,-0.002406432293355465,-0.006810501683503389
1773790332117847800,2.479847900390625,0.00021118867152836174,-0.00242107966914773,-0.0054389736615121365
1773790332137810700,2.499810791015625,0.00023861923546064645,-0.002591521944850683,-0.004822185728698969
1773790332157773800,2.51977392578125,-0.00005326322207110934,-0.0036131106317043304,-0.005300489254295826
1773790332177736700,2.53973681640625,-0.00037444045301526785,-0.003014432033523917,-0.005562012083828449
1773790332197698600,2.559698486328125,-0.0006764429272152483,-0.0021049624774605036,-0.006414756178855896
1773790332217661700,2.57966162109375,-0.0007014766451902688,-0.004033357370644808,-0.004160656593739986
1773790332237624600,2.59962451171875,-0.00031904669594950974,-0.0026261431630700827,-0.006915696896612644
1773790332257587700,2.619587646484375,-0.0006732470938004553,-0.0025451830588281155,-0.006846188101917505
1773790332277550600,2.639550537109375,-0.0008364989189431071,-0.0031260184478014708,-0.006661364808678627
1773790332297513700,2.659513671875,-0.0008378304773941636,-0.0037611823063343763,-0.005901032127439976
1773790332317476900,2.679476806640625,-0.00033688987605273724,-0.0041369544342160225,-0.0054094125516712666
1773790332337439700,2.699439697265625,0.000031425301131093875,-0.0033574472181499004,-0.005943909287452698
1773790332357401600,2.719401611328125,-0.00022903185163158923,-0.001038632821291685,-0.004372644238173962
1773790332377364700,2.73936474609375,-0.000022370553779182956,-0.003721501212567091,-0.006246710661798716
1773790332397327600,2.75932763671875,-0.0012799152173101902,-0.0022658174857497215,-0.005852562841027975
1773790332417290800,2.779290771484375,-0.000009321063771494664,-0.0033593112602829933,-0.0062483083456754684
1773790332437253600,2.799253662109375,0.000045273736759554595,-0.0026487798895686865,-0.004566255956888199
1773790332457216800,2.819216796875,-0.0017901768442243338,-0.0024919197894632816,-0.004680239129811525
1773790332477179600,2.8391796875,-0.0002689792599994689,-0.0028546424582600594,-0.006911968346685171
1773790332497142300,2.859142333984375,0.00035206988104619086,-0.003072488820180297,-0.005470665637403727
1773790332517105200,2.879105224609375,0.0003081277245655656,-0.0033159018494188786,-0.00529569573700428
1773790332537068000,2.899068115234375,0.0012189288390800357,-0.002100967802107334,-0.006391320377588272
1773790332557031200,2.91903125,-0.00041545313433744013,-0.002936135046184063,-0.005181446205824614
1773790332576994300,2.938994384765625,0.00011824435205198824,-0.002951048780232668,-0.006209160201251507
1773790332596957200,2.958957275390625,0.00006125270738266408,-0.0044346959330141544,-0.006656304933130741
1773790332616920300,2.97892041015625,-0.00044528054422698915,-0.003198456484824419,-0.0054421694949269295
1773790332636883200,2.99888330078125,-0.00030652983696199954,-0.0038810246624052525,-0.004467452876269817
1773790332656845000,3.018844970703125,-0.0008362325606867671,-0.003141731023788452,-0.005937783978879452
1773790332676808200,3.03880810546875,-0.0011137339752167463,-0.0031909996178001165,-0.005243231542408466
1773790332696771000,3.05877099609375,-0.0003312972257845104,-0.0026375947054475546,-0.0054453653283417225
1773790332716734200,3.078734130859375,-0.0015962987672537565,-0.002941727638244629,-0.005114334635436535
1773790332736697000,3.098697021484375,0.0007044061203487217,-0.0019800602458417416,-0.007484281435608864
1773790332756660200,3.11866015625,-0.00033688987605273724,-0.003507383167743683,-0.0054701329208910465
1773790332776623400,3.138623291015625,0.0000577905957470648,-0.004459463059902191,-0.005131112411618233
1773790332796585200,3.158585205078125,-0.0007685882737860084,-0.0026197514962404966,-0.007992945611476898
1773790332816548000,3.178548095703125,-0.000746750389225781,-0.003224022686481476,-0.007196127437055111
1773790332836511200,3.19851123046875,-0.00013395700079854578,-0.002555835759267211,-0.005832056514918804
1773790332856474000,3.21847412109375,-0.00007909588020993397,-0.0041705104522407055,-0.006411560345441103
1773790332876437200,3.238437255859375,-0.001193362521007657,-0.0027563716284930706,-0.004574245307594538
1773790332896400100,3.258400146484375,0.0007691209320910275,-0.0033899378031492233,-0.0067990501411259174
1773790332916363300,3.27836328125,-0.0010599381057545543,-0.0024114924017339945,-0.005441370885819197
1773790332936326100,3.298326171875,-0.00036245622322894633,-0.00392816262319684,-0.0051809134893119335
1773790332956288000,3.3182880859375,0.002284992253407836,-0.0029912625905126333,-0.005486910697072744
1773790332976251100,3.338251220703125,0.0007534082396887243,-0.0037382792215794325,-0.005453088786453009
1773790332996214300,3.35821435546875,-0.0006159891490824521,-0.0033846113365143538,-0.006423544604331255
1773790333016177200,3.37817724609375,-0.0007118629291653633,-0.0034408040810376406,-0.00449994346126914
1773790333036140300,3.398140380859375,-0.0013683321885764599,-0.0028389296494424343,-0.005315402988344431
1773790333056103200,3.418103271484375,0.001178182428702712,-0.002377670258283615,-0.005059473216533661
1773790333076066300,3.43806640625,-0.0015281217638403177,-0.0032317459117621183,-0.006184126250445843
1773790333096028200,3.458028076171875,-2.6631610694494157e-7,-0.003430151380598545,-0.00666269613429904
1773790333115991000,3.477990966796875,-0.001505484920926392,-0.002089516259729862,-0.005651227664202452
1773790333135954200,3.4979541015625,0.00038456046604551375,-0.0027539748698472977,-0.006424875929951668
1773790333155917000,3.5179169921875,0.0005387574783526361,-0.0031696942169219255,-0.005636846646666527
1773790333175880200,3.537880126953125,0.000477504770969972,-0.002323608146980405,-0.006197175942361355
1773790333195843300,3.55784326171875,-0.001002413802780211,-0.004205397795885801,-0.004332962911576033
1773790333215806200,3.57780615234375,-0.0019952403381466866,-0.0028594359755516052,-0.005426723510026932
1773790333235768300,3.597768310546875,-0.0000852211524033919,-0.003525492735207081,-0.004088218789547682
1773790333255731200,3.617731201171875,-0.00036432043998502195,-0.004111388232558966,-0.005139634478837252
1773790333275694000,3.637694091796875,0.0004261057765688747,-0.002692455891519785,-0.0075905416160821915
1773790333295657200,3.6576572265625,-0.00010679275874281302,-0.0029917950741946697,-0.006068012677133083
1773790333315620000,3.6776201171875,-0.0003406183095648885,-0.004197407979518175,-0.0057132793590426445
1773790333335583200,3.697583251953125,-0.0005528722540475428,-0.003942277282476425,-0.005499161314219236
1773790333355546000,3.717546142578125,-0.0007209177128970623,-0.00430020596832037,-0.00558145297691226
1773790333375509200,3.73750927734375,-0.0006471481174230576,-0.003172357566654682,-0.005298092495650053
1773790333395471000,3.75747119140625,-0.00019281286222394556,-0.0033190976828336716,-0.006989998742938042
1773790333415434200,3.777434326171875,-0.00044288369826972485,-0.003955060616135597,-0.0059537626802921295
1773790333435397000,3.797397216796875,-0.00210629403591156,-0.0016338493442162871,-0.003940146882086992
1773790333455360300,3.8173603515625,-0.00030786142451688647,-0.002114816103130579,-0.006284261122345924
1773790333475323100,3.8373232421875,0.0012681973166763783,-0.002017344580963254,-0.006393450777977705
1773790333495286300,3.857286376953125,-0.0019883159548044205,-0.002365685999393463,-0.005605687852948904
1773790333515249200,3.877249267578125,-0.00044821001938544214,-0.0036645096261054277,-0.005686647724360228
1773790333535211300,3.897211181640625,-0.00023409185814671218,-0.002844256116077304,-0.006116481963545084
1773790333555174400,3.91717431640625,-0.0013009541435167193,-0.002936401404440403,-0.004850415047258139
1773790333575137300,3.93713720703125,-0.0025419872254133224,-0.0012918994762003422,-0.004220311529934406
1773790333595100400,3.957100341796875,-0.0007717840489931405,-0.002395247109234333,-0.005411010701209307
1773790333615063300,3.977063232421875,0.0003563309437595308,-0.0033771544694900513,-0.006469883490353823
1773790333635026200,3.997026123046875,-0.0021758025977760553,-0.002496180823072791,-0.005299957003444433
1773790333654989300,4.0169892578125,0.0001525991247035563,-0.0027268105186522007,-0.004632302559912205
1773790333674951400,4.036951416015625,-0.0003051982494071126,-0.002868224401026964,-0.007536745630204678
1773790333694914300,4.056914306640625,0.0002103897277265787,-0.002585396869108081,-0.005116731394082308
1773790333714877400,4.07687744140625,0.00003808320252574049,-0.0027286747936159372,-0.006493052933365107
1773790333734840300,4.09684033203125,-0.0005374259199015796,-0.003239202778786421,-0.005733252968639135
1773790333754803200,4.11680322265625,0.00101120222825557,-0.002296976512297988,-0.007427556440234184
1773790333774766000,4.13676611328125,-0.00005912217602599412,-0.0026285399217158556,-0.0049042110331356525
1773790333794729200,4.156729248046875,0.00033396040089428425,-0.0037268276792019606,-0.005629656370729208
1773790333814691300,4.17669140625,-0.0013622068800032139,-0.0030836742371320724,-0.006509298458695412
1773790333834654200,4.196654296875,-0.0009510148083791137,-0.0027377295773476362,-0.005150021053850651
1773790333854617300,4.216617431640625,-0.00029534456552937627,-0.0023148194886744022,-0.005407548509538174
1773790333874580500,4.23658056640625,-0.0005933523061685264,-0.001374457380734384,-0.00592606607824564
1773790333894543000,4.256543212890625,-0.00024181502521969378,-0.0030032468494027853,-0.0057162088342010975
1773790333914506200,4.27650634765625,0.0008764463127590716,-0.003341201925650239,-0.006226737052202225
1773790333934469000,4.29646923828125,-0.0007765777409076691,-0.0016828514635562897,-0.007534615229815245
1773790333954431200,4.31643115234375,-0.0016708672046661377,-0.0032642364967614412,-0.0044144559651613235
1773790333974394400,4.336394287109375,0.000222373942960985,-0.003822701284661889,-0.00634791050106287
1773790333994357200,4.356357177734375,-0.0016996293561533093,-0.003484213724732399,-0.006490123458206654
1773790334014320400,4.3763203125,0.0012271846644580364,-0.00344506511464715,-0.005246427375823259
1773790334034283500,4.396283447265625,0.0008551410282962024,-0.002237321576103568,-0.005319930613040924
1773790334054246100,4.41624609375,-0.0008399609941989183,-0.0029965888243168592,-0.0062885223887860775
1773790334074209300,4.436209228515625,0.0005251753609627485,-0.0024980450980365276,-0.006295446306467056
1773790334094171400,4.45617138671875,-0.0014242585748434067,-0.003817907767370343,-0.004716724622994661
1773790334114134300,4.47613427734375,-0.00028309403569437563,-0.0016735304379835725,-0.005958556663244963
1773790334134097400,4.496097412109375,0.0010788465151563287,-0.0037952708080410957,-0.0060022324323654175
1773790334154060300,4.516060302734375,-0.0005885586142539978,-0.003459446132183075,-0.005172391422092915
1773790334174023400,4.5360234375,-0.0010628675809130073,-0.0030218889005482197,-0.00640889722853899
1773790334193986300,4.555986328125,-0.0013137373607605696,-0.002490854589268565,-0.005305815953761339
1773790334213949200,4.57594921875,0.0003866909828502685,-0.002910302486270666,-0.008384429849684238
1773790334233911300,4.595911376953125,0.0003733751946128905,-0.0031065773218870163,-0.00631888210773468
1773790334253874200,4.615874267578125,-0.0017808558186516166,-0.0024703482631593943,-0.005886917468160391
1773790334273837300,4.63583740234375,-0.001924666459672153,-0.0032772859558463097,-0.006127134896814823
1773790334293800400,4.655800537109375,0.00003781688792514615,-0.002311091171577573,-0.006175337824970484
1773790334313763300,4.675763427734375,-0.0009898969437927008,-0.003404052462428808,-0.006968959700316191
1773790334333726200,4.695726318359375,-0.0002162486780434847,-0.002587793627753854,-0.005288771353662014
1773790334353689000,4.715689208984375,-0.0017949705943465233,-0.003634948516264558,-0.005848567932844162
1773790334373651200,4.735651123046875,0.00022423815971706063,-0.0022027005907148123,-0.006631803698837757
1773790334393614300,4.7556142578125,-0.001449292292818427,-0.003359045134857297,-0.004960137419402599
1773790334413577200,4.7755771484375,0.000278300343779847,-0.004644286818802357,-0.00720438314601779
1773790334433540400,4.795540283203125,-0.000928377965465188,-0.0023851271253079176,-0.00598518829792738
1773790334453503500,4.81550341796875,-0.0010104032699018717,-0.003338272450491786,-0.0054333810694515705
1773790334473466400,4.83546630859375,0.0010657970560714602,-0.0036914076190441847,-0.00569889834150672
1773790334493429500,4.855429443359375,-0.0013512879377231002,-0.0022072279825806618,-0.006619819439947605
1773790334513391600,4.8753916015625,-0.000511593243572861,-0.002207760466262698,-0.005480785388499498
1773790334533354500,4.8953544921875,-0.0019627497531473637,-0.0034112429711967707,-0.006597715429961681
1773790334553317600,4.915317626953125,-0.00023302659974433482,-0.0028881982434540987,-0.005952697712928057
1773790334573280500,4.935280517578125,-0.00029348034877330065,-0.0033683660440146923,-0.005394499283283949
1773790334593243600,4.95524365234375,-0.0006689860601909459,-0.0024983114562928677,-0.005121524911373854
1773790334613206500,4.97520654296875,-0.0017222663154825568,-0.002329733222723007,-0.0049438923597335815
1773790334633169700,4.995169677734375,-0.0004665858286898583,-0.003079146845266223,-0.005965214688330889
1773790334653131500,5.015131591796875,-0.0009230516152456403,-0.0016940367640927434,-0.004729507956653833
1773790334673094400,5.035094482421875,-0.0005352954030968249,-0.002743322169408202,-0.004759068600833416
1773790334693057500,5.0550576171875,-0.0011206581257283688,-0.0037177728954702616,-0.006567355245351791
1773790334713020700,5.075020751953125,-0.0020937772933393717,-0.0026557042729109526,-0.005532184615731239
1773790334732983600,5.094983642578125,-0.000553404854144901,-0.0022889869287610054,-0.006648581475019455
1773790334752946700,5.11494677734375,-0.00010599380766507238,-0.0029795446898788214,-0.005770537536591291
1773790334772909600,5.13490966796875,0.00023941817926242948,-0.0036128442734479904,-0.0059899818152189255
1773790334792871400,5.154871337890625,0.0004367584188003093,-0.0033683660440146923,-0.005882390309125185
1773790334812834600,5.17483447265625,-0.0014828480780124664,-0.003373426152393222,-0.005380117800086737
1773790334832797400,5.19479736328125,0.00012623383372556418,-0.0025827335193753242,-0.006086920853704214
1773790334852760600,5.214760498046875,-0.0004141215467825532,-0.0038932752795517445,-0.005534847732633352
1773790334872723500,5.234723388671875,-0.0002814961189869791,-0.004234958905726671,-0.0051865060813724995
1773790334892686600,5.2546865234375,-0.001201884588226676,-0.0025153555907309055,-0.006797985173761845
1773790334912649700,5.274649658203125,-0.0010159959783777595,-0.0027276095934212208,-0.006639260333031416
1773790334932611600,5.294611572265625,-0.0008737831376492977,-0.0021576930303126574,-0.003938815090805292
1773790334952574500,5.314574462890625,0.0006186523241922259,-0.003976366017013788,-0.0067841364070773125
1773790334972537600,5.33453759765625,-0.00011238539445912465,-0.0033601103350520134,-0.006580937188118696
1773790334992500500,5.35450048828125,-0.00145222176797688,-0.0027776770293712616,-0.006686931010335684
1773790335012463600,5.374463623046875,0.0002740392810665071,-0.002740392694249749,-0.005056543741375208
1773790335032426500,5.394426513671875,0.0001627191377338022,-0.0026812704745680094,-0.005387841258198023
1773790335052389600,5.4143896484375,-0.001312405802309513,-0.0029140308033674955,-0.005559881217777729
1773790335072351500,5.4343515625,0.00026045716367661953,-0.0035151063930243254,-0.00580862071365118
1773790335092314400,5.454314453125,0.0008370315190404654,-0.0036011263728141785,-0.0054672034457325935
1773790335112277500,5.474277587890625,-0.00042344260145910084,-0.002666090615093708,-0.005260542035102844
1773790335132240600,5.49424072265625,-0.0005856291390955448,-0.003712446428835392,-0.007472829893231392
1773790335152203500,5.51420361328125,-0.00020532972121145576,-0.00333134806714952,-0.004914331249892712
1773790335172166700,5.534166748046875,-0.00032890037982724607,-0.003221359569579363,-0.004732703324407339
1773790335192129500,5.554129638671875,-0.0006170544074848294,-0.0028011128306388855,-0.00660677021369338
1773790335212091400,5.57409130859375,0.00019707392493728548,-0.0034141724463552237,-0.005815810989588499
1773790335232054500,5.594054443359375,0.0002162486780434847,-0.0028964539524167776,-0.004991030320525169
1773790335252017400,5.614017333984375,-0.0007028082036413252,-0.0026080335956066847,-0.005067463032901287
1773790335271980500,5.63398046875,-0.0012716593919321895,-0.003245328087359667,-0.005919408053159714
1773790335291943400,5.653943359375,-0.0005030711181461811,-0.001347293145954609,-0.006629406940191984
1773790335311906600,5.673906494140625,-0.00017337177996523678,-0.0023526365403085947,-0.003981692250818014
1773790335331869700,5.69386962890625,-0.00012863067968282849,-0.00347409350797534,-0.006219279952347279
1773790335351831600,5.71383154296875,-0.0006074670236557722,-0.003029612125828862,-0.005376389715820551
1773790335371794400,5.73379443359375,-0.0003384877636563033,-0.0034266894217580557,-0.00649678148329258
1773790335391757600,5.753757568359375,-0.0005973470397293568,-0.0027425233274698257,-0.004913798533380032
1773790335411720400,5.773720458984375,-0.00017257283616345376,-0.003230680711567402,-0.00606508320197463
1773790335431683600,5.79368359375,0.0000031957933970261365,-0.0036224317736923695,-0.00500967213883996
1773790335451646500,5.813646484375,-0.0000655137628200464,-0.0025158883072435856,-0.005917544011026621
1773790335471608600,5.833608642578125,0.0008625978953205049,-0.003180080559104681,-0.004953479394316673
1773790335491571500,5.853571533203125,0.00036724991514347494,-0.0025297366082668304,-0.007131945341825485
1773790335511533800,5.873533935546875,0.0004569984448608011,-0.0036101811565458775,-0.005120193585753441
1773790335531496700,5.89349658203125,-0.0020221380982548,-0.0030250847339630127,-0.00558092026039958
1773790335551459800,5.9134599609375,0.00010599380766507238,-0.0028751487843692303,-0.00538544449955225
1773790335571422700,5.933422607421875,-0.0000881506348378025,-0.0021872541401535273,-0.005549495108425617
1773790335591385900,5.9533857421875,-0.000010120012120751198,-0.0054429685696959496,-0.006541789043694735
1773790335611347700,5.97334765625,-0.0011835087789222598,-0.003489007242023945,-0.005631254054605961
1773790335631310600,5.993310546875,-0.001487109111621976,-0.003173955250531435,-0.004572913981974125
1773790335651273700,6.013273681640625,-0.0011179950088262558,-0.0031851406674832106,-0.005899967160075903
1773790335671236900,6.03323681640625,-0.00017843178648035973,-0.004315918777137995,-0.005667473189532757
1773790335691199700,6.05319970703125,0.00007297061529243365,-0.001764344167895615,-0.004488757811486721
1773790335711163000,6.073162841796875,0.0007720504072494805,-0.0030538467690348625,-0.00646828580647707
1773790335731125800,6.093125732421875,0.00044022052315995097,-0.0037055222783237696,-0.007390005514025688
1773790335751087900,6.113087890625,0.0003312972257845104,-0.0035515916533768177,-0.006216350477188826
1773790335771050800,6.13305078125,-0.0011385013349354267,-0.001466336427256465,-0.00472391489893198
1773790335791013600,6.153013671875,0.0018125474452972412,-0.003973436541855335,-0.00589517317712307
1773790335810976800,6.172976806640625,-0.0004924184759147465,-0.003923634998500347,-0.005540706682950258
1773790335830939600,6.192939697265625,-0.00040719733806326985,-0.0024732777383178473,-0.005801696330308914
1773790335850902800,6.21290283203125,0.001100684516131878,-0.0028213527984917164,-0.006147907115519047
1773790335870865000,6.232864990234375,-0.0016136092599481344,-0.003231213428080082,-0.005898102652281523
1773790335890827800,6.252827880859375,0.0005494101205840707,-0.004408863373100758,-0.006641657557338476
1773790335910790700,6.272790771484375,-0.0010450243717059493,-0.0037121803034096956,-0.005906624719500542
1773790335930753800,6.29275390625,-0.00010146643762709573,-0.004546815063804388,-0.007714911364018917
1773790335950716700,6.312716552734375,0.00044288369826972485,-0.0025840650778263807,-0.004502340219914913
1773790335970679800,6.3326796875,-0.0013046825770288706,-0.0024780714884400368,-0.003910852130502462
1773790335990642700,6.352642578125,0.00022610237647313625,-0.004325506277382374,-0.006175604183226824
1773790336010604800,6.372604736328125,-0.0008663262706249952,-0.0024703482631593943,-0.006009955424815416
1773790336030568000,6.39256787109375,0.000770452490542084,-0.003183809109032154,-0.006332997232675552
1773790336050530600,6.412530517578125,-0.0011209244839847088,-0.0024764735717326403,-0.005064799915999174
1773790336070493700,6.43249365234375,0.000027430558475316502,-0.0024716798216104507,-0.00626029260456562
1773790336090456800,6.452456787109375,-0.0003432814555708319,-0.00321816373616457,-0.0057010287418961525
1773790336110419700,6.472419677734375,-0.000651675509288907,-0.00361763802357018,-0.005058674607425928
1773790336130381800,6.4923818359375,-0.0004183826094958931,-0.0037859496660530567,-0.004503138829022646
1773790336150345000,6.512344970703125,0.0005640574963763356,-0.0037180392537266016,-0.0054791877046227455
1773790336170307800,6.532307861328125,0.0000655137628200464,-0.0015584818320348859,-0.005775863770395517
1773790336190271000,6.55227099609375,0.000013582121027866378,-0.002432531211525202,-0.006217682268470526
1773790336210233600,6.572233642578125,-0.0002258360618725419,-0.002877279184758663,-0.005053347907960415
1773790336230196700,6.59219677734375,-0.0012889700010418892,-0.0031414648983627558,-0.004996889270842075
1773790336250159600,6.61215966796875,-0.00020586235041264445,-0.0027470507193356752,-0.0036490634083747864
1773790336270121700,6.632121826171875,-0.0010149306617677212,-0.002284193178638816,-0.005654423497617245
1773790336290084900,6.6520849609375,-0.0014913701452314854,-0.002299106912687421,-0.006087719928473234
1773790336310047700,6.6720478515625,-0.002237055217847228,-0.002046639332547784,-0.005116198677569628
1773790336330011000,6.692010986328125,-0.0004985437262803316,-0.0031758195254951715,-0.007119694724678993
1773790336349973800,6.711973876953125,-0.00015526228526141495,-0.001776328426785767,-0.005120992194861174
1773790336369936600,6.7319365234375,-0.0008058725506998599,-0.0030988543294370174,-0.004548412747681141
1773790336389898800,6.751898681640625,-0.0007368966471403837,-0.003847468877211213,-0.00595615990459919
1773790336409862000,6.77186181640625,-0.00037230990710668266,-0.003334810258820653,-0.006307164207100868
1773790336429824800,6.79182470703125,-0.0007177218794822693,-0.0019627497531473637,-0.005550027824938297
1773790336449788000,6.811787841796875,-0.0009062737226486206,-0.0016652746126055717,-0.00544456671923399
1773790336469750800,6.831750732421875,-0.0005262406193651259,-0.0021824603900313377,-0.00583605095744133
1773790336489713700,6.851713623046875,0.00044661210267804563,-0.0032115059439092875,-0.005998237524181604
1773790336509676800,6.8716767578125,0.0004213120846543461,-0.00350472005084157,-0.0073266224935650826
1773790336529638700,6.891638671875,-0.001585912425071001,-0.0024889903143048286,-0.0065231467597186565
1773790336549601500,6.9116015625,0.00034914040588773787,-0.0031150993891060352,-0.0057130130007863045
1773790336569564700,6.931564697265625,-0.000606668065302074,-0.0035180358681827784,-0.005898635368794203
1773790336589527600,6.951527587890625,-0.0009419600828550756,-0.003379817819222808,-0.006613427773118019
1773790336609490700,6.97149072265625,-0.00019361180602572858,-0.002883404493331909,-0.005456550512462854
1773790336629453600,6.99145361328125,-0.0008873652550391853,-0.0028240159153938293,-0.004238953348249197
1773790336649415700,7.011415771484375,-0.0006876281695440412,-0.002782204421237111,-0.006223008502274752
1773790336669378800,7.03137890625,0.001332645770162344,-0.003087935270741582,-0.005233644042164087
1773790336689341400,7.051341552734375,-0.0011518171522766352,-0.0031100395135581493,-0.0044346959330141544
1773790336709304600,7.0713046875,-0.00025779398856684566,-0.0034029872622340918,-0.005828061606734991
1773790336729267700,7.091267822265625,-0.00021118867152836174,-0.003323891432955861,-0.00464694993570447
1773790336749230600,7.111230712890625,0.0006617955514229834,-0.0026549051981419325,-0.004565456882119179
1773790336769193700,7.13119384765625,0.00007723167072981596,-0.0028535770252346992,-0.004457865376025438
1773790336789155800,7.15115576171875,-0.0012990899849683046,-0.0031899344176054,-0.007143929600715637
1773790336809118700,7.17111865234375,0.0000327568814100232,-0.0037710361648350954,-0.006172941066324711
1773790336829081900,7.191081787109375,-0.00020532972121145576,-0.004064250271767378,-0.006007825024425983
1773790336849044500,7.21104443359375,-0.001145159243606031,-0.0035598473623394966,-0.0067694890312850475
1773790336869007600,7.231007568359375,0.0003062635369133204,-0.0033015208318829536,-0.0059873186983168125
1773790336888970500,7.250970458984375,-0.0005656554130837321,-0.0037593182642012835,-0.0046456181444227695
1773790336908932600,7.2709326171875,-0.0018634138396009803,-0.003829092951491475,-0.005795571021735668
1773790336928895700,7.290895751953125,-0.0005387574783526361,-0.0021758025977760553,-0.007029946427792311
1773790336948858600,7.310858642578125,-0.0008636631537228823,-0.0013435647124424577,-0.005113269202411175
1773790336968821800,7.33082177734375,-0.0023726101499050856,-0.002011485630646348,-0.005014732480049133
1773790336988784600,7.35078466796875,-0.00009347695595351979,-0.002360093407332897,-0.006996656768023968
1773790337008747500,7.37074755859375,-0.000720118754543364,-0.0037358824629336596,-0.004929244983941317
1773790337028709600,7.390709716796875,0.00008202536264434457,-0.0032229574862867594,-0.005007275380194187
1773790337048672800,7.4106728515625,-0.0005635248962789774,-0.003566771512851119,-0.007407582364976406
1773790337068635600,7.4306357421875,-0.0006591323763132095,-0.0027949875220656395,-0.005179582163691521
1773790337088598800,7.450598876953125,-0.000045540054998127744,-0.0036397422663867474,-0.005167065188288689
1773790337108561700,7.470561767578125,-0.0002671150432433933,-0.002662628423422575,-0.005089300684630871
1773790337128524500,7.490524658203125,0.0017302557826042175,-0.004534830804914236,-0.005319131538271904
1773790337148487700,7.51048779296875,0.0004207794554531574,-0.002144909929484129,-0.005568669643253088
1773790337168449500,7.530449462890625,-0.0007520766812376678,-0.004517520312219858,-0.005842975340783596
1773790337188412700,7.55041259765625,0.0005283711361698806,-0.0034708979073911905,-0.0062728095799684525
1773790337208375800,7.570375732421875,0.0001930791768245399,-0.003141731023788452,-0.005723932292312384
1773790337228338700,7.590338623046875,0.0016474314033985138,-0.0033390712924301624,-0.006453105714172125
1773790337248301800,7.6103017578125,-0.0005699164466932416,-0.004473045468330383,-0.004939098376780748
1773790337268264700,7.6302646484375,0.001061802264302969,-0.0036224317736923695,-0.005313006229698658
1773790337288226600,7.6502265625,0.00020240024605300277,-0.0016317188274115324,-0.0057345847599208355
1773790337308189700,7.670189697265625,-0.0011984225129708648,-0.001823466387577355,-0.006433930713683367
1773790337328152600,7.690152587890625,-0.0008146609761752188,-0.003311640815809369,-0.005344697739928961
1773790337348115700,7.71011572265625,-0.0009901633020490408,-0.0027481159195303917,-0.006052566226571798
1773790337368078600,7.73007861328125,-0.0019142802339047194,-0.0029142971616238356,-0.006095176562666893
1773790337388041700,7.750041748046875,-0.0003323625132907182,-0.0020426444243639708,-0.004580636974424124
1773790337408003600,7.770003662109375,-0.0007305050967261195,-0.003403519745916128,-0.005366269499063492
1773790337427966700,7.789966796875,-0.0003105245705228299,-0.00273133791051805,-0.005400624126195908
1773790337447929600,7.8099296875,-0.001448759576305747,-0.002400839701294899,-0.006195844151079655
1773790337467892700,7.829892822265625,-0.0011555455857887864,-0.0028812738601118326,-0.006144711747765541
1773790337487855600,7.849855712890625,-0.00013369068619795144,-0.002862365450710058,-0.004280765075236559
1773790337507819300,7.8698193359375,-0.0015510249650105834,-0.0030887341126799583,-0.0046450854279100895
1773790337527781000,7.889781005859375,-0.00038988678716123104,-0.0020881847012788057,-0.004014182835817337
1773790337547744000,7.909743896484375,0.00014434332842938602,-0.002175003755837679,-0.005944442003965378
1773790337567707100,7.92970703125,-0.0003866909828502685,-0.0029316076543182135,-0.004977447912096977
1773790337587670000,7.949669921875,-0.0009235842735506594,-0.0033633061684668064,-0.005751895252615213
1773790337607633200,7.969633056640625,-0.0009616674506105483,-0.003644536016508937,-0.0054823835380375385
1773790337627596000,7.989595947265625,-0.001526257605291903,-0.002359294332563877,-0.005598763469606638
1773790337647558000,8.009557861328124,-0.001443166984245181,-0.0032953955233097076,-0.0057558901607990265
1773790337667521000,8.02952099609375,-0.00040187101694755256,-0.00242081331089139,-0.006258961278945208
1773790337687484000,8.04948388671875,0.00006418218254111707,-0.0027214842848479748,-0.005437109619379044
1773790337707447000,8.069447021484375,0.0009062737226486206,-0.004505536053329706,-0.006163886282593012
1773790337727410200,8.08941015625,-0.000901480030734092,-0.003079679561778903,-0.00643819198012352
1773790337747373000,8.109373046875,0.00020825919636990875,-0.0032264196779578924,-0.003793140407651663
1773790337767336200,8.129336181640625,0.000046339002437889576,-0.002266616327688098,-0.003961185924708843
1773790337787298000,8.149298095703125,0.0001073253879440017,-0.0023126890882849693,-0.005091963801532984
1773790337807261000,8.169260986328124,-0.000761664065066725,-0.0026530411560088396,-0.007095193490386009
1773790337827224000,8.18922412109375,-0.00015952334797475487,-0.002326271263882518,-0.005614742636680603
1773790337847187000,8.20918701171875,-0.0022157500497996807,-0.002513491315767169,-0.0044051348231732845
1773790337867150000,8.229150146484375,-0.0007542071980424225,-0.004145476501435041,-0.005402754992246628
1773790337887113200,8.24911328125,-0.0007254450465552509,-0.002936135046184063,-0.004996622912585735
1773790337907075000,8.269074951171875,-0.001169127761386335,-0.0027017768006771803,-0.0046091326512396336
1773790337927038200,8.2890380859375,0.00009960222087102011,-0.0020013656467199326,-0.005884254351258278
1773790337947001000,8.3090009765625,0.0006716492353007197,-0.0018849853659048676,-0.007692274637520313
1773790337966964000,8.3289638671875,-0.00025592977181077003,-0.003254382871091366,-0.006139118690043688
1773790337986927000,8.348927001953125,0.0008434231276623905,-0.0028881982434540987,-0.006688529159873724
1773790338006890000,8.368889892578125,0.0002822950773406774,-0.0029550434555858374,-0.006632070057094097
1773790338026852000,8.38885205078125,0.0007590008899569511,-0.0033308155834674835,-0.00672315014526248
1773790338046815200,8.408815185546874,-0.0010351707460358739,-0.0030312100425362587,-0.004905010107904673
1773790338066778000,8.428778076171875,-0.0008207862265408039,-0.00282002124004066,-0.005824333056807518
1773790338086741000,8.448740966796874,-0.000702009245287627,-0.00330205331556499,-0.004491687286645174
1773790338106704000,8.468703857421875,-0.00020772656716872007,-0.002035187790170312,-0.004832838196307421
1773790338126667000,8.4886669921875,-0.0013161342358216643,-0.002743322169408202,-0.006109025329351425
1773790338146629000,8.508629150390625,0.000713993504177779,-0.002528937766328454,-0.006533000618219376
1773790338166592000,8.528592041015624,-0.0003304982965346426,-0.0023238742724061012,-0.005691708065569401
1773790338186555100,8.54855517578125,-0.0002388855500612408,-0.0028426581993699074,-0.0052264537662267685
1773790338206518300,8.568518310546875,-0.0005078648100607097,-0.0036844832357019186,-0.004716724622994661
1773790338226481000,8.58848095703125,-0.0015121428295969963,-0.002947852946817875,-0.0047026099637150764
1773790338246444000,8.608444091796875,-0.000012783173588104546,-0.0024429175537079573,-0.005474127363413572
1773790338266406100,8.62840625,0.0002564624010119587,-0.0041183121502399445,-0.00555135915055871
1773790338286369000,8.648369140625,-0.001317998394370079,-0.002261023735627532,-0.006405701395124197
1773790338306332200,8.668332275390625,-0.0008114652009680867,-0.0024953819811344147,-0.006223274860531092
1773790338326295000,8.688294921875,-0.0014199974248185754,-0.002633600030094385,-0.004928978625684977
1773790338346258200,8.708258056640625,-0.00038509309524670243,-0.001469798618927598,-0.0051596080884337425
1773790338366221300,8.72822119140625,-0.0010120011866092682,-0.0017281252657994628,-0.006238721311092377
1773790338386183000,8.748182861328125,-0.0014554174849763513,-0.002020007697865367,-0.006119677796959877
1773790338406146000,8.76814599609375,-0.0007451524725183845,-0.0018197379540652037,-0.006066680885851383
1773790338426109200,8.788109130859375,-0.0007382282637991011,-0.003032008884474635,-0.005123655777424574
1773790338446072000,8.808072021484374,-0.0008519452530890703,-0.0021944446489214897,-0.005915679503232241
1773790338466035200,8.82803515625,-0.0003371562052052468,-0.0016346483025699854,-0.0062547000125050545
1773790338485998000,8.847998046875,-0.0017885789275169373,-0.0019057580502703786,-0.004830974154174328
1773790338505960700,8.867960693359375,0.0007890945998951793,-0.0037265613209456205,-0.005632053129374981
1773790338525923800,8.887923828125,0.0007419566973112524,-0.0028533106669783592,-0.006335127633064985
1773790338545886700,8.90788671875,-0.000401604687795043,-0.004222441930323839,-0.006054163910448551
1773790338565849600,8.927849609375,0.0011235876008868217,-0.003945473115891218,-0.005715409759432077
1773790338585812500,8.9478125,-0.0007827030494809151,-0.0028240159153938293,-0.006308495998382568
1773790338605775600,8.967775634765625,-0.00011851066665258259,-0.0024884575977921486,-0.005941778887063265
1773790338625737700,8.98773779296875,-0.00016192019393201917,-0.003300189273431897,-0.005475192796438932
1773790338645700600,9.00770068359375,0.00119629199616611,-0.0025414545089006424,-0.005284776911139488
1773790338665663700,9.027663818359375,-0.00016405072528868914,-0.0016471651615574956,-0.006521548610180616
1773790338685626600,9.047626708984374,-0.0005872269975952804,-0.003224821761250496,-0.0054759918712079525
1773790338705589800,9.06758984375,-0.0003398193512111902,-0.004485029727220535,-0.005946039687842131
1773790338725552600,9.087552734375,-0.0003605920064728707,-0.0037832865491509438,-0.004741225857287645
1773790338745514800,9.1075146484375,0.00020293287525419146,-0.003315103007480502,-0.004584365524351597
1773790338765477600,9.1274775390625,-0.001469798618927598,-0.0030810111202299595,-0.005561479367315769
1773790338785440800,9.147440673828125,-0.0009747169679030776,-0.0041092573665082455,-0.005736448802053928
1773790338805403600,9.167403564453124,0.0003102582704741508,-0.0021401161793619394,-0.006346845533698797
1773790338825366800,9.18736669921875,-0.0008998821140266955,-0.003602724289521575,-0.005686914082616568
1773790338845329700,9.20732958984375,-0.00023222764139063656,-0.0032866070978343487,-0.005370530765503645
1773790338865291500,9.22729150390625,-0.00019867181254085153,-0.004013916477560997,-0.00609277980402112
1773790338885254700,9.247254638671874,0.00009187905379803851,-0.002974218223243952,-0.006078398786485195
1773790338905217500,9.267217529296875,0.00028069718973711133,-0.0036732980515807867,-0.006125536747276783
1773790338925180700,9.2871806640625,0.0005973470397293568,-0.0016069513512775302,-0.006874151527881622
1773790338945143800,9.307143798828125,-0.0010138654615730047,-0.0029497172217816114,-0.006339921150356531
1773790338965106700,9.327106689453124,0.00020346550445538014,-0.003912183456122875,-0.006867759861052036
1773790338985068500,9.347068603515625,-0.0025561018846929073,-0.00199337606318295,-0.006060821935534477
1773790339005031700,9.36703173828125,-0.0004551342281047255,-0.0028884646017104387,-0.007041131611913443
1773790339024994600,9.38699462890625,-0.001401089015416801,-0.0034826158080250025,-0.00692128948867321
1773790339044957700,9.406957763671874,0.0015121428295969963,-0.0024232103023678064,-0.005390504375100136
1773790339064920600,9.426920654296875,-0.0001496696495451033,-0.0036187032237648964,-0.004572381265461445
1773790339084882700,9.446882568359374,-0.00033182985498569906,-0.004254399798810482,-0.006398244295269251
1773790339104845800,9.466845703125,0.00010359696898376569,-0.0038948729634284973,-0.004910869058221579
1773790339124808400,9.486808349609374,0.0004543352697510272,-0.0027260116767138243,-0.005877064075320959
1773790339144771600,9.506771484375,-0.0002996056282427162,-0.0023363912478089333,-0.003967044875025749
1773790339164734700,9.526734619140624,-0.0012599414912983775,-0.00430207047611475,-0.004685565363615751
1773790339184697600,9.546697509765625,-0.0007843009079806507,-0.0027800737880170345,-0.006136721931397915
1773790339204659700,9.56665966796875,-0.0006668555433861911,-0.003620034782215953,-0.006097041070461273
1773790339224622800,9.586622802734375,-0.0002055960358120501,-0.0023342606145888567,-0.005089034326374531
1773790339244585700,9.606585693359374,-0.0018098842119798064,-0.002629871480166912,-0.005592371802777052
1773790339264548900,9.626548828125,-0.0008862999966368079,-0.002969424705952406,-0.005358280148357153
1773790339284511500,9.646511474609374,-0.001258343574590981,-0.0024487765040248632,-0.007740477565675974
1773790339304474600,9.666474609375,-0.0002364887041039765,-0.004117247182875872,-0.00592606607824564
1773790339324436700,9.686436767578124,-0.0012897689593955874,-0.0037140443455427885,-0.0054757255129516125
1773790339344399600,9.706399658203125,-0.0004215783847030252,-0.003087136195972562,-0.005053347907960415
1773790339364362800,9.72636279296875,-0.0016639430541545153,-0.0033542513847351074,-0.0036165728233754635
1773790339384325600,9.74632568359375,-0.00047164582065306604,-0.003215766977518797,-0.005774798337370157
1773790339404288800,9.766288818359374,-0.0011358382180333138,-0.001350222621113062,-0.005842708982527256
1773790339424251600,9.786251708984375,0.000675377668812871,-0.0016735304379835725,-0.006115150637924671
1773790339444213500,9.806213623046874,0.000494016392622143,-0.0026312030386179686,-0.006788664031773806
1773790339464176600,9.8261767578125,0.0006854976527392864,-0.003681021276861429,-0.006615558639168739
1773790339484139800,9.846139892578124,-0.0002777676854748279,-0.002251968951895833,-0.004827511962503195
1773790339504101600,9.8661015625,0.0001424791116733104,-0.0025161546654999256,-0.006655772216618061
1773790339524064800,9.886064697265626,-0.0014559502014890313,-0.003486344125121832,-0.0070709590800106525
1773790339544027000,9.90602685546875,-0.00011691277177305892,-0.002442651428282261,-0.004320180043578148
1773790339563989800,9.92598974609375,0.00048709215479902923,-0.004111121874302626,-0.005675995256751776
1773790339583953000,9.945952880859375,-0.0005486111622303724,-0.002064482541754842,-0.006131395697593689
1773790339603915800,9.965915771484376,0.00010759170982055366,-0.003319896524772048,-0.005654956214129925
1773790339623878700,9.985878662109375,-0.0011140003334730864,-0.0025654230266809464,-0.0038029940333217382
1773790339643841800,10.005841796875,-0.0006652576266787946,-0.0022511701099574566,-0.006432333029806614
1773790339663804000,10.025803955078125,-0.0007241134881041944,-0.003239202778786421,-0.005768939387053251
1773790339683766800,10.045766845703126,0.000565389113035053,-0.002118811011314392,-0.004771585576236248
1773790339703730000,10.06572998046875,0.0000655137628200464,-0.0031523837242275476,-0.006360960192978382
1773790339723692800,10.08569287109375,-0.00016112125013023615,-0.004455734975636005,-0.006038983818143606
1773790339743655700,10.10565576171875,-0.0008167914929799736,-0.0029403960797935724,-0.0054424358531832695
1773790339763618800,10.125618896484376,0.00044314999831840396,-0.0028357338160276413,-0.006616090890020132
1773790339783580700,10.14558056640625,-0.0006636597099713981,-0.003906590864062309,-0.005438175052404404
1773790339803543800,10.165543701171876,-0.0004577973741106689,-0.0025864620693027973,-0.006394782569259405
1773790339823507000,10.1855068359375,-0.0012452941155061126,-0.0026988473255187273,-0.0054815844632685184
1773790339843469800,10.2054697265625,0.0005731122801080346,-0.002040247665718198,-0.005655755288898945
1773790339863433000,10.225432861328125,0.00022077605535741895,-0.003023753175511956,-0.00574869941920042
1773790339883395600,10.2453955078125,-0.0003499393642414361,-0.0034914042335003614,-0.0054613444954156876
1773790339903357700,10.265357666015625,-0.0010964233661070466,-0.002665025182068348,-0.006450176239013672
1773790339923320800,10.28532080078125,0.0005986785981804132,-0.0019502328941598535,-0.006119411438703537
1773790339943283700,10.30528369140625,-0.0005760417552664876,-0.003689543344080448,-0.005469067487865686
1773790339963246800,10.325246826171876,-0.0006964165950194001,-0.003294063964858651,-0.0059684100560843945
1773790339983209700,10.345209716796875,0.00020879182557109743,-0.0016820525052025914,-0.006933805998414755
1773790340003171600,10.365171630859376,-0.0005430185701698065,-0.0027720844373106956,-0.005006742663681507
1773790340023134700,10.385134765625,-0.00042583944741636515,-0.0022975089959800243,-0.00729359919205308
1773790340043097900,10.405097900390626,0.00033449303009547293,-0.0028666264843195677,-0.005242965184152126
1773790340063060700,10.425060791015625,0.0004569984448608011,-0.0019622170366346836,-0.005096757784485817
1773790340083024000,10.44502392578125,0.00046631949953734875,-0.0029198897536844015,-0.0054482948035001755
1773790340102986800,10.46498681640625,-0.00003488740912871435,-0.0030546458438038826,-0.004859736189246178
1773790340122948900,10.484948974609376,0.00008602010348113254,-0.003864513011649251,-0.005321528296917677
1773790340142911700,10.504911865234375,-0.001549959764815867,-0.0035326832439750433,-0.005514874123036861
1773790340162874600,10.52487451171875,0.0007408913807012141,-0.0024612934794276953,-0.0057479003444314
1773790340182837800,10.544837646484375,-0.0012037487467750907,-0.0029579729307442904,-0.0062584285624325275
1773790340202800600,10.564800537109376,-0.0002697782183531672,-0.0029345371294766665,-0.006389988586306572
1773790340222762800,10.5847626953125,-0.0013712616637349129,-0.003133208956569433,-0.004541754722595215
1773790340242726000,10.604725830078126,0.0016050871927291155,-0.0028269453905522823,-0.0046448190696537495
1773790340262688800,10.624688720703125,-0.0012767193838953972,-0.0013630058383569121,-0.006658968050032854
1773790340282652000,10.64465185546875,0.00007137271313695237,-0.0026871294248849154,-0.005554821342229843
1773790340302614800,10.66461474609375,-0.0003731088654603809,-0.0034674357157200575,-0.00529542937874794
1773790340322577700,10.68457763671875,-0.0006386260502040386,-0.0034237599465996027,-0.006205431651324034
1773790340342539800,10.704539794921875,-0.0013968279818072915,-0.002570749493315816,-0.0043803672306239605
1773790340362503000,10.7245029296875,0.0013941648649051785,-0.0031486554071307182,-0.006698648910969496
1773790340382465800,10.7444658203125,-0.00020240024605300277,-0.0027348001021891832,-0.00598545465618372
1773790340402429000,10.764428955078126,-0.0007621967233717442,-0.00210602767765522,-0.006292250473052263
1773790340422391800,10.784391845703125,0.00019467707898002118,-0.0029382656794041395,-0.006482400465756655
1773790340442354700,10.804354736328126,0.0005784385721199214,-0.004076766781508923,-0.005465871654450893
1773790340462316800,10.82431689453125,0.000035420041967881843,-0.003862116253003478,-0.005524194799363613
1773790340482279700,10.84427978515625,0.00023142869758885354,-0.004515389446169138,-0.005321528296917677
1773790340502243000,10.8642431640625,-0.00008335694292327389,-0.004538825247436762,-0.004794222768396139
1773790340522206000,10.8842060546875,-0.00031372037483379245,-0.002502572489902377,-0.005652559455484152
1773790340542169000,10.904169189453125,-0.0013683321885764599,-0.0036096484400331974,-0.005539374891668558
1773790340562131200,10.924131103515625,0.0006591323763132095,-0.0027289411518722773,-0.006424609571695328
1773790340582094000,10.944093994140625,-0.0005483448621816933,-0.002767290687188506,-0.005566539242863655
1773790340602057000,10.964056884765625,-0.0006282397080212831,-0.003916977439075708,-0.0062368568032979965
1773790340622020000,10.98402001953125,-0.00044847631943412125,-0.003906058380380273,-0.005757221486419439
1773790340641983000,11.00398291015625,0.0007408913807012141,-0.0032783513888716698,-0.006646983791142702
1773790340661946000,11.023946044921875,0.0001603222917765379,-0.0041191112250089645,-0.004612328484654427
1773790340681908200,11.043908203125,-0.0002564624010119587,-0.004032026045024395,-0.004761732183396816
1773790340701871000,11.06387109375,-0.0009986853692680597,-0.0032053806353360415,-0.0059779975563287735
1773790340721834200,11.083834228515625,0.000027696874894900247,-0.0014658038271591067,-0.006116748321801424
1773790340741796900,11.103796875,-0.000773381965700537,-0.002572613535448909,-0.004827778320759535
1773790340761760000,11.123760009765626,-0.0004524710529949516,-0.002689792774617672,-0.005369998048990965
1773790340781722000,11.14372216796875,-0.0010516822803765535,-0.003518834710121155,-0.0056893108412623405
1773790340801685000,11.16368505859375,-0.0003408846096135676,-0.003865312086418271,-0.0062187472358345985
1773790340821648100,11.183648193359375,0.000003462109361862531,-0.003483414649963379,-0.005045358557254076
1773790340841611300,11.203611328125,-0.0014740596525371075,-0.003754790872335434,-0.00586800929158926
1773790340861574100,11.22357421875,0.0005904228310100734,-0.0032794165890663862,-0.0054339137859642506
1773790340881537000,11.243537109375,-0.0008639294537715614,-0.0024138891603797674,-0.007577226031571627
1773790340901499100,11.2634990234375,-0.0007448861724697053,-0.002671949565410614,-0.004553206264972687
1773790340921462000,11.2834619140625,-0.0006945523782633245,-0.0025246767327189445,-0.0054277884773910046
1773790340941425200,11.303425048828124,-0.0012175972806289792,-0.002692455891519785,-0.005774798337370157
1773790340961388000,11.323387939453125,-0.00043569316039793193,-0.0027806065045297146,-0.005417136009782553
1773790340981351200,11.34335107421875,0.00003941478280466981,-0.00293373828753829,-0.0059716058894991875
1773790341001313000,11.36331298828125,-0.001279382617212832,-0.004204598721116781,-0.005972937680780888
1773790341021276000,11.38327587890625,-0.0007789746159687638,-0.0024738102219998837,-0.005406749434769154
1773790341041239000,11.403239013671875,-0.0007693872321397066,-0.0037555897142738104,-0.006846188101917505
1773790341061202200,11.4232021484375,-0.0008828379213809967,-0.0036858150269836187,-0.006954045966267586
1773790341081165000,11.4431650390625,-0.0019465044606477022,-0.0034149715211242437,-0.00703900121152401
1773790341101128200,11.463128173828125,-0.00031558459158986807,-0.003635214874520898,-0.006761233322322369
1773790341121090000,11.483090087890625,-0.0009190568816848099,-0.0033955303952097893,-0.006901315413415432
1773790341141053000,11.503052978515624,0.0003193130251020193,-0.0022887205705046654,-0.00504056503996253
1773790341161016000,11.52301611328125,-0.000054861116950633004,-0.002923884429037571,-0.004942560568451881
1773790341180979000,11.54297900390625,-0.000958205375354737,-0.0038751657120883465,-0.005827262531965971
1773790341200942000,11.562942138671875,-0.0009174589649774134,-0.004065048880875111,-0.005272259935736656
1773790341220904200,11.582904296875,-0.000358461489668116,-0.0017073525814339519,-0.004939364735037088
1773790341240867000,11.6028671875,-0.0005624596378766,-0.0029017801862210035,-0.006322077941149473
1773790341260830200,11.622830322265624,0.0007009439868852496,-0.001982190879061818,-0.005314604379236698
1773790341280793000,11.64279296875,-0.0008127967594191432,-0.003748665563762188,-0.004603273700922728
1773790341300756000,11.662755859375,-0.00041678472189232707,-0.002769687445834279,-0.004565989598631859
1773790341320718000,11.682718017578125,-0.0002942793071269989,-0.003162237349897623,-0.0046637277118861675
1773790341340681000,11.702680908203124,0.00004207794336252846,-0.0029233519453555346,-0.00592553336173296
1773790341360644000,11.72264404296875,0.0004601942200679332,-0.003637611633166671,-0.006001166999340057
1773790341380607200,11.742607177734374,-0.0007145261042751372,-0.0030096382834017277,-0.00580862071365118
1773790341400570000,11.762570068359375,0.0006870955694466829,-0.0020306603983044624,-0.00689092930406332
1773790341420533200,11.782533203125,-0.0001030643325066194,-0.003236006945371628,-0.006159359123557806
1773790341440495000,11.8024951171875,0.0003936151915695518,-0.0032149681355804205,-0.006500776391476393
1773790341460458000,11.8224580078125,-0.00027616979787126184,-0.0012405004817992449,-0.005517537239938974
1773790341480421000,11.842421142578125,-0.0007222492713481188,-0.003114833263680339,-0.0044048684649169445
1773790341500383700,11.8623837890625,0.00021731393644586205,-0.0035811527632176876,-0.006361492909491062
1773790341520347000,11.882346923828125,0.0003414172388147563,-0.002083390951156616,-0.0049010151997208595
1773790341540309000,11.90230908203125,-0.0022008363157510757,-0.002441585995256901,-0.005278917960822582
1773790341560272000,11.92227197265625,-0.0002801645314320922,-0.0028133634477853775,-0.005498095881193876
1773790341580235000,11.942235107421874,-0.0015022892039269209,-0.002709500025957823,-0.005120459944009781
1773790341600198000,11.962197998046875,-0.0005957491230219603,-0.00148125016130507,-0.006209160201251507
1773790341620160800,11.982160888671874,-0.0007483482477255166,-0.002950516063719988,-0.00461632339283824
1773790341640123000,12.002122802734375,-0.000004261057711119065,-0.0023899206425994635,-0.004614725708961487
1773790341660086000,12.0220859375,-0.0007118629291653633,-0.0037760960403829813,-0.0052024852484464645
1773790341680049000,12.042048828125,-0.0003278351214248687,-0.00330311874859035,-0.005706089083105326
1773790341700012000,12.062011962890624,-0.00036698358599096537,-0.0032527849543839693,-0.006376673001796007
1773790341719975000,12.081974853515625,-0.00020373181905597448,-0.002496713539585471,-0.005048820748925209
1773790341739938000,12.10193798828125,-0.0011614045361056924,-0.004494084510952234,-0.005250688176602125
