time,seconds_elapsed,z,y,x
1773790582990674400,0.02067431640625,-0.9945526123046875,0.0005950927734375,-0.016754150390625
1773790583010637600,0.040637451171875,-0.996795654296875,0.000946044921875,-0.0177459716796875
1773790583030600400,0.060600341796875,-0.996124267578125,-0.00042724609375,-0.0169219970703125
1773790583050563600,0.0805634765625,-0.9962158203125,0.0001678466796875,-0.0175323486328125
1773790583070526700,0.100526611328125,-0.996124267578125,0.0006866455078125,-0.0170745849609375
1773790583090489600,0.120489501953125,-0.99578857421875,0.0010223388671875,-0.01861572265625
1773790583110452500,0.140452392578125,-0.996002197265625,0.000335693359375,-0.0180816650390625
1773790583130415400,0.160415283203125,-0.99627685546875,-0.0001983642578125,-0.0184173583984375
1773790583150378500,0.18037841796875,-0.9956207275390625,0.0001678466796875,-0.01800537109375
1773790583170341400,0.20034130859375,-0.9960174560546875,0.0008697509765625,-0.01708984375
1773790583190304500,0.220304443359375,-0.9965057373046875,0.0006866455078125,-0.01708984375
1773790583210267600,0.240267578125,-0.995849609375,-0.000152587890625,-0.017913818359375
1773790583230230500,0.26023046875,-0.99578857421875,0.0011444091796875,-0.0188446044921875
1773790583250193700,0.280193603515625,-0.9957275390625,0.000274658203125,-0.0188140869140625
1773790583270156500,0.300156494140625,-0.994903564453125,0.0019683837890625,-0.0183563232421875
1773790583290119400,0.320119384765625,-0.9952392578125,0.0005035400390625,-0.017547607421875
1773790583310083600,0.34008349609375,-0.99566650390625,0.0004119873046875,-0.0184478759765625
1773790583330046500,0.36004638671875,-0.99609375,-0.0002288818359375,-0.0178070068359375
1773790583350009300,0.38000927734375,-0.9966278076171875,-0.000396728515625,-0.01708984375
1773790583369972500,0.399972412109375,-0.9958648681640625,0.0006561279296875,-0.0179901123046875
1773790583389935600,0.419935546875,-0.9952392578125,0.0005340576171875,-0.0171356201171875
1773790583409898500,0.4398984375,-0.994049072265625,-0.0008544921875,-0.0188751220703125
1773790583429861600,0.459861572265625,-0.9948883056640625,0.0005035400390625,-0.01702880859375
1773790583449824500,0.479824462890625,-0.996368408203125,0.0005950927734375,-0.019012451171875
1773790583469787600,0.49978759765625,-0.996307373046875,0.000030517578125,-0.0184478759765625
1773790583489750500,0.51975048828125,-0.9948577880859375,-0.000152587890625,-0.019012451171875
1773790583509713400,0.53971337890625,-0.9959259033203125,0.000335693359375,-0.0179290771484375
1773790583529676500,0.559676513671875,-0.996795654296875,0.0002288818359375,-0.0182037353515625
1773790583549639400,0.579639404296875,-0.9964141845703125,-0.000701904296875,-0.0178985595703125
1773790583569602600,0.5996025390625,-0.9957275390625,0.0010833740234375,-0.0163421630859375
1773790583589565400,0.6195654296875,-0.9946746826171875,-0.0001373291015625,-0.0176544189453125
1773790583609528600,0.639528564453125,-0.9949951171875,0.00067138671875,-0.0186767578125
1773790583629491500,0.659491455078125,-0.9955902099609375,-0.0002899169921875,-0.017913818359375
1773790583649454600,0.67945458984375,-0.99603271484375,0.0006866455078125,-0.018890380859375
1773790583669417700,0.699417724609375,-0.9953765869140625,-0.0002593994140625,-0.017486572265625
1773790583689380400,0.71938037109375,-0.995819091796875,0.0006103515625,-0.0169677734375
1773790583709343500,0.739343505859375,-0.995391845703125,0.0011138916015625,-0.01739501953125
1773790583729307400,0.759307373046875,-0.9947357177734375,0.0007171630859375,-0.0179290771484375
1773790583749271600,0.779271484375,-0.995697021484375,0.000701904296875,-0.017730712890625
1773790583769234700,0.799234619140625,-0.99505615234375,0.000640869140625,-0.0167999267578125
1773790583789197600,0.819197509765625,-0.995849609375,0.0012969970703125,-0.0175018310546875
1773790583809160400,0.839160400390625,-0.9945526123046875,-0.0005340576171875,-0.0176849365234375
1773790583829123600,0.85912353515625,-0.9966583251953125,0.001800537109375,-0.0165863037109375
1773790583849087500,0.87908740234375,-0.9952392578125,0.0005340576171875,-0.018310546875
1773790583869050600,0.899050537109375,-0.9969024658203125,0.0001678466796875,-0.0179901123046875
1773790583889013500,0.919013427734375,-0.99627685546875,0.001190185546875,-0.017242431640625
1773790583908976600,0.9389765625,-0.9956207275390625,-0.0011749267578125,-0.017822265625
1773790583928939500,0.958939453125,-0.9963836669921875,0.0002899169921875,-0.016815185546875
1773790583948902700,0.978902587890625,-0.9939727783203125,0.0000457763671875,-0.0175933837890625
1773790583968865500,0.998865478515625,-0.99609375,0.001190185546875,-0.0175018310546875
1773790583988828700,1.01882861328125,-0.9954071044921875,0.000518798828125,-0.018310546875
1773790584008791600,1.03879150390625,-0.9959716796875,-0.0002593994140625,-0.0177459716796875
1773790584028754400,1.05875439453125,-0.996368408203125,0.0005950927734375,-0.017333984375
1773790584048717600,1.078717529296875,-0.9953155517578125,-0.0003662109375,-0.017364501953125
1773790584068680400,1.098680419921875,-0.9967498779296875,0.001617431640625,-0.0180816650390625
1773790584088643600,1.1186435546875,-0.9947509765625,-0.000244140625,-0.018096923828125
1773790584108605700,1.138605712890625,-0.996246337890625,0.0004119873046875,-0.017669677734375
1773790584128568600,1.158568603515625,-0.996002197265625,0.0000762939453125,-0.0177459716796875
1773790584148531700,1.17853173828125,-0.995330810546875,0.000946044921875,-0.01776123046875
1773790584168494300,1.198494384765625,-0.9953765869140625,-0.000732421875,-0.0178985595703125
1773790584188457500,1.21845751953125,-0.995147705078125,0.0010528564453125,-0.01708984375
1773790584208420600,1.238420654296875,-0.99615478515625,-0.0009765625,-0.018585205078125
1773790584228383500,1.258383544921875,-0.9947967529296875,0.000946044921875,-0.0170440673828125
1773790584248346600,1.2783466796875,-0.9951629638671875,0.0000762939453125,-0.01666259765625
1773790584268309500,1.2983095703125,-0.995849609375,0.000946044921875,-0.018096923828125
1773790584288272600,1.318272705078125,-0.996124267578125,0.0003814697265625,-0.0187835693359375
1773790584308235500,1.338235595703125,-0.995941162109375,0.0018310546875,-0.018096923828125
1773790584328198700,1.35819873046875,-0.9954833984375,-0.0002899169921875,-0.0176239013671875
1773790584348161500,1.37816162109375,-0.9943084716796875,-0.000396728515625,-0.01788330078125
1773790584368124400,1.39812451171875,-0.995574951171875,0.0000762939453125,-0.01708984375
1773790584388087600,1.418087646484375,-0.9964752197265625,0.0012969970703125,-0.017913818359375
1773790584408050400,1.438050537109375,-0.9942474365234375,0,-0.0176544189453125
1773790584428013600,1.458013671875,-0.996307373046875,0.000885009765625,-0.0179595947265625
1773790584447976700,1.477976806640625,-0.9961700439453125,0.0002288818359375,-0.01776123046875
1773790584467939600,1.497939697265625,-0.995758056640625,0.0009307861328125,-0.018768310546875
1773790584487902700,1.51790283203125,-0.9961090087890625,-0.0001068115234375,-0.0177764892578125
1773790584507865600,1.537865478515625,-0.9952850341796875,0.0009002685546875,-0.0170135498046875
1773790584527828500,1.557828369140625,-0.9962921142578125,-0.0002899169921875,-0.0184478759765625
1773790584547792600,1.577792724609375,-0.9969024658203125,0.001190185546875,-0.017791748046875
1773790584567755500,1.597755615234375,-0.995880126953125,0.0002899169921875,-0.0184173583984375
1773790584587718400,1.617718505859375,-0.9947662353515625,0.000335693359375,-0.017608642578125
1773790584607681500,1.637681640625,-0.9964599609375,0.0009613037109375,-0.0178680419921875
1773790584627644400,1.65764453125,-0.994354248046875,0.0002899169921875,-0.0174713134765625
1773790584647607600,1.677607666015625,-0.9958648681640625,0.001373291015625,-0.0177764892578125
1773790584667570700,1.69757080078125,-0.995391845703125,-0.000946044921875,-0.0172271728515625
1773790584687533600,1.717533447265625,-0.9972381591796875,0.00042724609375,-0.0182647705078125
1773790584707496700,1.73749658203125,-0.995513916015625,0.00054931640625,-0.0181427001953125
1773790584727459600,1.75745947265625,-0.9955291748046875,0.0001373291015625,-0.0177764892578125
1773790584747421000,1.7774208984375,-0.9958648681640625,0.000946044921875,-0.018310546875
1773790584767384000,1.797384033203125,-0.99505615234375,0.00042724609375,-0.018707275390625
1773790584787347200,1.81734716796875,-0.99560546875,0.0003509521484375,-0.0176544189453125
1773790584807310000,1.83731005859375,-0.9953155517578125,-0.0001220703125,-0.0184173583984375
1773790584827273200,1.857273193359375,-0.995697021484375,0.000640869140625,-0.017608642578125
1773790584847236000,1.877236083984375,-0.99578857421875,0.0003509521484375,-0.0177764892578125
1773790584867199000,1.897198974609375,-0.99639892578125,0.0003662109375,-0.0178070068359375
1773790584887161900,1.917161865234375,-0.995880126953125,0.0009002685546875,-0.0182342529296875
1773790584907125000,1.937125,-0.995330810546875,0.0002288818359375,-0.018096923828125
1773790584927088000,1.957088134765625,-0.9956207275390625,0.0003204345703125,-0.018402099609375
1773790584947051000,1.977051025390625,-0.996429443359375,0.0002899169921875,-0.0171356201171875
1773790584967014100,1.99701416015625,-0.996337890625,0.0001220703125,-0.017242431640625
1773790584986977000,2.01697705078125,-0.996368408203125,0.00042724609375,-0.0177764892578125
1773790585006940200,2.036940185546875,-0.9958038330078125,-0.0001373291015625,-0.0170135498046875
1773790585026903000,2.056903076171875,-0.9963531494140625,0.00128173828125,-0.017822265625
1773790585046866000,2.076865966796875,-0.996002197265625,0.0003662109375,-0.0173797607421875
1773790585066829000,2.0968291015625,-0.9957275390625,0.0012664794921875,-0.01861572265625
1773790585086792000,2.1167919921875,-0.9952545166015625,0.0011749267578125,-0.017120361328125
1773790585106755000,2.136755126953125,-0.99481201171875,0.00054931640625,-0.015960693359375
1773790585126718000,2.156718017578125,-0.99560546875,0.0011444091796875,-0.01837158203125
1773790585146681000,2.17668115234375,-0.994354248046875,-0.000030517578125,-0.0182952880859375
1773790585166644200,2.196644287109375,-0.9956512451171875,0.000518798828125,-0.0179290771484375
1773790585186607000,2.216607177734375,-0.9969482421875,-0.00042724609375,-0.01812744140625
1773790585206570200,2.2365703125,-0.995819091796875,0.001007080078125,-0.0193634033203125
1773790585226533000,2.256533203125,-0.996185302734375,-0.0006103515625,-0.01806640625
1773790585246496000,2.27649609375,-0.9955291748046875,0.0001373291015625,-0.017730712890625
1773790585266459000,2.296458984375,-0.9951019287109375,-0.0001068115234375,-0.01861572265625
1773790585286422000,2.316422119140625,-0.9951934814453125,0.0003814697265625,-0.018646240234375
1773790585306385200,2.33638525390625,-0.995513916015625,0.0010986328125,-0.017181396484375
1773790585326348000,2.35634814453125,-0.9952545166015625,-0.00048828125,-0.0173797607421875
1773790585346311200,2.376311279296875,-0.9956512451171875,0.000091552734375,-0.0183563232421875
1773790585366274000,2.396274169921875,-0.9962615966796875,0.0008392333984375,-0.0180816650390625
1773790585386237200,2.4162373046875,-0.9964599609375,0.0002288818359375,-0.01812744140625
1773790585406200000,2.436199951171875,-0.9962615966796875,0.0007476806640625,-0.017547607421875
1773790585426163000,2.456162841796875,-0.9956817626953125,0.0001068115234375,-0.0176544189453125
1773790585446126000,2.4761259765625,-0.9962615966796875,-0.000518798828125,-0.0175933837890625
1773790585466089000,2.4960888671875,-0.996734619140625,0.00054931640625,-0.0174713134765625
1773790585486052000,2.516052001953125,-0.9948577880859375,0.0014495849609375,-0.0180206298828125
1773790585506015000,2.536014892578125,-0.99627685546875,-0.000091552734375,-0.0182037353515625
1773790585525978000,2.55597802734375,-0.996307373046875,0.000732421875,-0.01824951171875
1773790585545941000,2.57594091796875,-0.9964752197265625,0.0002593994140625,-0.0164947509765625
1773790585565905200,2.5959052734375,-0.995330810546875,-0.0004425048828125,-0.0184326171875
1773790585585868000,2.615867919921875,-0.994049072265625,-0.0007476806640625,-0.0176239013671875
1773790585605831200,2.6358310546875,-0.996185302734375,-0.0021820068359375,-0.018218994140625
1773790585625794000,2.6557939453125,-0.9951019287109375,0.0007476806640625,-0.01751708984375
1773790585645757000,2.6757568359375,-0.99615478515625,0.00006103515625,-0.018463134765625
1773790585665720000,2.695719970703125,-0.9956512451171875,0.000762939453125,-0.016754150390625
1773790585685683000,2.715682861328125,-0.99627685546875,0.0012969970703125,-0.017913818359375
1773790585705646000,2.73564599609375,-0.9959564208984375,-0.000335693359375,-0.0181121826171875
1773790585725609000,2.75560888671875,-0.9954681396484375,-0.0002899169921875,-0.0170135498046875
1773790585745572600,2.775572509765625,-0.995086669921875,0.000518798828125,-0.017852783203125
1773790585765535500,2.795535400390625,-0.995513916015625,-0.0000457763671875,-0.017120361328125
1773790585785498600,2.81549853515625,-0.9965972900390625,0.00030517578125,-0.0186920166015625
1773790585805461800,2.835461669921875,-0.9963836669921875,0.000885009765625,-0.0190582275390625
1773790585825424600,2.855424560546875,-0.9958343505859375,0.0003509521484375,-0.0177001953125
1773790585845387500,2.875387451171875,-0.996002197265625,0.0012359619140625,-0.018280029296875
1773790585865350400,2.895350341796875,-0.99505615234375,0.001220703125,-0.0172119140625
1773790585885313500,2.9153134765625,-0.9944000244140625,0.00067138671875,-0.0175628662109375
1773790585905276400,2.9352763671875,-0.9957122802734375,0.0011444091796875,-0.017974853515625
1773790585925239600,2.955239501953125,-0.9956512451171875,0.000732421875,-0.0183868408203125
1773790585945202700,2.97520263671875,-0.9954681396484375,0.00018310546875,-0.0178375244140625
1773790585965165600,2.99516552734375,-0.9947662353515625,0.0009307861328125,-0.01690673828125
1773790585985128700,3.015128662109375,-0.99517822265625,0.0003814697265625,-0.0185394287109375
1773790586005091600,3.035091552734375,-0.995849609375,-0.0001068115234375,-0.0171356201171875
1773790586025054500,3.055054443359375,-0.9955291748046875,0.0008087158203125,-0.0167999267578125
1773790586045017600,3.075017578125,-0.995086669921875,0.000213623046875,-0.018341064453125
1773790586064980500,3.09498046875,-0.9952545166015625,-0.0008392333984375,-0.018890380859375
1773790586084943600,3.114943603515625,-0.994964599609375,0.0003204345703125,-0.0173797607421875
1773790586104906500,3.134906494140625,-0.994720458984375,0.00018310546875,-0.01849365234375
1773790586124869600,3.15486962890625,-0.996551513671875,0.0006256103515625,-0.0172576904296875
1773790586144832500,3.17483251953125,-0.995452880859375,-0.0009613037109375,-0.0179290771484375
1773790586164795600,3.194795654296875,-0.99578857421875,-0.0003204345703125,-0.0179290771484375
1773790586184758800,3.2147587890625,-0.995513916015625,-0.000335693359375,-0.017303466796875
1773790586204721400,3.234721435546875,-0.9949798583984375,0.0005340576171875,-0.0180206298828125
1773790586224684500,3.2546845703125,-0.9958038330078125,0.0003662109375,-0.0167694091796875
1773790586244647400,3.2746474609375,-0.99566650390625,-0.0003509521484375,-0.0184326171875
1773790586264610600,3.294610595703125,-0.994049072265625,0.000518798828125,-0.0171966552734375
1773790586284573400,3.314573486328125,-0.99554443359375,0,-0.0189208984375
1773790586304536600,3.33453662109375,-0.9960174560546875,0.0003662109375,-0.0179443359375
1773790586324499700,3.354499755859375,-0.99542236328125,0.000762939453125,-0.0187225341796875
1773790586344462600,3.374462646484375,-0.996826171875,0.0002288818359375,-0.0186614990234375
1773790586364425700,3.39442578125,-0.9954681396484375,0.0009613037109375,-0.01922607421875
1773790586384388400,3.414388427734375,-0.9959716796875,0.000518798828125,-0.018890380859375
1773790586404351500,3.4343515625,-0.995758056640625,0.00054931640625,-0.0171966552734375
1773790586424314600,3.454314697265625,-0.996673583984375,-0.00048828125,-0.017791748046875
1773790586444277500,3.474277587890625,-0.9950408935546875,0.000396728515625,-0.0183868408203125
1773790586464240600,3.49424072265625,-0.9958648681640625,0.00018310546875,-0.0190582275390625
1773790586484203500,3.51420361328125,-0.9973297119140625,0.000762939453125,-0.0181121826171875
1773790586504166700,3.534166748046875,-0.9956512451171875,0.00128173828125,-0.017425537109375
1773790586524129500,3.554129638671875,-0.995819091796875,0.0005340576171875,-0.0176239013671875
1773790586544092700,3.5740927734375,-0.996429443359375,0.000152587890625,-0.0192108154296875
1773790586564055600,3.5940556640625,-0.99627685546875,0.0009307861328125,-0.0180511474609375
1773790586584018400,3.614018310546875,-0.99481201171875,-0.000030517578125,-0.01751708984375
1773790586603981600,3.633981689453125,-0.9954071044921875,-0.000823974609375,-0.0177459716796875
1773790586623944400,3.6539443359375,-0.9954681396484375,-0.0002288818359375,-0.0183563232421875
1773790586643907600,3.673907470703125,-0.9956817626953125,0.000457763671875,-0.0185699462890625
1773790586663870500,3.693870361328125,-0.995574951171875,0.0006866455078125,-0.018890380859375
1773790586683833600,3.71383349609375,-0.994842529296875,0.0015716552734375,-0.0177459716796875
1773790586703796700,3.733796630859375,-0.995574951171875,0.0001068115234375,-0.0183868408203125
1773790586723759600,3.753759521484375,-0.9964752197265625,0.0017852783203125,-0.017181396484375
1773790586743722500,3.773722412109375,-0.9957427978515625,-0.000335693359375,-0.016754150390625
1773790586763685400,3.793685302734375,-0.9949951171875,0.0014495849609375,-0.0174102783203125
1773790586783648500,3.8136484375,-0.993988037109375,-0.001068115234375,-0.01776123046875
1773790586803611400,3.833611328125,-0.9972076416015625,0.000335693359375,-0.0170135498046875
1773790586823574500,3.853574462890625,-0.995574951171875,0.000396728515625,-0.017181396484375
1773790586843537400,3.873537353515625,-0.9970245361328125,-0.000732421875,-0.0177764892578125
1773790586863500300,3.893500244140625,-0.9954833984375,0.0005950927734375,-0.0169219970703125
1773790586883463400,3.91346337890625,-0.995819091796875,-0.00006103515625,-0.017303466796875
1773790586903426300,3.93342626953125,-0.99542236328125,0.0000152587890625,-0.018035888671875
1773790586923389400,3.953389404296875,-0.9955902099609375,-0.000823974609375,-0.0177459716796875
1773790586943352600,3.9733525390625,-0.9962921142578125,0.0007476806640625,-0.0180816650390625
1773790586963315500,3.9933154296875,-0.996917724609375,-0.0002593994140625,-0.0173187255859375
1773790586983278600,4.013278564453125,-0.996490478515625,-0.0001220703125,-0.0176849365234375
1773790587003241500,4.033241455078125,-0.9951934814453125,-0.000152587890625,-0.0189361572265625
1773790587023204400,4.053204345703125,-0.99627685546875,0.000244140625,-0.018218994140625
1773790587043167200,4.073167236328125,-0.996917724609375,-0.0004119873046875,-0.017181396484375
1773790587063130400,4.09313037109375,-0.99530029296875,0.0012664794921875,-0.0182952880859375
1773790587083093500,4.113093505859375,-0.996002197265625,0.00006103515625,-0.0178985595703125
1773790587103056400,4.133056396484375,-0.9952392578125,-0.0005035400390625,-0.0180511474609375
1773790587123019500,4.15301953125,-0.996124267578125,0.001220703125,-0.017181396484375
1773790587142982400,4.172982421875,-0.996002197265625,0.0012664794921875,-0.0169219970703125
1773790587162945500,4.192945556640625,-0.9976654052734375,-0.0003814697265625,-0.017578125
1773790587182908400,4.212908447265625,-0.9962005615234375,0.0003509521484375,-0.0166473388671875
1773790587202871300,4.232871337890625,-0.9952239990234375,0.000732421875,-0.0178070068359375
1773790587222834400,4.25283447265625,-0.9954986572265625,0,-0.017852783203125
1773790587242797300,4.27279736328125,-0.9959869384765625,0.0014495849609375,-0.0174560546875
1773790587262760400,4.292760498046875,-0.9945068359375,-0.0003814697265625,-0.0184173583984375
1773790587282723300,4.312723388671875,-0.9959869384765625,0.0004119873046875,-0.0180816650390625
1773790587302686500,4.3326865234375,-0.995361328125,0.0005035400390625,-0.0183868408203125
1773790587322649600,4.352649658203125,-0.9962310791015625,0.0001068115234375,-0.0185089111328125
1773790587342612500,4.372612548828125,-0.9961090087890625,0.0005340576171875,-0.017822265625
1773790587362575600,4.39257568359375,-0.99542236328125,0.0012969970703125,-0.0177154541015625
1773790587382538200,4.412538330078125,-0.995361328125,-0.0002288818359375,-0.0179901123046875
1773790587402501400,4.43250146484375,-0.995697021484375,-0.000030517578125,-0.018890380859375
1773790587422464300,4.45246435546875,-0.9957733154296875,0.0002288818359375,-0.0185089111328125
1773790587442427400,4.472427490234375,-0.99609375,0,-0.0179443359375
1773790587462390500,4.492390625,-0.996551513671875,0.0015106201171875,-0.018402099609375
1773790587482353400,4.512353515625,-0.9941558837890625,-0.00067138671875,-0.01751708984375
1773790587502316500,4.532316650390625,-0.997039794921875,0.0008392333984375,-0.016632080078125
1773790587522279400,4.552279541015625,-0.9949798583984375,-0.0005340576171875,-0.0176239013671875
1773790587542242600,4.57224267578125,-0.99542236328125,0.0011749267578125,-0.018707275390625
1773790587562205400,4.592205322265625,-0.9949798583984375,0.0008392333984375,-0.0177459716796875
1773790587582168300,4.612168212890625,-0.99493408203125,0.0006866455078125,-0.0173797607421875
1773790587602131500,4.63213134765625,-0.9959716796875,0.0003662109375,-0.0181884765625
1773790587622094300,4.65209423828125,-0.9970550537109375,0.0000457763671875,-0.0178985595703125
1773790587642057500,4.672057373046875,-0.995697021484375,0.000152587890625,-0.017181396484375
1773790587662020400,4.692020263671875,-0.9949798583984375,0.001556396484375,-0.017608642578125
1773790587681983500,4.7119833984375,-0.995147705078125,0.0001678466796875,-0.01678466796875
1773790587701946600,4.731946533203125,-0.9966888427734375,0.0001678466796875,-0.01751708984375
1773790587721909500,4.751909423828125,-0.995147705078125,0.0002288818359375,-0.0172882080078125
1773790587741873200,4.771873046875,-0.995697021484375,-0.0001220703125,-0.0186004638671875
1773790587761836000,4.7918359375,-0.99578857421875,-0.0002288818359375,-0.0172119140625
1773790587781799200,4.811799072265625,-0.995574951171875,0.0002288818359375,-0.0184478759765625
1773790587801762000,4.831761962890625,-0.9964447021484375,-0.0001220703125,-0.0173187255859375
1773790587821725200,4.85172509765625,-0.9955291748046875,-0.0001220703125,-0.0172271728515625
1773790587841688000,4.87168798828125,-0.996337890625,0.000579833984375,-0.01708984375
1773790587861651200,4.891651123046875,-0.99639892578125,0.0005645751953125,-0.0182037353515625
1773790587881614300,4.9116142578125,-0.9962310791015625,0.0008544921875,-0.017486572265625
1773790587901577200,4.9315771484375,-0.9962310791015625,0.0008087158203125,-0.0184326171875
1773790587921540400,4.951540283203125,-0.995819091796875,-0.001190185546875,-0.0168914794921875
1773790587941503000,4.9715029296875,-0.99609375,0.0001220703125,-0.017059326171875
1773790587961466000,4.991466064453125,-0.9958343505859375,0.0011138916015625,-0.0188751220703125
1773790587981429000,5.011428955078125,-0.9960174560546875,-0.000244140625,-0.019256591796875
1773790588001392000,5.03139208984375,-0.9962615966796875,0.000579833984375,-0.0177764892578125
1773790588021355300,5.051355224609375,-0.996063232421875,0.00042724609375,-0.0184783935546875
1773790588041318100,5.071318115234375,-0.9952545166015625,-0.000335693359375,-0.0182342529296875
1773790588061281300,5.09128125,-0.995208740234375,0.0007781982421875,-0.017669677734375
1773790588081244200,5.111244140625,-0.9968414306640625,0.0004119873046875,-0.0183258056640625
1773790588101207300,5.131207275390625,-0.9960784912109375,0.0000457763671875,-0.0180511474609375
1773790588121170000,5.151169921875,-0.9969635009765625,0.001007080078125,-0.017730712890625
1773790588141133000,5.171133056640625,-0.9968719482421875,-0.0000152587890625,-0.017791748046875
1773790588161096200,5.19109619140625,-0.9951934814453125,0.0005645751953125,-0.0173187255859375
1773790588181059000,5.21105908203125,-0.9959259033203125,0.0009765625,-0.017669677734375
1773790588201022200,5.231022216796875,-0.9962158203125,-0.000213623046875,-0.017974853515625
1773790588220985000,5.250985107421875,-0.99639892578125,0.0003509521484375,-0.018463134765625
1773790588240948200,5.2709482421875,-0.9951171875,0.0008697509765625,-0.0176849365234375
1773790588260911000,5.2909111328125,-0.9981842041015625,-0.0005645751953125,-0.0189361572265625
1773790588280874200,5.310874267578125,-0.9964141845703125,0.001678466796875,-0.0171356201171875
1773790588300837000,5.330837158203125,-0.996826171875,0.001190185546875,-0.017333984375
1773790588320800000,5.350800048828125,-0.9951629638671875,0.0012054443359375,-0.0181732177734375
1773790588340763100,5.37076318359375,-0.9948883056640625,0.0003509521484375,-0.0169219970703125
1773790588360726000,5.39072607421875,-0.9951324462890625,0.00042724609375,-0.017852783203125
1773790588380689200,5.410689208984375,-0.995391845703125,0.000823974609375,-0.01837158203125
1773790588400652300,5.43065234375,-0.9959869384765625,0.00006103515625,-0.0165252685546875
1773790588420615200,5.450615234375,-0.99462890625,0.0001373291015625,-0.0189971923828125
1773790588440578300,5.470578369140625,-0.9953155517578125,0.000457763671875,-0.0181427001953125
1773790588460541200,5.490541259765625,-0.9952545166015625,0.0004425048828125,-0.0182342529296875
1773790588480504000,5.510504150390625,-0.99615478515625,-0.000030517578125,-0.0172576904296875
1773790588500467000,5.530467041015625,-0.99658203125,-0.000030517578125,-0.0174713134765625
1773790588520430000,5.55043017578125,-0.9962310791015625,0.0010223388671875,-0.0179595947265625
1773790588540393200,5.570393310546875,-0.9962005615234375,0.000640869140625,-0.0180206298828125
1773790588560355000,5.59035498046875,-0.9951324462890625,0.00115966796875,-0.0177459716796875
1773790588580318200,5.610318115234375,-0.9963226318359375,-0.0002288818359375,-0.01739501953125
1773790588600281300,5.63028125,-0.996490478515625,0.0009002685546875,-0.017333984375
1773790588620244000,5.650243896484375,-0.994598388671875,0.0006561279296875,-0.017303466796875
1773790588640207000,5.67020703125,-0.996795654296875,0.001007080078125,-0.0173492431640625
1773790588660170000,5.690169921875,-0.9955902099609375,0.000152587890625,-0.0174102783203125
1773790588680133000,5.710133056640625,-0.996673583984375,0.0006866455078125,-0.0168914794921875
1773790588700096300,5.73009619140625,-0.9952392578125,0.0007781982421875,-0.0181427001953125
1773790588720059100,5.75005908203125,-0.9971160888671875,0.00042724609375,-0.0188140869140625
1773790588740022500,5.7700224609375,-0.99603271484375,-0.0001373291015625,-0.016571044921875
1773790588759985400,5.7899853515625,-0.9958953857421875,0.00042724609375,-0.0185546875
1773790588779948500,5.809948486328125,-0.99615478515625,-0.0001068115234375,-0.0182647705078125
1773790588799911400,5.829911376953125,-0.9955902099609375,0.0005035400390625,-0.017913818359375
1773790588819874300,5.849874267578125,-0.995513916015625,0.0001983642578125,-0.018157958984375
1773790588839837400,5.86983740234375,-0.994659423828125,-0.0012054443359375,-0.0178985595703125
1773790588859800300,5.88980029296875,-0.9954986572265625,0.0006103515625,-0.0176849365234375
1773790588879763500,5.909763427734375,-0.9964141845703125,-0.00042724609375,-0.0169219970703125
1773790588899726300,5.929726318359375,-0.9958953857421875,0.0006561279296875,-0.0179901123046875
1773790588919689500,5.949689453125,-0.99566650390625,-0.0007476806640625,-0.01776123046875
1773790588939652400,5.96965234375,-0.9953155517578125,0.000274658203125,-0.01812744140625
1773790588959615500,5.989615478515625,-0.996551513671875,0.0011444091796875,-0.016845703125
1773790588979578400,6.009578369140625,-0.9954071044921875,-0.0009002685546875,-0.0193023681640625
1773790588999541200,6.029541259765625,-0.9951324462890625,-0.000701904296875,-0.0177459716796875
1773790589019504400,6.04950439453125,-0.9967498779296875,-0.000335693359375,-0.0181884765625
1773790589039467300,6.06946728515625,-0.995697021484375,0.0010528564453125,-0.0181427001953125
1773790589059430400,6.089430419921875,-0.997100830078125,0.0003204345703125,-0.0181121826171875
1773790589079393300,6.109393310546875,-0.9954681396484375,0.000885009765625,-0.0180816650390625
1773790589099356400,6.1293564453125,-0.9940185546875,0.0001068115234375,-0.018951416015625
1773790589119319600,6.149319580078125,-0.996612548828125,0.00006103515625,-0.0183258056640625
1773790589139282400,6.169282470703125,-0.995880126953125,-0.0014801025390625,-0.0173797607421875
1773790589159245600,6.18924560546875,-0.9951019287109375,0.000213623046875,-0.017791748046875
1773790589179208200,6.209208251953125,-0.9966888427734375,0.0001220703125,-0.0175933837890625
1773790589199171300,6.22917138671875,-0.9950714111328125,-0.0008087158203125,-0.01617431640625
1773790589219134200,6.24913427734375,-0.995330810546875,0.0007781982421875,-0.0191650390625
1773790589239097300,6.269097412109375,-0.996063232421875,0.0008697509765625,-0.018829345703125
1773790589259060500,6.289060546875,-0.99591064453125,0.001007080078125,-0.0175018310546875
1773790589279023400,6.3090234375,-0.995208740234375,-0.0002288818359375,-0.0169525146484375
1773790589298986500,6.328986572265625,-0.9958343505859375,0.001007080078125,-0.0180511474609375
1773790589318949400,6.348949462890625,-0.9952850341796875,0.0007171630859375,-0.018463134765625
1773790589338912500,6.36891259765625,-0.995849609375,0.0006256103515625,-0.0178680419921875
1773790589358875400,6.38887548828125,-0.9958343505859375,0.0004119873046875,-0.0174407958984375
1773790589378838300,6.40883837890625,-0.9953460693359375,-0.00006103515625,-0.018310546875
1773790589398801400,6.428801513671875,-0.9943389892578125,0.0005340576171875,-0.01873779296875
1773790589418764300,6.448764404296875,-0.9968414306640625,0.0002288818359375,-0.019805908203125
1773790589438727400,6.4687275390625,-0.995086669921875,0.0006866455078125,-0.0178375244140625
1773790589458690300,6.488690185546875,-0.995391845703125,0.0015411376953125,-0.0181121826171875
1773790589478653400,6.5086533203125,-0.99505615234375,0.000579833984375,-0.0183868408203125
1773790589498616600,6.528616455078125,-0.9959869384765625,0,-0.0166778564453125
1773790589518579500,6.548579345703125,-0.99591064453125,-0.0002899169921875,-0.018463134765625
1773790589538542600,6.56854248046875,-0.9955291748046875,0.0004425048828125,-0.0189208984375
1773790589558505200,6.588505126953125,-0.9960784912109375,0.0008697509765625,-0.01788330078125
1773790589578468400,6.60846826171875,-0.99609375,0.000701904296875,-0.01715087890625
1773790589598431200,6.62843115234375,-0.9952392578125,-0.0002593994140625,-0.0170745849609375
1773790589618394400,6.648394287109375,-0.9952850341796875,0.0001678466796875,-0.0176544189453125
1773790589638357500,6.668357421875,-0.9962921142578125,0.000244140625,-0.017669677734375
1773790589658320400,6.6883203125,-0.9976806640625,-0.0004425048828125,-0.0180511474609375
1773790589678283500,6.708283447265625,-0.9947967529296875,-0.000457763671875,-0.01861572265625
1773790589698246400,6.728246337890625,-0.9957427978515625,0.0005035400390625,-0.0188446044921875
1773790589718209500,6.74820947265625,-0.9963531494140625,0.0003814697265625,-0.016265869140625
1773790589738172400,6.76817236328125,-0.996337890625,0.0011138916015625,-0.01776123046875
1773790589758135300,6.78813525390625,-0.996978759765625,0.000640869140625,-0.017181396484375
1773790589778097200,6.80809716796875,-0.99456787109375,0.0009765625,-0.0182952880859375
1773790589798060300,6.828060302734375,-0.9947509765625,0.0005950927734375,-0.0190887451171875
1773790589818023200,6.848023193359375,-0.996185302734375,0.000396728515625,-0.016754150390625
1773790589837986300,6.867986328125,-0.9965362548828125,0.001556396484375,-0.0170135498046875
1773790589857949200,6.88794921875,-0.996612548828125,0.0000457763671875,-0.0186767578125
1773790589877912300,6.907912353515625,-0.9965362548828125,0.0005340576171875,-0.0181427001953125
1773790589897875200,6.927875244140625,-0.99517822265625,0.001434326171875,-0.0185546875
1773790589917838300,6.94783837890625,-0.9954986572265625,0.0011138916015625,-0.01910400390625
1773790589937801500,6.967801513671875,-0.996490478515625,0.0001068115234375,-0.0178985595703125
1773790589957764000,6.98776416015625,-0.994415283203125,0.000579833984375,-0.0173187255859375
1773790589977727200,7.007727294921875,-0.9967041015625,0.000701904296875,-0.0181884765625
1773790589997690000,7.027690185546875,-0.9947357177734375,0.0006866455078125,-0.0171661376953125
1773790590017653200,7.0476533203125,-0.9960479736328125,0.0006256103515625,-0.0178680419921875
1773790590037616000,7.0676162109375,-0.99615478515625,0.001007080078125,-0.016937255859375
1773790590057579300,7.087579345703125,-0.9965972900390625,-0.000579833984375,-0.017547607421875
1773790590077542400,7.10754248046875,-0.99505615234375,0.0011138916015625,-0.0175933837890625
1773790590097505300,7.12750537109375,-0.996429443359375,0.00006103515625,-0.0176239013671875
1773790590117468400,7.147468505859375,-0.9956512451171875,-0.0007476806640625,-0.0179443359375
1773790590137431300,7.167431396484375,-0.9964141845703125,0.000244140625,-0.0176544189453125
1773790590157394200,7.187394287109375,-0.996856689453125,0.0009918212890625,-0.0179595947265625
1773790590177357300,7.207357421875,-0.9953460693359375,0.0009918212890625,-0.018402099609375
1773790590197320200,7.2273203125,-0.9967193603515625,-0.000213623046875,-0.01727294921875
1773790590217283300,7.247283447265625,-0.9955902099609375,0.000335693359375,-0.0172576904296875
1773790590237246200,7.26724609375,-0.996124267578125,0.000579833984375,-0.0178680419921875
1773790590257209300,7.287209228515625,-0.9946746826171875,-0.00054931640625,-0.0188446044921875
1773790590277172200,7.307172119140625,-0.9960174560546875,0.0006561279296875,-0.0172882080078125
1773790590297135400,7.32713525390625,-0.995147705078125,0.0009307861328125,-0.017120361328125
1773790590317098500,7.347098388671875,-0.996185302734375,0.0006561279296875,-0.018646240234375
1773790590337061000,7.36706103515625,-0.9965972900390625,0.0002593994140625,-0.01806640625
1773790590357024300,7.387024169921875,-0.9965667724609375,-0.000335693359375,-0.0185546875
1773790590376987100,7.406987060546875,-0.995880126953125,0.0008087158203125,-0.016876220703125
1773790590396950300,7.4269501953125,-0.995635986328125,-0.0000152587890625,-0.017974853515625
1773790590416913200,7.4469130859375,-0.9972381591796875,0.000762939453125,-0.0175628662109375
1773790590436876300,7.466876220703125,-0.9956512451171875,0.0004730224609375,-0.0179901123046875
1773790590456839400,7.48683935546875,-0.9964752197265625,0.000457763671875,-0.0185546875
1773790590476802300,7.50680224609375,-0.9952545166015625,-0.0001220703125,-0.0170135498046875
1773790590496765400,7.526765380859375,-0.995941162109375,0,-0.018402099609375
1773790590516728000,7.54672802734375,-0.9963531494140625,0.0006561279296875,-0.019073486328125
1773790590536691200,7.566691162109375,-0.996246337890625,-0.00006103515625,-0.01806640625
1773790590556654300,7.586654296875,-0.9952850341796875,0.000030517578125,-0.01910400390625
1773790590576617200,7.6066171875,-0.9964447021484375,0.0002288818359375,-0.0175323486328125
1773790590596579300,7.626579345703125,-0.996734619140625,0.0005950927734375,-0.0176544189453125
1773790590616542500,7.64654248046875,-0.995391845703125,0.0014190673828125,-0.0177459716796875
1773790590636505300,7.66650537109375,-0.9944305419921875,-0.0006103515625,-0.018157958984375
1773790590656468200,7.68646826171875,-0.9944610595703125,0.0009613037109375,-0.017852783203125
1773790590676431000,7.70643115234375,-0.99639892578125,0.0008697509765625,-0.018768310546875
1773790590696394200,7.726394287109375,-0.99615478515625,-0.00030517578125,-0.0169677734375
1773790590716357000,7.746357177734375,-0.9965667724609375,0.000335693359375,-0.0176239013671875
1773790590736320300,7.7663203125,-0.9950714111328125,0.0003204345703125,-0.0193634033203125
1773790590756283100,7.786283203125,-0.9954986572265625,0.0001678466796875,-0.0175628662109375
1773790590776246000,7.80624609375,-0.99578857421875,0.0007171630859375,-0.0173797607421875
1773790590796209200,7.826209228515625,-0.9962005615234375,0.001556396484375,-0.0174407958984375
1773790590816172000,7.846172119140625,-0.9967041015625,-0.000244140625,-0.01727294921875
1773790590836135200,7.86613525390625,-0.9960174560546875,-0.0005645751953125,-0.017730712890625
1773790590856098000,7.88609814453125,-0.9965667724609375,0.000579833984375,-0.0179901123046875
1773790590876061200,7.906061279296875,-0.9948577880859375,0.0007171630859375,-0.017242431640625
1773790590896024300,7.9260244140625,-0.99591064453125,-0.0007781982421875,-0.0172119140625
1773790590915987200,7.9459873046875,-0.9962310791015625,0.0000457763671875,-0.018035888671875
1773790590935950000,7.9659501953125,-0.9950103759765625,0.0009918212890625,-0.018157958984375
1773790590955913000,7.985912841796875,-0.996826171875,-0.0006103515625,-0.0177459716796875
1773790590975876000,8.0058759765625,-0.9965057373046875,0.0003509521484375,-0.0176849365234375
1773790590995839200,8.025839111328125,-0.996673583984375,0.0003814697265625,-0.0178680419921875
1773790591015802000,8.045802001953126,-0.9955596923828125,0.0004730224609375,-0.017578125
1773790591035765200,8.06576513671875,-0.99542236328125,-0.0004730224609375,-0.017669677734375
1773790591055728000,8.08572802734375,-0.9953460693359375,-0.00091552734375,-0.0171661376953125
1773790591075691300,8.105691162109375,-0.9960174560546875,0.0010986328125,-0.0174102783203125
1773790591095654100,8.125654052734374,-0.99591064453125,0.0001983642578125,-0.0174560546875
1773790591115617000,8.145616943359375,-0.99578857421875,-0.0005340576171875,-0.0189208984375
1773790591135580200,8.165580078125,-0.99566650390625,0.0001068115234375,-0.0169219970703125
1773790591155543000,8.18554296875,-0.9952545166015625,0.0009613037109375,-0.0181732177734375
1773790591175506200,8.205506103515624,-0.994384765625,0.0001220703125,-0.017852783203125
1773790591195469000,8.225468994140625,-0.996917724609375,-0.00054931640625,-0.0184173583984375
1773790591215432200,8.24543212890625,-0.99615478515625,0.0000457763671875,-0.0175323486328125
1773790591235394300,8.265394287109375,-0.9958343505859375,0.000152587890625,-0.017120361328125
1773790591255357000,8.28535693359375,-0.996307373046875,0.0003814697265625,-0.0172119140625
1773790591275320000,8.305320068359375,-0.995147705078125,0.0002899169921875,-0.0175628662109375
1773790591295283200,8.325283203125,-0.994903564453125,0.0008087158203125,-0.0174102783203125
1773790591315246000,8.34524609375,-0.9957733154296875,-0.0002288818359375,-0.01776123046875
1773790591335209200,8.365209228515624,-0.9948883056640625,0.0000152587890625,-0.017120361328125
1773790591355172000,8.385172119140625,-0.99505615234375,0.0003662109375,-0.0177001953125
1773790591375135200,8.40513525390625,-0.99530029296875,0.0012969970703125,-0.017303466796875
1773790591395098000,8.42509814453125,-0.996734619140625,0.000244140625,-0.017791748046875
1773790591415061200,8.445061279296874,-0.99554443359375,0.0000152587890625,-0.0178680419921875
1773790591435024100,8.465024169921875,-0.99578857421875,0.000823974609375,-0.018798828125
1773790591454987000,8.484987060546874,-0.99639892578125,0.0016937255859375,-0.01727294921875
1773790591474950100,8.5049501953125,-0.99493408203125,-0.0002593994140625,-0.0174713134765625
1773790591494913000,8.5249130859375,-0.995697021484375,0.00115966796875,-0.0183258056640625
1773790591514876200,8.544876220703125,-0.9956817626953125,0.00006103515625,-0.017242431640625
1773790591534839000,8.564839111328125,-0.9941558837890625,0.00018310546875,-0.01824951171875
1773790591554802200,8.58480224609375,-0.9952239990234375,-0.0000762939453125,-0.0173187255859375
1773790591574765300,8.604765380859375,-0.9964447021484375,0.000244140625,-0.0168304443359375
1773790591594728200,8.624728271484376,-0.9941253662109375,0.000701904296875,-0.0186004638671875
1773790591614691300,8.64469140625,-0.99658203125,0.00128173828125,-0.018096923828125
1773790591634654000,8.664654052734376,-0.99566650390625,0.0006866455078125,-0.0181732177734375
1773790591654617000,8.6846171875,-0.9959259033203125,0.0004730224609375,-0.017913818359375
1773790591674580200,8.704580322265626,-0.9959716796875,0.000274658203125,-0.0172271728515625
1773790591694543000,8.724543212890625,-0.9967193603515625,-0.0002593994140625,-0.0183258056640625
1773790591714506200,8.74450634765625,-0.995941162109375,-0.0003204345703125,-0.0171966552734375
1773790591734469000,8.76446923828125,-0.9947357177734375,0.0011749267578125,-0.017242431640625
1773790591754432800,8.784432861328124,-0.9955902099609375,0,-0.0169525146484375
1773790591774395600,8.804395751953125,-0.9955902099609375,0.0009002685546875,-0.0173797607421875
1773790591794358800,8.82435888671875,-0.9952545166015625,0.000946044921875,-0.018341064453125
1773790591814321700,8.84432177734375,-0.996002197265625,0.000518798828125,-0.0172882080078125
1773790591834284500,8.864284423828124,-0.9953155517578125,0.000396728515625,-0.017303466796875
1773790591854247700,8.88424755859375,-0.9951934814453125,0.0000152587890625,-0.017059326171875
1773790591874210600,8.90421044921875,-0.9963531494140625,0.000823974609375,-0.016998291015625
1773790591894173700,8.924173583984375,-0.995330810546875,0.0003662109375,-0.0186920166015625
1773790591914136600,8.944136474609374,-0.9958038330078125,-0.000244140625,-0.0177001953125
1773790591934098700,8.9640986328125,-0.99578857421875,0.0011138916015625,-0.0182037353515625
1773790591954061800,8.984061767578124,-0.99658203125,0.000335693359375,-0.018096923828125
1773790591974024400,9.0040244140625,-0.996002197265625,-0.000579833984375,-0.01934814453125
1773790591993987600,9.023987548828124,-0.9950103759765625,0.0000457763671875,-0.01800537109375
1773790592013950500,9.043950439453125,-0.9956207275390625,0.0007171630859375,-0.0182037353515625
1773790592033913600,9.06391357421875,-0.995361328125,-0.000274658203125,-0.0178070068359375
1773790592053876700,9.083876708984375,-0.9946441650390625,0.001007080078125,-0.017486572265625
1773790592073839600,9.103839599609374,-0.995697021484375,0.0012969970703125,-0.0184783935546875
1773790592093802800,9.123802734375,-0.99517822265625,0,-0.0177154541015625
1773790592113764600,9.1437646484375,-0.995697021484375,-0.000396728515625,-0.018646240234375
1773790592133727500,9.1637275390625,-0.995391845703125,-0.0005035400390625,-0.0183258056640625
1773790592153690600,9.183690673828124,-0.997039794921875,0.0007476806640625,-0.0179901123046875
1773790592173653500,9.203653564453125,-0.9958648681640625,-0.000152587890625,-0.0184478759765625
1773790592193616600,9.22361669921875,-0.9962158203125,0.0010986328125,-0.017730712890625
1773790592213579800,9.243579833984375,-0.9959869384765625,-0.0001983642578125,-0.0175323486328125
1773790592233542700,9.263542724609374,-0.99420166015625,0.0015411376953125,-0.0186309814453125
1773790592253505800,9.283505859375,-0.99700927734375,-0.000030517578125,-0.0180206298828125
1773790592273468700,9.30346875,-0.996429443359375,0.0000762939453125,-0.01861572265625
1773790592293431800,9.323431884765625,-0.996490478515625,-0.0005035400390625,-0.0182342529296875
1773790592313394400,9.34339453125,-0.9957275390625,0.0005645751953125,-0.018402099609375
1773790592333357600,9.363357666015625,-0.9950408935546875,-0.0001983642578125,-0.019073486328125
1773790592353320700,9.38332080078125,-0.99566650390625,0.0001983642578125,-0.018310546875
1773790592373283600,9.40328369140625,-0.9964141845703125,-0.0002288818359375,-0.0182952880859375
1773790592393246700,9.423246826171875,-0.995208740234375,0.00030517578125,-0.0179901123046875
1773790592413208800,9.443208740234375,-0.996002197265625,0.00115966796875,-0.0180511474609375
1773790592433171700,9.463171630859375,-0.9966278076171875,0.0009765625,-0.0176239013671875
1773790592453134600,9.483134521484375,-0.995025634765625,0.00042724609375,-0.0167999267578125
1773790592473097500,9.503097412109375,-0.99468994140625,-0.0000152587890625,-0.0174407958984375
1773790592493060600,9.523060546875,-0.995697021484375,0.0013580322265625,-0.0182037353515625
1773790592513023500,9.5430234375,-0.994903564453125,0.00018310546875,-0.0177764892578125
1773790592532986600,9.562986572265626,-0.99560546875,-0.0009002685546875,-0.01800537109375
1773790592552949800,9.58294970703125,-0.9957733154296875,0.0006256103515625,-0.0183868408203125
1773790592572912600,9.60291259765625,-0.9951629638671875,0.00006103515625,-0.0180206298828125
1773790592592875800,9.622875732421875,-0.9947662353515625,0.00054931640625,-0.017486572265625
1773790592612838700,9.642838623046876,-0.9964599609375,-0.0001678466796875,-0.0182647705078125
1773790592632801500,9.662801513671875,-0.995513916015625,0.0005645751953125,-0.0179595947265625
1773790592652764700,9.6827646484375,-0.9958038330078125,0.0016632080078125,-0.018798828125
1773790592672727600,9.7027275390625,-0.9957427978515625,0.0010223388671875,-0.0184326171875
1773790592692690700,9.722690673828126,-0.99566650390625,0.0001678466796875,-0.0173187255859375
1773790592712653600,9.742653564453125,-0.9959259033203125,0.000640869140625,-0.0183563232421875
1773790592732616700,9.76261669921875,-0.9959869384765625,0,-0.0178375244140625
1773790592752579300,9.782579345703125,-0.99664306640625,0.001007080078125,-0.0172119140625
1773790592772542200,9.802542236328126,-0.997314453125,0.0005950927734375,-0.019195556640625
1773790592792505300,9.82250537109375,-0.996337890625,0.0001373291015625,-0.0179595947265625
1773790592812467500,9.842467529296876,-0.99560546875,0.000091552734375,-0.0175933837890625
1773790592832430300,9.862430419921875,-0.9958648681640625,0.00079345703125,-0.01727294921875
1773790592852393200,9.882393310546876,-0.99517822265625,0.00018310546875,-0.01849365234375
1773790592872356000,9.902356201171875,-0.9956512451171875,-0.0008087158203125,-0.016754150390625
1773790592892319200,9.9223193359375,-0.995758056640625,0.00067138671875,-0.017364501953125
1773790592912282000,9.9422822265625,-0.995330810546875,-0.0003662109375,-0.0167999267578125
1773790592932245200,9.962245361328126,-0.99554443359375,-0.0001068115234375,-0.0178375244140625
1773790592952208400,9.98220849609375,-0.9960784912109375,0.00048828125,-0.0174560546875
1773790592972171300,10.002171142578124,-0.996002197265625,0.0000762939453125,-0.0187225341796875
1773790592992134400,10.022134521484375,-0.9949798583984375,0.00091552734375,-0.01739501953125
1773790593012097300,10.04209716796875,-0.9977264404296875,-0.0012664794921875,-0.017913818359375
1773790593032060400,10.062060302734375,-0.9959716796875,0.0005645751953125,-0.017578125
1773790593052023300,10.082023193359374,-0.995819091796875,-0.0003662109375,-0.017730712890625
1773790593071986200,10.101986083984375,-0.996063232421875,0.0000457763671875,-0.01806640625
1773790593091949300,10.12194921875,-0.9951324462890625,0.0005035400390625,-0.017608642578125
1773790593111912200,10.141912109375,-0.9953155517578125,-0.0003204345703125,-0.0176239013671875
1773790593131875300,10.161875244140624,-0.995208740234375,0.0006866455078125,-0.0182342529296875
1773790593151838200,10.181838134765625,-0.9966888427734375,0.000213623046875,-0.0185546875
1773790593171801300,10.20180126953125,-0.9965667724609375,0.0011444091796875,-0.017791748046875
1773790593191764500,10.221764404296875,-0.99505615234375,0.0000457763671875,-0.0177001953125
1773790593211726000,10.24172607421875,-0.996673583984375,-0.0000762939453125,-0.018798828125
1773790593231689200,10.261689208984375,-0.995819091796875,-0.000030517578125,-0.0177459716796875
1773790593251652400,10.28165234375,-0.99462890625,-0.0004119873046875,-0.018310546875
1773790593271615200,10.301615234375,-0.9967193603515625,0.000823974609375,-0.017578125
1773790593291578400,10.321578369140624,-0.9959259033203125,0.0005645751953125,-0.018829345703125
1773790593311541200,10.341541259765625,-0.9959716796875,0.00018310546875,-0.01763916015625
1773790593331504400,10.36150439453125,-0.99627685546875,0.00128173828125,-0.018829345703125
1773790593351467300,10.38146728515625,-0.9956512451171875,0.00042724609375,-0.01837158203125
1773790593371430100,10.40143017578125,-0.995941162109375,0.000335693359375,-0.01727294921875
1773790593391393300,10.421393310546875,-0.994964599609375,0.00048828125,-0.0184173583984375
1773790593411356200,10.441356201171875,-0.99530029296875,0.0004730224609375,-0.0181732177734375
1773790593431319300,10.4613193359375,-0.996551513671875,-0.0007476806640625,-0.01824951171875
1773790593451282200,10.4812822265625,-0.9962921142578125,-0.00018310546875,-0.0172882080078125
1773790593471245300,10.501245361328126,-0.995941162109375,-0.0006256103515625,-0.017364501953125
1773790593491208200,10.521208251953125,-0.9969940185546875,0.0005645751953125,-0.01812744140625
1773790593511171300,10.54117138671875,-0.996368408203125,-0.0010528564453125,-0.018096923828125
1773790593531134500,10.561134521484375,-0.996246337890625,0.000030517578125,-0.0174560546875
1773790593551097000,10.58109716796875,-0.995391845703125,0.00018310546875,-0.017425537109375
1773790593571059200,10.60105908203125,-0.9969024658203125,0.00067138671875,-0.0174102783203125
1773790593591022300,10.621022216796876,-0.9960784912109375,0.00006103515625,-0.01788330078125
1773790593610985200,10.640985107421875,-0.9956512451171875,0.00042724609375,-0.0169677734375
1773790593630948400,10.6609482421875,-0.9965362548828125,0.001312255859375,-0.0179595947265625
1773790593650911200,10.6809111328125,-0.9965667724609375,0.0006561279296875,-0.0175933837890625
1773790593670874400,10.700874267578126,-0.9956512451171875,-0.000701904296875,-0.0172119140625
1773790593690837500,10.72083740234375,-0.995758056640625,0.0001068115234375,-0.0180511474609375
1773790593710800100,10.740800048828126,-0.9958648681640625,0.000335693359375,-0.0182342529296875
1773790593730763300,10.76076318359375,-0.9955596923828125,0.000640869140625,-0.0182952880859375
1773790593750726100,10.78072607421875,-0.9968719482421875,0.001220703125,-0.017730712890625
1773790593770689300,10.800689208984375,-0.995269775390625,0.00091552734375,-0.018341064453125
1773790593790652200,10.820652099609376,-0.995361328125,0.0006256103515625,-0.0188751220703125
1773790593810615300,10.840615234375,-0.9959564208984375,-0.0004425048828125,-0.0176239013671875
1773790593830578400,10.860578369140624,-0.995880126953125,0.00042724609375,-0.0184478759765625
1773790593850541300,10.880541259765625,-0.9952545166015625,-0.0008392333984375,-0.0167694091796875
1773790593870504400,10.90050439453125,-0.994476318359375,0.0000457763671875,-0.0182037353515625
1773790593890467000,10.920467041015625,-0.99560546875,0.0007476806640625,-0.0179443359375
1773790593910430200,10.94043017578125,-0.99456787109375,-0.0000457763671875,-0.0187835693359375
1773790593930392300,10.960392333984375,-0.995574951171875,0.0006561279296875,-0.01763916015625
1773790593950355200,10.980355224609376,-0.9970855712890625,0.001495361328125,-0.019378662109375
1773790593970318300,11.000318359375,-0.99737548828125,-0.000274658203125,-0.0170440673828125
1773790593990281200,11.02028125,-0.99505615234375,0.000762939453125,-0.017547607421875
1773790594010244400,11.040244384765625,-0.996185302734375,0.000152587890625,-0.0185546875
1773790594030207200,11.060207275390624,-0.99578857421875,0.000732421875,-0.0179595947265625
1773790594050170000,11.080170166015625,-0.9958953857421875,-0.000823974609375,-0.016876220703125
1773790594070133200,11.10013330078125,-0.995330810546875,0.0006103515625,-0.0172576904296875
1773790594090096000,11.12009619140625,-0.9964752197265625,-0.00006103515625,-0.016632080078125
1773790594110059300,11.140059326171874,-0.9959259033203125,0.0015869140625,-0.018035888671875
1773790594130022400,11.1600224609375,-0.9954986572265625,0.00079345703125,-0.0178070068359375
1773790594149985300,11.1799853515625,-0.995513916015625,0.000244140625,-0.0176544189453125
1773790594169948400,11.199948486328125,-0.9948272705078125,0.001190185546875,-0.01715087890625
1773790594189911300,11.219911376953124,-0.996063232421875,-0.00115966796875,-0.0181884765625
1773790594209874200,11.239874267578125,-0.9949493408203125,0.00018310546875,-0.017364501953125
1773790594229837000,11.259837158203124,-0.995635986328125,0.000823974609375,-0.017669677734375
1773790594249800200,11.27980029296875,-0.994659423828125,0.0007476806640625,-0.0181427001953125
1773790594269762300,11.29976220703125,-0.995513916015625,-0.00006103515625,-0.0181732177734375
1773790594289725200,11.31972509765625,-0.9961090087890625,0.0006256103515625,-0.0175018310546875
1773790594309688300,11.339688232421874,-0.996002197265625,0.00030517578125,-0.01800537109375
1773790594329651500,11.3596513671875,-0.9960479736328125,0.0005950927734375,-0.0171051025390625
1773790594349614300,11.3796142578125,-0.996673583984375,0.000457763671875,-0.0169830322265625
1773790594369577200,11.3995771484375,-0.9962310791015625,0.00042724609375,-0.017120361328125
1773790594389540000,11.4195400390625,-0.9956207275390625,0.0010528564453125,-0.0185394287109375
1773790594409503200,11.439503173828125,-0.996551513671875,-0.0000152587890625,-0.0176544189453125
1773790594429466400,11.45946630859375,-0.9952850341796875,-0.00079345703125,-0.0188751220703125
1773790594449429200,11.47942919921875,-0.9954376220703125,0.000640869140625,-0.0180816650390625
1773790594469392400,11.499392333984375,-0.9960479736328125,-0.000091552734375,-0.01800537109375
1773790594489355300,11.519355224609376,-0.9954833984375,-0.0004425048828125,-0.0182952880859375
1773790594509318400,11.539318359375,-0.994659423828125,0.0004119873046875,-0.01837158203125
1773790594529281300,11.55928125,-0.9964447021484375,0.0003204345703125,-0.018096923828125
1773790594549244200,11.579244140625,-0.9941253662109375,0.00140380859375,-0.0174102783203125
1773790594569207300,11.599207275390626,-0.9961395263671875,-0.0000762939453125,-0.01654052734375
1773790594589170200,11.619170166015625,-0.99737548828125,0.000091552734375,-0.017578125
1773790594609132300,11.63913232421875,-0.995361328125,0.0006103515625,-0.018402099609375
1773790594629095400,11.659095458984375,-0.9946746826171875,-0.000213623046875,-0.018218994140625
1773790594649058300,11.679058349609376,-0.9957427978515625,0.0009002685546875,-0.0193023681640625
1773790594669021400,11.699021484375,-0.9973602294921875,0.00042724609375,-0.0184478759765625
1773790594688984000,11.718984130859376,-0.996917724609375,-0.000274658203125,-0.017242431640625
1773790594708947200,11.738947265625,-0.995941162109375,0,-0.01861572265625
1773790594728910000,11.75891015625,-0.9949951171875,0.000274658203125,-0.018829345703125
1773790594748874000,11.7788740234375,-0.995086669921875,-0.00091552734375,-0.0188446044921875
1773790594768836900,11.7988369140625,-0.995147705078125,0.000701904296875,-0.018157958984375
1773790594788800000,11.818800048828125,-0.9959869384765625,0.000030517578125,-0.0191802978515625
1773790594808763100,11.83876318359375,-0.9947967529296875,-0.0000457763671875,-0.0170440673828125
1773790594828726000,11.85872607421875,-0.9958343505859375,0.0009765625,-0.0184173583984375
1773790594848689200,11.878689208984374,-0.9951629638671875,0.0002899169921875,-0.017913818359375
1773790594868652000,11.898652099609375,-0.9960784912109375,0.0008087158203125,-0.017852783203125
1773790594888615200,11.918615234375,-0.996826171875,-0.0003814697265625,-0.01788330078125
1773790594908577800,11.938577880859375,-0.9958953857421875,0.0005950927734375,-0.018157958984375
1773790594928541000,11.958541015625,-0.9965362548828125,0.00067138671875,-0.01641845703125
1773790594948503000,11.9785029296875,-0.9954986572265625,0.0007781982421875,-0.0177001953125
1773790594968466000,11.9984658203125,-0.9966278076171875,0.0007476806640625,-0.017791748046875
1773790594988429000,12.018428955078125,-0.9966583251953125,-0.0000457763671875,-0.0174102783203125
1773790595008392200,12.03839208984375,-0.9974822998046875,-0.00091552734375,-0.01739501953125
1773790595028355000,12.05835498046875,-0.9961395263671875,0.0008392333984375,-0.0178680419921875
1773790595048318000,12.07831787109375,-0.995391845703125,0.0009918212890625,-0.0177001953125
1773790595068280800,12.09828076171875,-0.9944305419921875,0.0000762939453125,-0.0172576904296875
1773790595088244000,12.118243896484374,-0.9962005615234375,0.000244140625,-0.01904296875
1773790595108207000,12.13820703125,-0.9951629638671875,-0.000701904296875,-0.01800537109375
1773790595128170000,12.158169921875,-0.99566650390625,-0.00054931640625,-0.0186004638671875
1773790595148133000,12.178133056640625,-0.9960479736328125,0.000213623046875,-0.0174713134765625
1773790595168096000,12.198095947265625,-0.9958343505859375,0.0003662109375,-0.0181732177734375
1773790595188059100,12.21805908203125,-0.9959869384765625,0.0003814697265625,-0.0172882080078125
1773790595208022000,12.23802197265625,-0.995330810546875,-0.0003509521484375,-0.01861572265625
1773790595227985000,12.25798486328125,-0.99627685546875,0.000396728515625,-0.0173187255859375
1773790595247947000,12.277947021484374,-0.994476318359375,-0.000244140625,-0.017669677734375
1773790595267910000,12.297909912109375,-0.994842529296875,-0.0003662109375,-0.01812744140625
1773790595287873000,12.317873046875,-0.99664306640625,0.00079345703125,-0.0179290771484375
1773790595307836200,12.337836181640625,-0.996063232421875,0.0009765625,-0.017791748046875
1773790595327799000,12.357799072265625,-0.9962310791015625,0.000701904296875,-0.0179901123046875
1773790595347762200,12.37776220703125,-0.996551513671875,0.0009002685546875,-0.0171051025390625
1773790595367725000,12.39772509765625,-0.9968109130859375,0.000823974609375,-0.01727294921875
1773790595387688000,12.41768798828125,-0.9960784912109375,0.0004119873046875,-0.0157012939453125
1773790595407651000,12.437651123046875,-0.9958343505859375,0.00042724609375,-0.018280029296875
1773790595427614000,12.457614013671876,-0.99542236328125,0.00103759765625,-0.0178070068359375
1773790595447577000,12.4775771484375,-0.9951019287109375,0.0005950927734375,-0.0167083740234375
1773790595467540000,12.4975400390625,-0.996734619140625,-0.0003204345703125,-0.016998291015625
1773790595487503000,12.517503173828125,-0.9958038330078125,0.0008697509765625,-0.018157958984375
1773790595507466000,12.537466064453126,-0.9947357177734375,-0.000244140625,-0.01678466796875
1773790595527429000,12.55742919921875,-0.99530029296875,0.0001220703125,-0.0181121826171875
1773790595547392300,12.577392333984376,-0.9954833984375,0.00018310546875,-0.018218994140625
1773790595567353900,12.597353759765625,-0.9958038330078125,0.000823974609375,-0.0175933837890625
1773790595587317000,12.61731689453125,-0.99542236328125,-0.000213623046875,-0.0176239013671875
1773790595607280000,12.637280029296875,-0.9964599609375,0.0001983642578125,-0.0175323486328125
1773790595627243000,12.657242919921876,-0.995819091796875,0.0016937255859375,-0.0166473388671875
1773790595647206100,12.6772060546875,-0.99481201171875,0.00091552734375,-0.017578125
1773790595667169000,12.6971689453125,-0.99676513671875,0.0005950927734375,-0.0178375244140625
1773790595687132200,12.717132080078125,-0.995208740234375,0.00115966796875,-0.0179901123046875
1773790595707094800,12.7370947265625,-0.9947052001953125,0.000885009765625,-0.0168914794921875
1773790595730802200,12.76080224609375,-0.9947967529296875,0.001068115234375,-0.0166778564453125
1773790595750768600,12.7807685546875,-0.995574951171875,0.00103759765625,-0.0174407958984375
1773790595770731800,12.800731689453125,-0.996337890625,-0.000091552734375,-0.016998291015625
1773790595790694700,12.820694580078126,-0.99517822265625,0.0006561279296875,-0.018280029296875
1773790595810657800,12.84065771484375,-0.9942779541015625,0.0002593994140625,-0.0178375244140625
1773790595830620700,12.86062060546875,-0.99566650390625,0.0008392333984375,-0.0185546875
1773790595850582800,12.880582763671875,-0.9961395263671875,-0.0003662109375,-0.017822265625
1773790595870546000,12.9005458984375,-0.9954681396484375,-0.00018310546875,-0.01849365234375
1773790595890508500,12.920508544921875,-0.99462890625,0.0002288818359375,-0.0180511474609375
1773790595910471700,12.9404716796875,-0.9952545166015625,0.0002899169921875,-0.0178985595703125
1773790595930434800,12.960434814453125,-0.9955596923828125,-0.000152587890625,-0.017578125
1773790595950397700,12.980397705078126,-0.996063232421875,-0.000762939453125,-0.0176544189453125
1773790595970360800,13.00036083984375,-0.995697021484375,0.00054931640625,-0.0178070068359375
1773790595990323700,13.02032373046875,-0.9962158203125,0.0003662109375,-0.01776123046875
1773790596010286800,13.040286865234375,-0.9949493408203125,0.000732421875,-0.0176849365234375
1773790596030249700,13.060249755859376,-0.9966888427734375,-0.000885009765625,-0.01806640625
1773790596050212900,13.080212890625,-0.99609375,0.000518798828125,-0.0172271728515625
1773790596070176000,13.100176025390626,-0.9968109130859375,0.0003814697265625,-0.0171356201171875
1773790596090138600,13.120138671875,-0.9960784912109375,0.0010223388671875,-0.0186767578125
1773790596110100700,13.140100830078126,-0.995758056640625,-0.0004425048828125,-0.0171356201171875
1773790596130064000,13.16006396484375,-0.9962310791015625,-0.00042724609375,-0.0174560546875
1773790596150026800,13.18002685546875,-0.9962615966796875,0.00079345703125,-0.0183258056640625
1773790596169990000,13.199989990234375,-0.9969329833984375,0.0005035400390625,-0.0179595947265625
1773790596189952800,13.219952880859376,-0.99517822265625,0.000457763671875,-0.0170745849609375
1773790596209916000,13.239916015625,-0.9968414306640625,-0.0000457763671875,-0.01727294921875
1773790596229878800,13.259878662109376,-0.99554443359375,0.0004119873046875,-0.0175323486328125
1773790596249841700,13.279841552734375,-0.9949951171875,0.0000457763671875,-0.0175628662109375
1773790596269804800,13.2998046875,-0.9966888427734375,0.0003814697265625,-0.0177764892578125
1773790596289767700,13.319767578125,-0.996246337890625,0.000732421875,-0.01788330078125
1773790596309730800,13.339730712890624,-0.99462890625,0.0000152587890625,-0.0181732177734375
1773790596329693000,13.35969287109375,-0.997039794921875,-0.0000457763671875,-0.01806640625
1773790596349655800,13.37965576171875,-0.9969940185546875,0.0000152587890625,-0.0182342529296875
1773790596369618700,13.39961865234375,-0.9964447021484375,0.0009307861328125,-0.017303466796875
1773790596389581600,13.41958154296875,-0.9965057373046875,-0.000457763671875,-0.0183868408203125
1773790596409544700,13.439544677734375,-0.9954071044921875,0.000823974609375,-0.017669677734375
1773790596429507800,13.4595078125,-0.996551513671875,-0.0000762939453125,-0.01715087890625
1773790596449470700,13.479470703125,-0.996307373046875,0.0015869140625,-0.01708984375
1773790596469433900,13.499433837890624,-0.9970855712890625,0.000213623046875,-0.0184173583984375
1773790596489396700,13.519396728515625,-0.99542236328125,-0.0000152587890625,-0.016754150390625
1773790596509359900,13.53935986328125,-0.9944610595703125,0.0011444091796875,-0.0184173583984375
1773790596529322800,13.55932275390625,-0.996246337890625,0.000579833984375,-0.0179290771484375
1773790596549285600,13.57928564453125,-0.9954071044921875,0.001495361328125,-0.01708984375
1773790596569248800,13.599248779296875,-0.9970855712890625,0.00006103515625,-0.0174713134765625
1773790596589211600,13.619211669921874,-0.9956207275390625,0.00006103515625,-0.0177154541015625
1773790596609173800,13.639173828125,-0.9938201904296875,0.0010223388671875,-0.016845703125
1773790596629137000,13.659136962890624,-0.994964599609375,0.0010986328125,-0.0167083740234375
1773790596649099800,13.679099853515625,-0.9972076416015625,0.0014801025390625,-0.0178985595703125
1773790596669063000,13.69906298828125,-0.9946441650390625,0.00048828125,-0.017730712890625
1773790596689025800,13.71902587890625,-0.9957122802734375,-0.0006866455078125,-0.016937255859375
1773790596708988700,13.73898876953125,-0.99658203125,0.0001220703125,-0.0181121826171875
1773790596728951800,13.758951904296875,-0.9958038330078125,0.000274658203125,-0.018341064453125
1773790596748913400,13.778913330078124,-0.996124267578125,0.0002288818359375,-0.0171356201171875
1773790596768876300,13.798876220703125,-0.995941162109375,0.0006256103515625,-0.0171661376953125
1773790596788839400,13.81883935546875,-0.9957733154296875,0.000640869140625,-0.0179595947265625
1773790596808802300,13.83880224609375,-0.9952239990234375,-0.0013580322265625,-0.017425537109375
1773790596828765200,13.85876513671875,-0.9949951171875,0.000885009765625,-0.017120361328125
1773790596848728000,13.87872802734375,-0.9957122802734375,-0.0001373291015625,-0.0170135498046875
1773790596868690200,13.898690185546876,-0.9957427978515625,0.000701904296875,-0.0172882080078125
1773790596888653300,13.9186533203125,-0.99658203125,0.0006866455078125,-0.0171051025390625
1773790596908616200,13.9386162109375,-0.995758056640625,-0.0004119873046875,-0.01727294921875
1773790596928579300,13.958579345703125,-0.9953460693359375,0.0003509521484375,-0.016998291015625
1773790596948542500,13.97854248046875,-0.99530029296875,0.00018310546875,-0.0182647705078125
1773790596968505300,13.99850537109375,-0.994903564453125,0.0005340576171875,-0.01617431640625
1773790596988468200,14.01846826171875,-0.996551513671875,0.000091552734375,-0.0179901123046875
1773790597008431000,14.03843115234375,-0.9960479736328125,0.000701904296875,-0.018157958984375
1773790597028394200,14.058394287109374,-0.995391845703125,0.001312255859375,-0.017486572265625
1773790597048357400,14.078357421875,-0.9959869384765625,0.0005340576171875,-0.017547607421875
1773790597068320300,14.0983203125,-0.996063232421875,-0.000030517578125,-0.018218994140625
1773790597088283400,14.118283447265625,-0.9953460693359375,0.0005645751953125,-0.017669677734375
1773790597108246300,14.138246337890624,-0.9955291748046875,0.0011444091796875,-0.0176544189453125
1773790597128209400,14.15820947265625,-0.994964599609375,0.0010833740234375,-0.0177154541015625
1773790597148171300,14.178171142578124,-0.9960174560546875,-0.00042724609375,-0.018157958984375
1773790597168134100,14.198134033203125,-0.99578857421875,-0.0001373291015625,-0.01806640625
1773790597188097300,14.21809716796875,-0.9959716796875,0.000030517578125,-0.018463134765625
1773790597208060200,14.23806005859375,-0.9956207275390625,-0.000457763671875,-0.018402099609375
1773790597228023300,14.258023193359374,-0.9957427978515625,0.0003509521484375,-0.0176544189453125
1773790597247986400,14.277986328125,-0.99639892578125,0.0006866455078125,-0.0175933837890625
1773790597267949300,14.29794921875,-0.9964141845703125,0.0006561279296875,-0.0169677734375
1773790597287912400,14.317912353515625,-0.9956817626953125,0.0005340576171875,-0.017425537109375
1773790597307875000,14.337875,-0.9964599609375,-0.000274658203125,-0.016998291015625
1773790597327838200,14.357838134765625,-0.99517822265625,0.0008087158203125,-0.01776123046875
1773790597347801000,14.377801025390625,-0.995697021484375,0.0004730224609375,-0.01763916015625
1773790597367764200,14.39776416015625,-0.9959869384765625,0.0005035400390625,-0.016815185546875
1773790597387726300,14.417726318359374,-0.996551513671875,0.0013275146484375,-0.01824951171875
1773790597407689200,14.437689208984375,-0.995086669921875,-0.000152587890625,-0.0186309814453125
1773790597427652400,14.45765234375,-0.996002197265625,0.0005950927734375,-0.01800537109375
1773790597447615500,14.477615478515625,-0.99554443359375,-0.0006561279296875,-0.017364501953125
1773790597467578000,14.497578125,-0.99560546875,0.0004730224609375,-0.0182342529296875
1773790597487541200,14.517541259765625,-0.9962921142578125,-0.0003814697265625,-0.01812744140625
1773790597507504000,14.537504150390625,-0.9947052001953125,0.00177001953125,-0.017333984375
1773790597527467300,14.55746728515625,-0.9950714111328125,-0.00054931640625,-0.018707275390625
1773790597547430400,14.577430419921875,-0.99560546875,0.0005950927734375,-0.0184173583984375
1773790597567393300,14.597393310546876,-0.995025634765625,0.000946044921875,-0.0180816650390625
1773790597587356400,14.6173564453125,-0.996734619140625,0.000518798828125,-0.0171356201171875
1773790597607319300,14.6373193359375,-0.996124267578125,0.0010986328125,-0.0171966552734375
1773790597627282400,14.657282470703125,-0.9957275390625,0.00018310546875,-0.0180816650390625
1773790597647244300,14.677244384765626,-0.997406005859375,0.0003814697265625,-0.017547607421875
1773790597667207200,14.697207275390625,-0.99609375,0.0001983642578125,-0.0196380615234375
1773790597687170300,14.71717041015625,-0.995269775390625,0.00006103515625,-0.0179901123046875
1773790597707133200,14.73713330078125,-0.995452880859375,0.00048828125,-0.017608642578125
1773790597727096300,14.757096435546876,-0.9963836669921875,0.001068115234375,-0.0186614990234375
1773790597747056000,14.77705615234375,-0.9951171875,-0.0001983642578125,-0.0182342529296875
1773790597767019300,14.797019287109375,-0.9954376220703125,0.000396728515625,-0.018341064453125
1773790597786982400,14.816982421875,-0.9964599609375,0.000091552734375,-0.018707275390625
1773790597806945300,14.8369453125,-0.99542236328125,-0.000091552734375,-0.016998291015625
1773790597826908400,14.856908447265624,-0.9960784912109375,-0.000457763671875,-0.0173492431640625
1773790597846871300,14.876871337890625,-0.9949493408203125,-0.000701904296875,-0.0178680419921875
1773790597866834200,14.896834228515624,-0.9949798583984375,0.000762939453125,-0.0185394287109375
1773790597886796300,14.91679638671875,-0.99609375,0.00030517578125,-0.017852783203125
1773790597906759200,14.93675927734375,-0.9957275390625,0.000274658203125,-0.017059326171875
1773790597926722300,14.956722412109375,-0.9954986572265625,0.0005645751953125,-0.0175018310546875
1773790597946685400,14.976685546875,-0.9955902099609375,0.000396728515625,-0.01727294921875
1773790597966648300,14.9966484375,-0.9956207275390625,0.0001373291015625,-0.018524169921875
1773790597986611500,15.016611572265624,-0.9958343505859375,0.000732421875,-0.018035888671875
1773790598006574000,15.036573974609375,-0.99603271484375,0.000274658203125,-0.0189208984375
1773790598026537200,15.056537109375,-0.9951324462890625,-0.00006103515625,-0.018280029296875
1773790598046500000,15.0765,-0.9954376220703125,0.0006256103515625,-0.0178070068359375
1773790598066463200,15.096463134765624,-0.995574951171875,0.0018310546875,-0.0172882080078125
1773790598086426400,15.11642626953125,-0.9957733154296875,0.0003814697265625,-0.017364501953125
1773790598106389200,15.13638916015625,-0.99664306640625,-0.00006103515625,-0.0182647705078125
1773790598126351400,15.156351318359375,-0.995086669921875,0.000457763671875,-0.01708984375
1773790598146314500,15.176314453125,-0.996002197265625,0.0000152587890625,-0.01837158203125
1773790598166277000,15.196277099609375,-0.9954071044921875,0.0001373291015625,-0.017425537109375
1773790598186240300,15.216240234375,-0.99554443359375,0.0008392333984375,-0.0182037353515625
1773790598206203100,15.236203125,-0.995452880859375,0.0006103515625,-0.0185394287109375
1773790598226166300,15.256166259765624,-0.99493408203125,0.0003814697265625,-0.018096923828125
1773790598246129200,15.276129150390625,-0.99639892578125,-0.0001220703125,-0.01678466796875
1773790598266092300,15.29609228515625,-0.997161865234375,-0.0000152587890625,-0.017852783203125
1773790598286055400,15.316055419921875,-0.9958953857421875,0.0001678466796875,-0.018341064453125
1773790598306018300,15.336018310546875,-0.9945526123046875,0.0002899169921875,-0.016571044921875
1773790598325981400,15.3559814453125,-0.9961700439453125,0.000732421875,-0.0175933837890625
1773790598345944000,15.375944091796875,-0.9956817626953125,0.0001220703125,-0.01751708984375
1773790598365906200,15.39590625,-0.996124267578125,0.0013885498046875,-0.01861572265625
1773790598385869300,15.415869384765625,-0.9954376220703125,0.000213623046875,-0.018524169921875
1773790598405832200,15.435832275390625,-0.99664306640625,0.0000762939453125,-0.0178680419921875
1773790598425795300,15.45579541015625,-0.9956817626953125,0.000518798828125,-0.01788330078125
1773790598445758500,15.475758544921876,-0.995208740234375,-0.000213623046875,-0.018646240234375
1773790598465721300,15.495721435546875,-0.9958953857421875,-0.000213623046875,-0.0177764892578125
1773790598485684200,15.515684326171876,-0.99713134765625,0.0015106201171875,-0.0180206298828125
1773790598505647000,15.535647216796875,-0.9942626953125,0.000701904296875,-0.019134521484375
1773790598525610200,15.5556103515625,-0.9957427978515625,0.00067138671875,-0.0179901123046875
1773790598545573000,15.575572998046875,-0.9961395263671875,0.00079345703125,-0.01788330078125
1773790598565536300,15.595536376953126,-0.9961700439453125,0.000518798828125,-0.0173187255859375
1773790598585499400,15.61549951171875,-0.996673583984375,0.0004425048828125,-0.01751708984375
1773790598605461200,15.635461181640625,-0.9958953857421875,0.00006103515625,-0.019256591796875
1773790598625424400,15.65542431640625,-0.995513916015625,-0.0001220703125,-0.0175323486328125
1773790598645387300,15.67538720703125,-0.995574951171875,0.0005950927734375,-0.0181732177734375
1773790598665350100,15.69535009765625,-0.996063232421875,0.0005645751953125,-0.0176544189453125
1773790598685313300,15.715313232421876,-0.9944610595703125,0.000335693359375,-0.0185699462890625
1773790598705276200,15.735276123046875,-0.996185302734375,0.001220703125,-0.0171661376953125
1773790598725239300,15.7552392578125,-0.99530029296875,0.0001678466796875,-0.0174713134765625
1773790598745202200,15.7752021484375,-0.994781494140625,0.000701904296875,-0.017486572265625
1773790598765165000,15.7951650390625,-0.995697021484375,0.001373291015625,-0.0163726806640625
1773790598785128200,15.815128173828125,-0.995758056640625,0.0008392333984375,-0.0178375244140625
1773790598805091000,15.835091064453126,-0.9958038330078125,0.0005035400390625,-0.0184173583984375
1773790598825054200,15.85505419921875,-0.995849609375,0.0002899169921875,-0.0172576904296875
1773790598845016300,15.875016357421876,-0.9948577880859375,0,-0.017333984375
1773790598864979000,15.89497900390625,-0.9957275390625,-0.000274658203125,-0.017913818359375
1773790598884942000,15.914942138671876,-0.995147705078125,-0.000762939453125,-0.018585205078125
1773790598904905000,15.934905029296875,-0.996612548828125,0.0000152587890625,-0.017486572265625
1773790598924868000,15.9548681640625,-0.99639892578125,0.0009613037109375,-0.018463134765625
1773790598944831200,15.974831298828125,-0.995758056640625,0.0010528564453125,-0.0184173583984375
1773790598964794000,15.994794189453126,-0.99639892578125,-0.000213623046875,-0.017303466796875
1773790598984757200,16.01475732421875,-0.99554443359375,0.0007781982421875,-0.017669677734375
1773790599004720000,16.03472021484375,-0.9964447021484375,0.0001220703125,-0.0160369873046875
1773790599024683300,16.054683349609373,-0.995758056640625,-0.000457763671875,-0.0182037353515625
1773790599044646100,16.074646240234376,-0.99530029296875,-0.00018310546875,-0.0166778564453125
1773790599064608000,16.09460791015625,-0.995391845703125,0.0000152587890625,-0.0175628662109375
1773790599084571100,16.114571044921874,-0.9958343505859375,0.000396728515625,-0.01812744140625
1773790599104534300,16.1345341796875,-0.996337890625,0.001556396484375,-0.0172271728515625
1773790599124497200,16.1544970703125,-0.9962921142578125,0.0009002685546875,-0.0182342529296875
1773790599144460300,16.174460205078127,-0.996917724609375,0.00067138671875,-0.0184478759765625
1773790599164423200,16.194423095703126,-0.9965667724609375,-0.0001983642578125,-0.0177459716796875
1773790599184386300,16.21438623046875,-0.9950714111328125,-0.0000457763671875,-0.01751708984375
1773790599204349000,16.234348876953124,-0.99761962890625,0.00140380859375,-0.0180816650390625
1773790599224312000,16.25431201171875,-0.9946746826171875,0.0015869140625,-0.0180511474609375
1773790599244275200,16.274275146484374,-0.9961395263671875,0.00030517578125,-0.017333984375
1773790599264238000,16.294238037109373,-0.9954376220703125,0.0005950927734375,-0.0168304443359375
1773790599284200200,16.3142001953125,-0.9947509765625,0.0002593994140625,-0.0167999267578125
1773790599304163300,16.334163330078123,-0.9954833984375,0.0007171630859375,-0.0171356201171875
1773790599324126200,16.354126220703126,-0.995635986328125,0.00091552734375,-0.0179290771484375
1773790599344089000,16.374089111328125,-0.9956207275390625,-0.00054931640625,-0.0187530517578125
1773790599364052000,16.394052001953124,-0.99639892578125,0.0002899169921875,-0.0173492431640625
1773790599384015000,16.41401513671875,-0.9970245361328125,0.001220703125,-0.0179290771484375
1773790599403978000,16.43397802734375,-0.995361328125,-0.0001220703125,-0.0177001953125
1773790599423941000,16.453941162109373,-0.995513916015625,0.0004119873046875,-0.017608642578125
1773790599443904300,16.473904296875,-0.9961090087890625,-0.0001068115234375,-0.017059326171875
1773790599463867100,16.4938671875,-0.9962005615234375,0.00079345703125,-0.0180816650390625
1773790599483830300,16.513830322265626,-0.995758056640625,0.0006561279296875,-0.018310546875
1773790599503792000,16.533792236328125,-0.996734619140625,0.000823974609375,-0.0170745849609375
1773790599523755000,16.553755126953124,-0.99591064453125,0.00018310546875,-0.0171661376953125
1773790599543718100,16.57371826171875,-0.996246337890625,0.0006103515625,-0.0174407958984375
1773790599563681000,16.593680908203126,-0.9960174560546875,0.0005950927734375,-0.018096923828125
1773790599583644200,16.61364404296875,-0.9961090087890625,0.0000762939453125,-0.01812744140625
1773790599603607300,16.633607177734376,-0.9961395263671875,0.0007171630859375,-0.01702880859375
1773790599623570200,16.653570068359375,-0.99505615234375,-0.0005645751953125,-0.0181427001953125
1773790599643533300,16.673533203125,-0.99530029296875,0.0003509521484375,-0.017608642578125
1773790599663496200,16.69349609375,-0.9955596923828125,0.0005340576171875,-0.017974853515625
1773790599683459000,16.713458984375,-0.9951324462890625,0.0013427734375,-0.01763916015625
1773790599703421200,16.733421142578123,-0.996612548828125,0.001220703125,-0.0175323486328125
1773790599723384000,16.753384033203126,-0.99658203125,0.00006103515625,-0.0179443359375
1773790599743348200,16.77334814453125,-0.9962005615234375,0.0012969970703125,-0.0174102783203125
1773790599763311900,16.793311767578125,-0.9962615966796875,0.0003509521484375,-0.0184478759765625
1773790599783274000,16.81327392578125,-0.995574951171875,0.001312255859375,-0.0175933837890625
1773790599803236900,16.83323681640625,-0.99566650390625,0.0007476806640625,-0.0171966552734375
1773790599823200000,16.853199951171874,-0.9953460693359375,-0.0001983642578125,-0.01708984375
1773790599843163000,16.873162841796876,-0.9947662353515625,0.001434326171875,-0.0165557861328125
1773790599863125800,16.893125732421876,-0.996124267578125,0.0013427734375,-0.0179290771484375
1773790599883089000,16.9130888671875,-0.995208740234375,0.0001068115234375,-0.0185699462890625
1773790599903051800,16.9330517578125,-0.9951629638671875,0.000152587890625,-0.017333984375
1773790599923015000,16.953014892578125,-0.9951171875,-0.0004730224609375,-0.0176239013671875
1773790599942977800,16.972977783203124,-0.996673583984375,0.0010986328125,-0.017578125
1773790599962941000,16.99294091796875,-0.9961090087890625,0.0007171630859375,-0.01763916015625
1773790599982903000,17.012903076171874,-0.9960174560546875,-0.000152587890625,-0.017242431640625
1773790600002865700,17.03286572265625,-0.9964141845703125,0.00006103515625,-0.0183868408203125
1773790600022828800,17.052828857421876,-0.9965667724609375,0.000579833984375,-0.0169677734375
1773790600042792000,17.0727919921875,-0.9955596923828125,0.0003509521484375,-0.0178375244140625
1773790600062754800,17.0927548828125,-0.9950408935546875,-0.000091552734375,-0.0171661376953125
1773790600082718000,17.112718017578125,-0.9957275390625,0.000030517578125,-0.0179595947265625
1773790600102680800,17.132680908203124,-0.9961700439453125,0.000030517578125,-0.0178070068359375
1773790600122643000,17.152642822265626,-0.9957733154296875,0.0008392333984375,-0.0176849365234375
1773790600142605800,17.172605712890626,-0.994659423828125,-0.00018310546875,-0.0170440673828125
1773790600162568700,17.192568603515625,-0.996124267578125,0.0004730224609375,-0.0178985595703125
1773790600182531800,17.21253173828125,-0.9966583251953125,0.0012054443359375,-0.0169830322265625
1773790600202494000,17.232493896484375,-0.9955291748046875,-0.00067138671875,-0.0165252685546875
1773790600222456800,17.252456787109374,-0.9954071044921875,0.0013275146484375,-0.0169525146484375
1773790600242420000,17.272419921875,-0.9949798583984375,0.0002288818359375,-0.0185546875
1773790600262383000,17.292383056640624,-0.9953460693359375,0.0001983642578125,-0.0171966552734375
1773790600282346000,17.312345947265626,-0.995452880859375,0.000518798828125,-0.0169830322265625
1773790600302308900,17.332308837890626,-0.995849609375,0.0001220703125,-0.0179901123046875
1773790600322271700,17.352271728515625,-0.9947052001953125,0.0005340576171875,-0.018524169921875
1773790600342235000,17.37223486328125,-0.995452880859375,0.00164794921875,-0.0178680419921875
1773790600362197800,17.39219775390625,-0.9954071044921875,0.000213623046875,-0.0183868408203125
1773790600382161000,17.412160888671874,-0.99530029296875,0.001251220703125,-0.01837158203125
1773790600402124000,17.4321240234375,-0.9962158203125,0.001495361328125,-0.0170745849609375
1773790600422086000,17.4520859375,-0.99456787109375,-0.000335693359375,-0.0178070068359375
1773790600442048800,17.472048828125,-0.994354248046875,-0.000244140625,-0.017181396484375
1773790600462012000,17.492011962890626,-0.9958648681640625,0.0001373291015625,-0.01806640625
1773790600481974800,17.511974853515625,-0.9959716796875,0.0008544921875,-0.0174560546875
1773790600501938000,17.53193798828125,-0.9969635009765625,-0.000152587890625,-0.017242431640625
1773790600521900800,17.55190087890625,-0.9963226318359375,-0.0001068115234375,-0.018524169921875
1773790600541864000,17.571864013671874,-0.9954071044921875,-0.00018310546875,-0.0172882080078125
1773790600561827000,17.5918271484375,-0.995880126953125,0.000335693359375,-0.01861572265625
1773790600581790000,17.6117900390625,-0.9965972900390625,-0.0005035400390625,-0.0169219970703125
1773790600601751800,17.631751708984375,-0.9977569580078125,0.00128173828125,-0.0175018310546875
1773790600621715000,17.65171484375,-0.9959564208984375,0.0002288818359375,-0.0177001953125
1773790600641677800,17.671677734375,-0.995025634765625,-0.0001373291015625,-0.017822265625
1773790600661641000,17.691640869140624,-0.9971771240234375,0.0008697509765625,-0.0179901123046875
1773790600681603800,17.711603759765627,-0.99609375,0.000274658203125,-0.017578125
1773790600701567000,17.73156689453125,-0.9952239990234375,0.000885009765625,-0.0175628662109375
1773790600721529900,17.75152978515625,-0.9963836669921875,0.00115966796875,-0.018157958984375
1773790600741493000,17.771492919921876,-0.9953155517578125,-0.0005340576171875,-0.01837158203125
1773790600761455400,17.791455322265627,-0.9962921142578125,0.00115966796875,-0.0177459716796875
1773790600781418200,17.811418212890626,-0.9960784912109375,0.0001068115234375,-0.0186614990234375
1773790600801380000,17.831380126953125,-0.997222900390625,-0.00030517578125,-0.0181121826171875
1773790600821343200,17.85134326171875,-0.9952392578125,0.0005035400390625,-0.01715087890625
1773790600841306000,17.87130615234375,-0.995635986328125,-0.000091552734375,-0.01763916015625
1773790600861269200,17.891269287109374,-0.99603271484375,0.00146484375,-0.0183563232421875
1773790600881232400,17.911232421875,-0.9956512451171875,-0.000030517578125,-0.018890380859375
1773790600901195300,17.9311953125,-0.9949798583984375,0.0012664794921875,-0.0175323486328125
1773790600921158400,17.951158447265627,-0.995208740234375,0.0001220703125,-0.017791748046875
1773790600941121300,17.971121337890626,-0.9966278076171875,-0.0003204345703125,-0.0172576904296875
1773790600961084400,17.99108447265625,-0.9952850341796875,0.0005035400390625,-0.018096923828125
1773790600981047000,18.011047119140624,-0.9939422607421875,0.000579833984375,-0.0169830322265625
1773790601001009200,18.031009033203127,-0.9962921142578125,-0.0001068115234375,-0.017547607421875
1773790601020972300,18.05097216796875,-0.9970550537109375,0.0003814697265625,-0.01800537109375
1773790601040935200,18.07093505859375,-0.9953765869140625,0.001068115234375,-0.018218994140625
1773790601060898300,18.090898193359376,-0.995391845703125,-0.0006256103515625,-0.01800537109375
1773790601080861400,18.110861328125,-0.9958343505859375,-0.0000457763671875,-0.01715087890625
1773790601100824300,18.13082421875,-0.9956512451171875,0.0006103515625,-0.01763916015625
1773790601120787500,18.150787353515625,-0.9969940185546875,0.0010833740234375,-0.0178070068359375
1773790601140750000,18.17075,-0.9958648681640625,0.0007476806640625,-0.0175323486328125
1773790601160713200,18.190713134765623,-0.9956207275390625,-0.0005035400390625,-0.0173187255859375
1773790601180676000,18.210676025390626,-0.9969329833984375,0.0001373291015625,-0.017608642578125
1773790601200638200,18.23063818359375,-0.9967803955078125,0.000030517578125,-0.01776123046875
1773790601220601300,18.250601318359376,-0.9954986572265625,0.00006103515625,-0.017791748046875
1773790601240564200,18.270564208984375,-0.9954681396484375,0.0004119873046875,-0.0184783935546875
1773790601260527400,18.29052734375,-0.996826171875,0.0001983642578125,-0.0175933837890625
1773790601280490200,18.310490234375,-0.9957427978515625,0.0001678466796875,-0.016998291015625
1773790601300453000,18.330453125,-0.995819091796875,0.0003814697265625,-0.0184173583984375
1773790601320416300,18.350416259765623,-0.9961395263671875,0,-0.0186920166015625
1773790601340379100,18.370379150390626,-0.9962158203125,0.0013580322265625,-0.01824951171875
1773790601360342300,18.39034228515625,-0.9952850341796875,0.0001678466796875,-0.01727294921875
1773790601380304400,18.410304443359376,-0.996002197265625,0.000335693359375,-0.0182342529296875
1773790601400267300,18.430267333984375,-0.9964599609375,-0.0005645751953125,-0.017730712890625
1773790601420230100,18.450230224609374,-0.995758056640625,0.0006103515625,-0.0180816650390625
1773790601440193300,18.470193359375,-0.9967193603515625,0.000091552734375,-0.017669677734375
1773790601460156200,18.49015625,-0.9946136474609375,0.0000152587890625,-0.0181884765625
1773790601480119300,18.510119384765623,-0.99462890625,0.0013427734375,-0.017730712890625
1773790601500082200,18.530082275390626,-0.996307373046875,0.0006256103515625,-0.017913818359375
1773790601520045300,18.55004541015625,-0.9968109130859375,0.0008697509765625,-0.0176849365234375
1773790601540008200,18.57000830078125,-0.995819091796875,0.00128173828125,-0.0178375244140625
1773790601559971300,18.589971435546875,-0.9968719482421875,-0.000274658203125,-0.0177764892578125
1773790601579933200,18.60993310546875,-0.99560546875,0.000701904296875,-0.0167083740234375
1773790601599896300,18.629896240234373,-0.9951324462890625,0.0011749267578125,-0.0189361572265625
1773790601619859200,18.649859130859376,-0.9952545166015625,0.0006561279296875,-0.01824951171875
1773790601639822300,18.669822265625,-0.9955596923828125,0.0001068115234375,-0.017547607421875
1773790601659785200,18.68978515625,-0.9951934814453125,0.00030517578125,-0.0184173583984375
1773790601679748400,18.709748291015625,-0.9949951171875,-0.0004730224609375,-0.0189361572265625
1773790601699711200,18.729711181640624,-0.996002197265625,0.0008544921875,-0.018157958984375
1773790601719674400,18.74967431640625,-0.99591064453125,0.00067138671875,-0.016754150390625
1773790601739637200,18.76963720703125,-0.9951934814453125,0.0006103515625,-0.0188446044921875
1773790601759599400,18.789599365234373,-0.9969482421875,-0.00030517578125,-0.017608642578125
1773790601779562500,18.8095625,-0.9952392578125,-0.000030517578125,-0.0183563232421875
1773790601799525400,18.829525390625,-0.996185302734375,0.0013275146484375,-0.0175628662109375
1773790601819488500,18.849488525390626,-0.99566650390625,0.0001983642578125,-0.01898193359375
1773790601839451600,18.86945166015625,-0.9953765869140625,0.000518798828125,-0.0178070068359375
1773790601859414500,18.88941455078125,-0.9962005615234375,0.0004425048828125,-0.017578125
1773790601879377700,18.909377685546875,-0.996063232421875,-0.0008087158203125,-0.0177154541015625
1773790601899340500,18.929340576171874,-0.9947662353515625,0.0014801025390625,-0.01812744140625
1773790601919303400,18.949303466796874,-0.995941162109375,-0.0000152587890625,-0.0173492431640625
1773790601939265500,18.969265625,-0.99566650390625,0.000152587890625,-0.018218994140625
1773790601959228400,18.989228515625,-0.9966888427734375,-0.00103759765625,-0.017669677734375
1773790601979191600,19.009191650390626,-0.99591064453125,0.0006103515625,-0.017181396484375
1773790601999154700,19.02915478515625,-0.99609375,0.0014190673828125,-0.01751708984375
1773790602019117600,19.04911767578125,-0.9954376220703125,-0.000946044921875,-0.01727294921875
1773790602039080700,19.069080810546875,-0.9945831298828125,-0.000152587890625,-0.0185394287109375
1773790602059043300,19.089043212890626,-0.99560546875,0.0008392333984375,-0.0180206298828125
1773790602079006500,19.10900634765625,-0.996978759765625,-0.0009307861328125,-0.01788330078125
1773790602098969300,19.12896923828125,-0.995819091796875,0.0003662109375,-0.018280029296875
1773790602118932500,19.148932373046875,-0.9962005615234375,0.000946044921875,-0.0185089111328125
1773790602138894600,19.16889453125,-0.9951629638671875,0.0000762939453125,-0.0175628662109375
1773790602158857500,19.188857421875,-0.9955596923828125,0.0002899169921875,-0.017730712890625
1773790602178820600,19.208820556640624,-0.9951629638671875,-0.0001220703125,-0.0167694091796875
1773790602198783700,19.22878369140625,-0.995758056640625,0.000396728515625,-0.0178985595703125
1773790602218746400,19.248746337890626,-0.9959869384765625,0.000274658203125,-0.0180511474609375
1773790602238709500,19.26870947265625,-0.9962005615234375,-0.0000457763671875,-0.01690673828125
1773790602258672400,19.28867236328125,-0.9963226318359375,0.0007781982421875,-0.01763916015625
1773790602278635500,19.308635498046876,-0.9956207275390625,-0.000244140625,-0.0183563232421875
1773790602298598400,19.328598388671875,-0.9957427978515625,0.0005340576171875,-0.01739501953125
1773790602318560500,19.348560546875,-0.9952850341796875,0.0009613037109375,-0.0169677734375
1773790602338523600,19.368523681640625,-0.9966278076171875,-0.000152587890625,-0.018707275390625
1773790602358486500,19.388486572265624,-0.99603271484375,-0.0001983642578125,-0.0175933837890625
1773790602378449400,19.408449462890626,-0.9967193603515625,-0.0000762939453125,-0.0174407958984375
1773790602398412500,19.42841259765625,-0.9969024658203125,0.0002288818359375,-0.0174407958984375
1773790602418375400,19.44837548828125,-0.995361328125,0.000396728515625,-0.0171051025390625
1773790602438338600,19.468338623046876,-0.99737548828125,0.0007781982421875,-0.0170135498046875
1773790602458301400,19.488301513671875,-0.9945831298828125,0.00006103515625,-0.018341064453125
1773790602478264600,19.5082646484375,-0.996063232421875,0.0013427734375,-0.016845703125
1773790602498226400,19.528226318359376,-0.9970245361328125,0.000732421875,-0.0175933837890625
1773790602518189300,19.548189208984375,-0.997222900390625,0.0010986328125,-0.017547607421875
1773790602538152400,19.56815234375,-0.9956817626953125,0.0003662109375,-0.0169830322265625
1773790602558115600,19.588115478515626,-0.9951629638671875,0.0003509521484375,-0.0176239013671875
1773790602578078500,19.608078369140625,-0.9953765869140625,0.0005950927734375,-0.0180816650390625
1773790602598041600,19.62804150390625,-0.9957733154296875,-0.0005950927734375,-0.019378662109375
1773790602618004500,19.64800439453125,-0.995513916015625,0.0014495849609375,-0.017791748046875
1773790602637967600,19.667967529296874,-0.99517822265625,0.00054931640625,-0.018096923828125
1773790602657930500,19.687930419921877,-0.9955902099609375,0.0002593994140625,-0.0187835693359375
1773790602677892400,19.707892333984375,-0.99615478515625,-0.0006256103515625,-0.0179443359375
1773790602697855500,19.72785546875,-0.9950103759765625,0.0004730224609375,-0.017913818359375
1773790602717818600,19.747818603515626,-0.9969482421875,0.000640869140625,-0.016998291015625
1773790602737781500,19.767781494140625,-0.9964141845703125,0.0005035400390625,-0.0166015625
1773790602757744600,19.78774462890625,-0.99493408203125,-0.00042724609375,-0.0170745849609375
1773790602777707500,19.80770751953125,-0.9956512451171875,0.0012054443359375,-0.018096923828125
1773790602797670700,19.827670654296874,-0.9954376220703125,-0.0005035400390625,-0.0176849365234375
1773790602817633500,19.847633544921877,-0.9952850341796875,0.001495361328125,-0.0175933837890625
1773790602837596400,19.867596435546876,-0.9954833984375,0.0000152587890625,-0.0182952880859375
1773790602857559600,19.8875595703125,-0.9953765869140625,-0.0013275146484375,-0.0173187255859375
1773790602877521400,19.907521484375,-0.9955596923828125,0.0005340576171875,-0.018280029296875
1773790602897484500,19.927484619140625,-0.9945831298828125,0.0006103515625,-0.0197296142578125
1773790602917447700,19.94744775390625,-0.9956817626953125,-0.0001068115234375,-0.0178680419921875
1773790602937410600,19.96741064453125,-0.994384765625,0.00079345703125,-0.019287109375
1773790602957373700,19.987373779296874,-0.9946441650390625,0.000457763671875,-0.01708984375
1773790602977336300,20.00733642578125,-0.996124267578125,-0.0000152587890625,-0.0183868408203125
1773790602997299500,20.027299560546876,-0.9956207275390625,0.00048828125,-0.017059326171875
1773790603017262300,20.047262451171875,-0.995452880859375,-0.0005340576171875,-0.0191650390625
1773790603037224400,20.067224365234374,-0.996429443359375,-0.000030517578125,-0.01788330078125
1773790603057187600,20.0871875,-0.996063232421875,-0.0002899169921875,-0.0169830322265625
1773790603077150500,20.107150390625,-0.9963531494140625,0.0002288818359375,-0.0179290771484375
1773790603097113600,20.127113525390627,-0.995880126953125,0.0006103515625,-0.017578125
1773790603117076700,20.14707666015625,-0.9959259033203125,0.0004119873046875,-0.0169525146484375
1773790603137039400,20.167039306640625,-0.9958343505859375,0.0008697509765625,-0.0178680419921875
1773790603157002500,20.18700244140625,-0.996551513671875,0.000335693359375,-0.017547607421875
1773790603176965400,20.20696533203125,-0.9950103759765625,-0.00042724609375,-0.0174713134765625
1773790603196928500,20.226928466796874,-0.995635986328125,0.0005035400390625,-0.0176239013671875
1773790603216890600,20.246890625,-0.996185302734375,0.0006103515625,-0.0167694091796875
1773790603236853500,20.266853515625,-0.994293212890625,0.0006561279296875,-0.0176239013671875
1773790603256816600,20.286816650390627,-0.99615478515625,0.0010223388671875,-0.017425537109375
1773790603276779500,20.306779541015626,-0.997344970703125,0.0009002685546875,-0.0174713134765625
1773790603296742400,20.326742431640625,-0.9950103759765625,0.000091552734375,-0.0173797607421875
1773790603316705500,20.34670556640625,-0.9954681396484375,0.000335693359375,-0.0177154541015625
1773790603336668400,20.36666845703125,-0.9976806640625,0.000030517578125,-0.0161590576171875
1773790603356631600,20.386631591796874,-0.9952392578125,0.000244140625,-0.017822265625
1773790603376594400,20.406594482421873,-0.996368408203125,0.0012359619140625,-0.0172882080078125
1773790603396556500,20.426556640625,-0.9969329833984375,-0.000030517578125,-0.017303466796875
1773790603416519400,20.44651953125,-0.9958648681640625,-0.0002899169921875,-0.018157958984375
1773790603436482300,20.466482421875,-0.9962158203125,-0.0008392333984375,-0.0173492431640625
1773790603456445400,20.486445556640625,-0.995147705078125,0.000640869140625,-0.01751708984375
1773790603476408600,20.50640869140625,-0.99609375,0.00018310546875,-0.0176544189453125
1773790603496371500,20.526371337890627,-0.99530029296875,0.000885009765625,-0.017181396484375
1773790603516334600,20.54633447265625,-0.996429443359375,0.0006866455078125,-0.017913818359375
1773790603536297500,20.56629736328125,-0.99578857421875,0.000823974609375,-0.0170135498046875
1773790603556260600,20.586260498046876,-0.9950714111328125,0.00115966796875,-0.0191802978515625
1773790603576222500,20.606222412109375,-0.9961090087890625,0.0012969970703125,-0.017547607421875
1773790603596185300,20.626185302734374,-0.9967498779296875,0.0002899169921875,-0.017913818359375
1773790603616148500,20.6461484375,-0.995758056640625,0.000762939453125,-0.018463134765625
1773790603636111600,20.666111572265624,-0.995819091796875,0.00067138671875,-0.0184173583984375
1773790603656074500,20.686074462890623,-0.9966583251953125,0.000152587890625,-0.016571044921875
1773790603676037600,20.70603759765625,-0.994842529296875,0.00042724609375,-0.0179595947265625
1773790603696000500,20.72600048828125,-0.9960174560546875,0.000152587890625,-0.0184326171875
1773790603715963600,20.745963623046876,-0.996307373046875,0.0005340576171875,-0.0184173583984375
1773790603735926500,20.765926513671875,-0.9947052001953125,0.00042724609375,-0.017364501953125
1773790603755889000,20.785888916015626,-0.994842529296875,-0.0001373291015625,-0.0172119140625
1773790603775852000,20.80585205078125,-0.997100830078125,0.0011138916015625,-0.017181396484375
1773790603795815000,20.82581494140625,-0.995361328125,-0.0007171630859375,-0.01776123046875
1773790603815777800,20.84577783203125,-0.9958953857421875,0.00018310546875,-0.0186767578125
1773790603835741000,20.865740966796874,-0.99627685546875,0.000457763671875,-0.017608642578125
1773790603855703800,20.885703857421873,-0.9958038330078125,0.000518798828125,-0.0167388916015625
1773790603875667000,20.9056669921875,-0.9955291748046875,0.000457763671875,-0.018707275390625
1773790603895629800,20.9256298828125,-0.9959869384765625,0.000823974609375,-0.0172576904296875
1773790603915592000,20.945592041015626,-0.996429443359375,-0.0009765625,-0.0173187255859375
1773790603935555000,20.96555517578125,-0.9957122802734375,0.000518798828125,-0.0186309814453125
1773790603955518000,20.98551806640625,-0.9964447021484375,-0.000457763671875,-0.0181732177734375
1773790603975480800,21.005480712890623,-0.99530029296875,-0.0003814697265625,-0.016998291015625
1773790603995443700,21.025443603515626,-0.9962615966796875,0.0007171630859375,-0.018035888671875
1773790604015406800,21.04540673828125,-0.99517822265625,-0.000946044921875,-0.0169219970703125
1773790604035370000,21.065369873046876,-0.9967041015625,0.000732421875,-0.0176544189453125
1773790604055332900,21.085332763671875,-0.996917724609375,-0.0015716552734375,-0.0178070068359375
1773790604075295000,21.105294921875,-0.9958038330078125,0.0009307861328125,-0.01885986328125
1773790604095258000,21.125258056640625,-0.994232177734375,-0.00091552734375,-0.01708984375
1773790604115220700,21.145220703125,-0.9962310791015625,0.0004119873046875,-0.017608642578125
1773790604135184000,21.165183837890623,-0.9949951171875,-0.0001220703125,-0.0178375244140625
1773790604155146800,21.185146728515626,-0.9958038330078125,-0.0001983642578125,-0.0181884765625
1773790604175110000,21.20510986328125,-0.9956817626953125,0.0009918212890625,-0.018035888671875
1773790604195072800,21.22507275390625,-0.9953765869140625,0.00030517578125,-0.01800537109375
1773790604215036000,21.245035888671875,-0.996429443359375,-0.000152587890625,-0.018280029296875
1773790604234998000,21.264998046875,-0.9964141845703125,0.0006561279296875,-0.0178070068359375
1773790604254961000,21.2849609375,-0.9955902099609375,0.0009307861328125,-0.0184326171875
1773790604274923800,21.304923828125,-0.994964599609375,-0.000457763671875,-0.0183868408203125
1773790604294887000,21.324886962890623,-0.995025634765625,-0.000213623046875,-0.01739501953125
1773790604314849800,21.344849853515626,-0.9969940185546875,-0.0003814697265625,-0.0181427001953125
1773790604334813000,21.36481298828125,-0.9948883056640625,0.0008697509765625,-0.01727294921875
1773790604354775800,21.38477587890625,-0.9963531494140625,0.0009002685546875,-0.018707275390625
1773790604374739000,21.404739013671875,-0.99603271484375,-0.0005645751953125,-0.017486572265625
1773790604394701000,21.424701171875,-0.9962921142578125,0.0001220703125,-0.018402099609375
1773790604414663700,21.44466357421875,-0.99530029296875,0.000946044921875,-0.0176544189453125
1773790604434626800,21.464626708984376,-0.996124267578125,0.000244140625,-0.0182952880859375
1773790604454590000,21.48458984375,-0.9949798583984375,0.000701904296875,-0.0179901123046875
1773790604474551800,21.5045517578125,-0.995635986328125,-0.0009765625,-0.017578125
1773790604494515000,21.524514892578125,-0.9966278076171875,0.0007781982421875,-0.017913818359375
1773790604514478000,21.54447802734375,-0.9961395263671875,0.0001220703125,-0.0174407958984375
1773790604534441000,21.56444091796875,-0.9951934814453125,-0.0004730224609375,-0.01690673828125
1773790604554403800,21.58440380859375,-0.9947357177734375,-0.000335693359375,-0.01885986328125
1773790604574366700,21.60436669921875,-0.996002197265625,0.0012359619140625,-0.0164642333984375
1773790604594329900,21.624329833984376,-0.9970245361328125,0.0008697509765625,-0.0177459716796875
1773790604614292700,21.644292724609375,-0.9955902099609375,0.00067138671875,-0.017913818359375
1773790604634254800,21.6642548828125,-0.9951324462890625,-0.00030517578125,-0.01824951171875
1773790604654218000,21.684218017578125,-0.996490478515625,0.0007476806640625,-0.0173187255859375
1773790604674180900,21.704180908203124,-0.9962005615234375,0,-0.0177001953125
1773790604694144000,21.72414404296875,-0.996246337890625,0.00048828125,-0.017547607421875
1773790604714107000,21.74410693359375,-0.9959259033203125,-0.0001220703125,-0.01837158203125
1773790604734069800,21.76406982421875,-0.995574951171875,0.0008544921875,-0.018646240234375
1773790604754033400,21.784033447265625,-0.9969482421875,-0.000946044921875,-0.0181427001953125
1773790604773995500,21.80399560546875,-0.99554443359375,0.0004425048828125,-0.0175933837890625
1773790604793958400,21.82395849609375,-0.9969329833984375,0.0000762939453125,-0.017547607421875
1773790604813921300,21.84392138671875,-0.9955596923828125,0.0006561279296875,-0.0170135498046875
1773790604833884200,21.86388427734375,-0.9960174560546875,0.0009613037109375,-0.016754150390625
1773790604853847300,21.883847412109375,-0.995941162109375,-0.000518798828125,-0.01788330078125
1773790604873810200,21.90381005859375,-0.99578857421875,-0.0002593994140625,-0.0174102783203125
1773790604893773300,21.923773193359374,-0.9947967529296875,0.0008697509765625,-0.017242431640625
1773790604913736400,21.943736328125,-0.995819091796875,0.0003204345703125,-0.0174560546875
1773790604933699300,21.96369921875,-0.9954986572265625,0.0002593994140625,-0.0175323486328125
1773790604953661200,21.9836611328125,-0.9958038330078125,0.0001220703125,-0.0176239013671875
1773790604973624300,22.003624267578125,-0.9973907470703125,-0.000518798828125,-0.0183563232421875
1773790604993587200,22.023587158203124,-0.9936065673828125,-0.0007171630859375,-0.01849365234375
1773790605013550300,22.04355029296875,-0.9966888427734375,0.00006103515625,-0.0165863037109375
1773790605033513200,22.06351318359375,-0.9964141845703125,0.0002593994140625,-0.0163726806640625
1773790605053476400,22.083476318359374,-0.9958038330078125,-0.0003204345703125,-0.0171356201171875
1773790605073439200,22.103439208984376,-0.996124267578125,-0.0001983642578125,-0.0179443359375
1773790605093401000,22.123401123046875,-0.99591064453125,-0.000518798828125,-0.01727294921875
1773790605113364200,22.1433642578125,-0.9957275390625,0.000762939453125,-0.017242431640625
1773790605133327400,22.163327392578125,-0.9959259033203125,0.0007171630859375,-0.0174407958984375
1773790605153290200,22.183290283203124,-0.99578857421875,0.0008697509765625,-0.0178985595703125
1773790605173253400,22.20325341796875,-0.9958038330078125,0.0005950927734375,-0.0180816650390625
1773790605193216300,22.22321630859375,-0.9957733154296875,-0.0007476806640625,-0.017669677734375
1773790605213179400,22.243179443359374,-0.99566650390625,0.0009002685546875,-0.0174560546875
1773790605233142300,22.263142333984376,-0.9956817626953125,0.0006256103515625,-0.01812744140625
1773790605253104000,22.283104248046875,-0.99566650390625,0.0001983642578125,-0.0173797607421875
1773790605273067300,22.3030673828125,-0.9956817626953125,0.0018768310546875,-0.01776123046875
1773790605293030100,22.323030029296874,-0.995391845703125,-0.0002593994140625,-0.0196533203125
1773790605312993300,22.3429931640625,-0.99554443359375,-0.00006103515625,-0.0178985595703125
1773790605332956400,22.362956298828124,-0.9959869384765625,0.00042724609375,-0.0188446044921875
1773790605352919300,22.382919189453126,-0.9955596923828125,0.0008544921875,-0.0188446044921875
1773790605372882400,22.40288232421875,-0.9962310791015625,0.0005645751953125,-0.0174407958984375
1773790605392845300,22.42284521484375,-0.99627685546875,-0.0002899169921875,-0.0176239013671875
1773790605412807200,22.44280712890625,-0.995086669921875,0.00067138671875,-0.01812744140625
1773790605432770300,22.462770263671874,-0.9945526123046875,0.0014190673828125,-0.0176849365234375
1773790605452733200,22.482733154296874,-0.996063232421875,0.0009002685546875,-0.0173797607421875
1773790605472696300,22.5026962890625,-0.9957427978515625,-0.0001220703125,-0.0182647705078125
1773790605492659500,22.522659423828124,-0.996002197265625,0.001007080078125,-0.01751708984375
1773790605512622300,22.542622314453126,-0.9952850341796875,0.0002593994140625,-0.0186767578125
1773790605532585500,22.56258544921875,-0.9956207275390625,0.00030517578125,-0.0182952880859375
1773790605552548400,22.58254833984375,-0.995147705078125,0.001129150390625,-0.017669677734375
1773790605572510200,22.60251025390625,-0.9961395263671875,0.0004119873046875,-0.0182037353515625
1773790605592473300,22.622473388671875,-0.99627685546875,-0.0005645751953125,-0.0171661376953125
1773790605612436200,22.642436279296874,-0.9960174560546875,-0.0001068115234375,-0.0175628662109375
1773790605632399400,22.6623994140625,-0.9959869384765625,-0.0000152587890625,-0.0176239013671875
1773790605652362200,22.6823623046875,-0.99517822265625,0.0002593994140625,-0.0167999267578125
1773790605672325400,22.702325439453126,-0.995147705078125,0.00079345703125,-0.0197601318359375
1773790605692288500,22.72228857421875,-0.996124267578125,0.0004730224609375,-0.0174560546875
1773790605712250000,22.74225,-0.9968414306640625,0.0006103515625,-0.017547607421875
1773790605732213200,22.762213134765624,-0.9959259033203125,-0.000152587890625,-0.0192108154296875
1773790605752179700,22.7821796875,-0.9952545166015625,-0.000244140625,-0.018890380859375
1773790605772142600,22.802142578125,-0.995635986328125,-0.00103759765625,-0.017913818359375
1773790605792105700,22.822105712890625,-0.9964447021484375,0.00115966796875,-0.0185699462890625
1773790605812068600,22.842068603515624,-0.9968719482421875,0.0002288818359375,-0.0168304443359375
1773790605832031700,22.86203173828125,-0.995635986328125,0.0003204345703125,-0.017578125
1773790605851995000,22.881994873046875,-0.996185302734375,-0.0000152587890625,-0.018341064453125
1773790605871956500,22.90195654296875,-0.994873046875,0.000335693359375,-0.0179595947265625
1773790605891919600,22.921919677734376,-0.994537353515625,0.000518798828125,-0.017425537109375
1773790605911882800,22.9418828125,-0.9953460693359375,0.00079345703125,-0.016632080078125
1773790605931845600,22.961845703125,-0.9974365234375,0.0011138916015625,-0.0177154541015625
1773790605951808800,22.981808837890625,-0.9969940185546875,0.000335693359375,-0.0184783935546875
1773790605971771600,23.001771728515624,-0.9959564208984375,0.00054931640625,-0.01763916015625
1773790605991734800,23.02173486328125,-0.99456787109375,0.0003509521484375,-0.0179595947265625
1773790606011697400,23.041697509765626,-0.9962158203125,0.0001983642578125,-0.0174560546875
1773790606031659500,23.061659423828125,-0.9962921142578125,-0.0006866455078125,-0.0177001953125
1773790606051622700,23.08162255859375,-0.995849609375,0.0009765625,-0.0173492431640625
1773790606071585500,23.10158544921875,-0.996063232421875,0.0004730224609375,-0.019195556640625
1773790606091548700,23.121548583984374,-0.9961700439453125,0.0005645751953125,-0.0176849365234375
1773790606111511800,23.14151171875,-0.994049072265625,0.000213623046875,-0.017852783203125
1773790606131474700,23.161474609375,-0.9962921142578125,0.00079345703125,-0.0186614990234375
1773790606151437800,23.181437744140624,-0.9953155517578125,0.0008392333984375,-0.017669677734375
1773790606171399700,23.201399658203126,-0.9954986572265625,0.0003204345703125,-0.018585205078125
1773790606191362600,23.221362548828125,-0.9955596923828125,0.00048828125,-0.01715087890625
1773790606211325700,23.24132568359375,-0.9957275390625,-0.000091552734375,-0.0181427001953125
1773790606231288600,23.26128857421875,-0.9963531494140625,0.0012359619140625,-0.016815185546875
1773790606251251700,23.281251708984374,-0.9978485107421875,0.0012969970703125,-0.0174407958984375
1773790606271214800,23.30121484375,-0.99603271484375,-0.0006103515625,-0.0182647705078125
1773790606291177700,23.321177734375,-0.9951171875,0.0001068115234375,-0.018524169921875
1773790606311140600,23.341140625,-0.9944610595703125,0.0003662109375,-0.0185089111328125
1773790606331102700,23.361102783203126,-0.9942169189453125,0.0001220703125,-0.017852783203125
1773790606351065600,23.381065673828125,-0.9954071044921875,0,-0.0182037353515625
1773790606371028700,23.40102880859375,-0.9961395263671875,0.0005950927734375,-0.0175018310546875
1773790606390991600,23.42099169921875,-0.997314453125,0.000152587890625,-0.0185089111328125
1773790606410954800,23.440954833984375,-0.9958343505859375,0.0012359619140625,-0.0172119140625
1773790606430917600,23.460917724609374,-0.9961700439453125,-0.000732421875,-0.0175628662109375
1773790606450880500,23.480880615234376,-0.996307373046875,-0.000213623046875,-0.0184326171875
1773790606470842600,23.500842529296875,-0.9959716796875,-0.0005645751953125,-0.0181427001953125
1773790606490805500,23.520805419921874,-0.996856689453125,0.00030517578125,-0.01641845703125
1773790606510768600,23.5407685546875,-0.9965362548828125,0.000152587890625,-0.0178985595703125
1773790606530731800,23.560731689453124,-0.9958038330078125,-0.0008392333984375,-0.0168914794921875
1773790606550694700,23.580694580078124,-0.996246337890625,0.0008697509765625,-0.0186004638671875
1773790606570657800,23.60065771484375,-0.996246337890625,-0.0005340576171875,-0.0176849365234375
1773790606590620700,23.62062060546875,-0.996307373046875,0.0003662109375,-0.01885986328125
1773790606610583600,23.64058349609375,-0.9955596923828125,0.000152587890625,-0.0183868408203125
1773790606630545700,23.660545654296875,-0.996429443359375,0.0002899169921875,-0.0180206298828125
1773790606650508500,23.680508544921874,-0.9952545166015625,-0.00006103515625,-0.016448974609375
1773790606670471700,23.7004716796875,-0.996917724609375,-0.0003204345703125,-0.017730712890625
1773790606690434800,23.720434814453125,-0.99560546875,0.0008697509765625,-0.017120361328125
1773790606710397700,23.740397705078124,-0.99530029296875,-0.000701904296875,-0.0176239013671875
1773790606730360800,23.76036083984375,-0.995147705078125,0.0007781982421875,-0.017822265625
1773790606750323500,23.780323486328125,-0.9952392578125,0.0011444091796875,-0.018585205078125
1773790606770282500,23.800282470703124,-0.9955902099609375,0.0002899169921875,-0.017608642578125
1773790606790245600,23.82024560546875,-0.99578857421875,0.000244140625,-0.017364501953125
1773790606810208300,23.840208251953126,-0.9964599609375,0.001190185546875,-0.0185546875
1773790606830171400,23.86017138671875,-0.9963531494140625,-0.0000762939453125,-0.01812744140625
1773790606850134300,23.88013427734375,-0.99493408203125,-0.000823974609375,-0.018798828125
1773790606870097400,23.900097412109375,-0.9972076416015625,0,-0.0176544189453125
1773790606890060500,23.920060546875,-0.9954071044921875,0.0002288818359375,-0.0185394287109375
1773790606910022400,23.9400224609375,-0.9972686767578125,-0.000091552734375,-0.01788330078125
1773790606929985500,23.959985595703124,-0.995086669921875,0.0005035400390625,-0.0177154541015625
1773790606949948700,23.97994873046875,-0.995819091796875,0.000213623046875,-0.0177001953125
1773790606969911300,23.999911376953126,-0.9953155517578125,0.0009765625,-0.018402099609375
1773790606989874400,24.01987451171875,-0.9968414306640625,0.000244140625,-0.0181121826171875
1773790607009837300,24.03983740234375,-0.995452880859375,0.0012359619140625,-0.0177764892578125
1773790607029800400,24.059800537109375,-0.9965362548828125,-0.0001220703125,-0.0182342529296875
1773790607049763300,24.079763427734374,-0.9962158203125,-0.000732421875,-0.01788330078125
1773790607069725400,24.099725341796876,-0.995574951171875,0.0009613037109375,-0.0183258056640625
1773790607089688600,24.1196884765625,-0.9967803955078125,-0.000518798828125,-0.017303466796875
1773790607109651200,24.139651123046875,-0.9959716796875,0.000335693359375,-0.017547607421875
1773790607129614300,24.1596142578125,-0.996673583984375,0.00042724609375,-0.0179901123046875
1773790607149577500,24.179577392578125,-0.9954376220703125,0.0016937255859375,-0.0176849365234375
1773790607169540400,24.199540283203124,-0.995086669921875,0.000244140625,-0.017852783203125
1773790607189503500,24.21950341796875,-0.995880126953125,0.0008697509765625,-0.017669677734375
1773790607209465600,24.239465576171874,-0.9961700439453125,0.0002288818359375,-0.0191802978515625
1773790607229428500,24.259428466796876,-0.9964447021484375,0.0001068115234375,-0.01806640625
1773790607249391400,24.279391357421876,-0.995361328125,-0.000213623046875,-0.017303466796875
1773790607269354200,24.299354248046875,-0.9952239990234375,0.00018310546875,-0.0186309814453125
1773790607289317400,24.3193173828125,-0.9956817626953125,0.0012664794921875,-0.01763916015625
1773790607309280500,24.339280517578125,-0.995330810546875,-0.00006103515625,-0.0177764892578125
1773790607329243400,24.359243408203124,-0.9951171875,0.00115966796875,-0.01885986328125
1773790607349205500,24.37920556640625,-0.9951934814453125,0.0003662109375,-0.016998291015625
1773790607369168600,24.399168701171874,-0.9958038330078125,-0.0003204345703125,-0.0175018310546875
1773790607389131500,24.419131591796877,-0.995574951171875,0.0014495849609375,-0.017822265625
1773790607409094400,24.439094482421876,-0.9964752197265625,0.0008697509765625,-0.0169525146484375
1773790607429057300,24.459057373046875,-0.9954071044921875,-0.00103759765625,-0.0178985595703125
1773790607449020400,24.4790205078125,-0.99652099609375,0.00018310546875,-0.016845703125
1773790607468983300,24.4989833984375,-0.9948883056640625,0.0008697509765625,-0.0186767578125
1773790607488945400,24.5189453125,-0.9955291748046875,0.0005950927734375,-0.01690673828125
1773790607508908500,24.538908447265626,-0.995147705078125,0.0005645751953125,-0.0176239013671875
1773790607528871400,24.558871337890626,-0.9958343505859375,-0.0009002685546875,-0.017730712890625
1773790607548834300,24.578834228515625,-0.996673583984375,0.0009918212890625,-0.017333984375
1773790607568797400,24.59879736328125,-0.995147705078125,-0.000457763671875,-0.0180816650390625
1773790607588760300,24.61876025390625,-0.99591064453125,0.000274658203125,-0.018280029296875
1773790607608723500,24.638723388671874,-0.9953460693359375,0.0002288818359375,-0.01806640625
1773790607628685600,24.658685546875,-0.99530029296875,-0.001251220703125,-0.017364501953125
1773790607648648400,24.6786484375,-0.9941864013671875,0.001251220703125,-0.017852783203125
1773790607668611600,24.698611572265627,-0.9951019287109375,0.0010223388671875,-0.01702880859375
1773790607688574500,24.718574462890626,-0.9949798583984375,0.00103759765625,-0.017730712890625
1773790607708537300,24.738537353515625,-0.9956817626953125,-0.0000762939453125,-0.0181427001953125
1773790607728500500,24.75850048828125,-0.99554443359375,0.0008392333984375,-0.0173797607421875
1773790607748463400,24.77846337890625,-0.995086669921875,-0.0007171630859375,-0.0179443359375
1773790607768430600,24.7984306640625,-0.99554443359375,0.0006866455078125,-0.0176544189453125
1773790607788392400,24.818392333984374,-0.9954071044921875,-0.000244140625,-0.0178985595703125
1773790607808355600,24.83835546875,-0.995819091796875,-0.0009613037109375,-0.01788330078125
1773790607828318700,24.858318603515624,-0.99591064453125,0.0001983642578125,-0.01751708984375
1773790607848281600,24.878281494140627,-0.9952545166015625,0.00018310546875,-0.0178680419921875
1773790607868244500,24.898244384765626,-0.996429443359375,-0.0009002685546875,-0.0176544189453125
1773790607888207400,24.918207275390625,-0.9961700439453125,0.0010986328125,-0.01861572265625
1773790607908170500,24.93817041015625,-0.9957275390625,-0.0001983642578125,-0.0181427001953125
1773790607928132600,24.958132568359375,-0.997344970703125,0.0009765625,-0.0180206298828125
1773790607948095500,24.978095458984374,-0.994232177734375,-0.0008392333984375,-0.0167083740234375
1773790607968058600,24.99805859375,-0.9952545166015625,0.000701904296875,-0.0178070068359375
1773790607988021500,25.018021484375,-0.99462890625,-0.0001678466796875,-0.0175323486328125
1773790608007984400,25.037984375,-0.9960479736328125,-0.0000152587890625,-0.0172576904296875
1773790608027947500,25.057947509765626,-0.9962615966796875,0.0001678466796875,-0.01678466796875
1773790608047910400,25.077910400390625,-0.9962921142578125,-0.000030517578125,-0.0179595947265625
1773790608067872500,25.09787255859375,-0.9961700439453125,-0.0008544921875,-0.0185394287109375
1773790608087835600,25.117835693359375,-0.9965972900390625,0.00054931640625,-0.018524169921875
1773790608107798500,25.137798583984374,-0.9962615966796875,-0.00030517578125,-0.0185394287109375
1773790608127761700,25.15776171875,-0.99609375,-0.0001678466796875,-0.0169677734375
1773790608147724500,25.177724609375,-0.99560546875,0.0001373291015625,-0.017578125
1773790608167687400,25.1976875,-0.9950408935546875,-0.0001220703125,-0.0181884765625
1773790608187649500,25.2176494140625,-0.995147705078125,-0.0006103515625,-0.01824951171875
1773790608207612400,25.2376123046875,-0.9969940185546875,0.000335693359375,-0.018096923828125
1773790608227575600,25.257575439453124,-0.995697021484375,0.000091552734375,-0.0185394287109375
1773790608247538700,25.27753857421875,-0.9958038330078125,0.00067138671875,-0.0169525146484375
1773790608267501600,25.29750146484375,-0.9951934814453125,0.00146484375,-0.018096923828125
1773790608287464700,25.317464599609377,-0.99591064453125,-0.0002288818359375,-0.0178985595703125
1773790608307427300,25.33742724609375,-0.99517822265625,0.0011749267578125,-0.0176239013671875
1773790608327389400,25.357389404296875,-0.9948577880859375,0.0009307861328125,-0.0180511474609375
1773790608347352600,25.3773525390625,-0.9952545166015625,0.0006866455078125,-0.0181121826171875
1773790608367315500,25.3973154296875,-0.9954833984375,0.0004730224609375,-0.0182037353515625
1773790608387278600,25.417278564453124,-0.99603271484375,0.000244140625,-0.0169525146484375
1773790608407241500,25.437241455078127,-0.99603271484375,0.0008697509765625,-0.01837158203125
1773790608427204600,25.45720458984375,-0.9946136474609375,0.0005645751953125,-0.01800537109375
1773790608447167700,25.477167724609377,-0.99591064453125,0.0008544921875,-0.0168304443359375
1773790608467129300,25.49712939453125,-0.995819091796875,0.0002899169921875,-0.0167694091796875
1773790608487092500,25.517092529296875,-0.9952850341796875,0.0001068115234375,-0.0173492431640625
1773790608507055600,25.5370556640625,-0.995941162109375,-0.000030517578125,-0.018829345703125
