time,seconds_elapsed,z,y,x
1773790582996913400,0.026913330078125,0.04660626835227012,0.015565714032721006,-0.010750069937389342
1773790583016876500,0.04687646484375,0.03149170132875442,0.015137321136373793,-0.018718089674506336
1773790583036839400,0.06683935546875,0.04076572563052177,0.00637186398631893,-0.01281109412042424
1773790583056802600,0.086802490234375,0.035975568744540214,0.011511350333201699,-0.021209687294531612
1773790583076765400,0.106765380859375,0.04300502898991108,0.015678763077803887,-0.012004618309438228
1773790583096728600,0.126728515625,0.0413572617828846,0.010686056798958453,-0.028029030186869204
1773790583116691700,0.146691650390625,0.04494505714178085,0.010507956860761624,-0.012555183130595832
1773790583136654600,0.166654541015625,0.036114100432395935,0.006156336380873108,-0.023025139218661932
1773790583156617500,0.186617431640625,0.04374211109280586,0.01424142260942026,-0.023842373885679988
1773790583176580400,0.206580322265625,0.0377536843329668,0.021105601298972033,-0.007041771737672388
1773790583196543500,0.22654345703125,0.0314665668874979,0.01352358748804545,-0.01960402392987162
1773790583216506400,0.24650634765625,0.045080081698298455,0.00602971204323112,-0.017741846787184476
1773790583236469500,0.266469482421875,0.04043897789418697,0.01621252061134437,-0.0246407394554466
1773790583256432600,0.2864326171875,0.03789280054271221,0.0050191376280447,-0.01910635833973065
1773790583276395500,0.3063955078125,0.04357727591991424,0.02602748567268718,-0.013751169715821743
1773790583296358700,0.326358642578125,0.042077977272868154,0.015443392552505247,-0.018808562703244387
1773790583316321500,0.346321533203125,0.03608896599113941,0.01616197088432964,-0.017993666123785078
1773790583336284400,0.366284423828125,0.043269232884049415,0.0059923020714690205,-0.022767383331619203
1773790583356247600,0.38624755859375,0.03533843988478184,0.012529840910073834,-0.010632361841853708
1773790583376210400,0.40621044921875,0.041620296633243556,0.008956406295025953,-0.012400211764592677
1773790583396173600,0.426173583984375,0.04147065902948379,0.0063724650620511965,-0.006565879587922245
1773790583416137500,0.446137451171875,0.051342649224400516,-0.00006506459284573793,-0.027126692785974592
1773790583436100600,0.4661005859375,0.045801381710171694,0.012076420887035783,-0.0009346322352997958
1773790583456063500,0.4860634765625,0.03293196326494217,0.017615551243105435,-0.025898009507544336
1773790583476026600,0.506026611328125,0.03472761451005935,0.014378482717752921,-0.015111206022650002
1773790583495989500,0.525989501953125,0.04549801484942436,0.009670801642077276,-0.025379392460919914
1773790583515952600,0.54595263671875,0.03906242884397507,0.007106820347497705,-0.015108374744746833
1773790583535915500,0.56591552734375,0.031575872480869294,0.007454751864934223,-0.015127974494360387
1773790583555878400,0.58587841796875,0.0327694661796093,0.007455054400677908,-0.008038728619460016
1773790583575841500,0.605841552734375,0.039649873343110084,0.02844608427187195,0.0014131729998625815
1773790583595804400,0.625804443359375,0.04967267018556595,0.005173950876310118,-0.015009846273716538
1773790583615767600,0.645767578125,0.05011690682172775,0.012410487705079139,-0.020592267782241106
1773790583635730400,0.66573046875,0.036947044125199315,0.009381876581924735,-0.01717095156405121
1773790583655693600,0.685693603515625,0.03904138605594635,0.012192948522348887,-0.022383754308894277
1773790583675656400,0.705656494140625,0.04457797739505768,0.006700998900918057,-0.013085892473813145
1773790583695619600,0.72561962890625,0.04128419654667377,0.021003892206877935,-0.004315872171428054
1773790583715582700,0.745582763671875,0.041432080584764476,0.014249862785846926,-0.005529065619781613
1773790583738042600,0.768042724609375,0.046965164792537685,0.013785646232514409,-0.00515572052905336
1773790583758005500,0.788005615234375,0.04307107996344566,0.014067771659122081,-0.013647636276111007
1773790583777968600,0.80796875,0.04142448180019855,0.019330490518384612,0.004361556210368872
1773790583797931800,0.827931884765625,0.03603752806484699,0.014308344657567794,-0.003723897627647966
1773790583817894400,0.847894287109375,0.04711012622117996,0.011474611077475128,-0.010437916981987655
1773790583837857500,0.867857421875,0.034089901128411294,0.026138295953266787,0.002700673793442547
1773790583857820400,0.8878203125,0.04246843789517879,0.015508137484942562,-0.01965500519843772
1773790583877783600,0.907783447265625,0.024058920979499816,0.0037869403684104323,-0.012074194680619984
1773790583897746700,0.92774658203125,0.03378244261443615,0.019448682671110145,0.0013914543583989141
1773790583917709600,0.94770947265625,0.03752630531787872,0.00451736268918903,-0.009541643995698542
1773790583937672700,0.967672607421875,0.03617781331837177,0.00975254451673245,0.0008968209755606948
1773790583957635600,0.987635498046875,0.05503098234832286,0.004794454035186208,-0.01397778154592961
1773790583977598700,1.0075986328125,0.03542787173390388,0.01741622471214505,-0.0060137803968042134
1773790583997562600,1.027562744140625,0.04500175576508045,0.015983326381794175,-0.017352701339125632
1773790584017525800,1.04752587890625,0.039464579904079436,0.008322207465404062,-0.01193712429748848
1773790584037488400,1.06748828125,0.0409603714197874,0.015561223945626989,-0.0035254707124084232
1773790584057451500,1.087451416015625,0.04170739039480686,0.0008992013039591256,-0.00929272900223732
1773790584077414400,1.107414306640625,0.0273404268682003,0.019421004646318032,-0.01409788252795115
1773790584097377500,1.12737744140625,0.05322480970919132,0.006442547181664849,-0.011839180348347873
1773790584117340700,1.147340576171875,0.0448427658110857,0.008056445797596824,-0.00975881214402616
1773790584137303600,1.167303466796875,0.04454173703789711,0.014851066382275893,-0.010678100679721683
1773790584157266700,1.1872666015625,0.043641573327779765,0.010164640440471703,-0.009966043420229106
1773790584177229600,1.2072294921875,0.04349076668024063,-0.0018322044128202832,-0.007782397504523396
1773790584197192700,1.227192626953125,0.04603460594415664,0.016887743858632166,-0.011389536884706467
1773790584217155600,1.247155517578125,0.03061959466934204,-0.006824131519420188,-0.006885996654070913
1773790584237118500,1.267118408203125,0.052912675020098686,0.01153063042240683,-0.001614778252877295
1773790584257081600,1.28708154296875,0.043784196668863296,0.007759347705787513,0.0012552242254838346
1773790584277044500,1.30704443359375,0.04423194043636322,0.01718017833341146,-0.012014262920618057
1773790584297007600,1.327007568359375,0.034953239959478376,0.010037883672089083,-0.016258476361632346
1773790584316970500,1.346970458984375,0.0386947645753622,0.01831270205276669,-0.012546378769632428
1773790584336933600,1.36693359375,0.043932080706954,0.007372556328307837,-0.005831336501985788
1773790584356896500,1.386896484375,0.05006897602677345,0.0013892738177557476,-0.012374237073119729
1773790584376859600,1.406859619140625,0.04273497987687588,0.006303237463207915,-0.0040386626652441915
1773790584396822500,1.426822509765625,0.026722002708911893,0.015339142160164191,-0.009774502903502433
1773790584416785400,1.446785400390625,0.05096037190854549,-0.0010187725630181376,-0.00869372192947194
1773790584436748500,1.46674853515625,0.0400368268340826,0.016361070228071185,-0.014534703042637556
1773790584456711400,1.48671142578125,0.03853928175270557,0.009473312587643157,-0.014296875698771326
1773790584476674600,1.506674560546875,0.03793897777199745,0.010447686032397905,-0.017654734759312122
1773790584496637700,1.5266376953125,0.04227613019347191,-0.002319177933121682,-0.01198019625423476
1773790584516600600,1.5466005859375,0.03913315599262714,0.016572439964918886,0.00031133097149431703
1773790584536563700,1.566563720703125,0.03958148428201675,0.0038750273605284743,-0.010403137929551302
1773790584556526600,1.586526611328125,0.028507132560014723,0.011113548937940504,-0.010029555376805364
1773790584576489500,1.606489501953125,0.03703530693054199,0.009858905809413409,-0.012960494262166321
1773790584596452400,1.626452392578125,0.043618776974081994,0.007911063102202024,-0.006630359658878296
1773790584616415500,1.64641552734375,0.03748188165426254,0.009739989854191663,-0.017612137726601213
1773790584636378600,1.666378662109375,0.050348962011933326,0.015928113037749426,-0.006438435549661517
1773790584656341500,1.686341552734375,0.037030046233534814,0.016623135822406036,-0.008776176048535853
1773790584676304600,1.7063046875,0.04391337600648403,0.0014338150707364546,-0.0011415164516307412
1773790584696267500,1.726267578125,0.03268821763694286,0.006548955852584913,-0.010874518300965428
1773790584716230700,1.746230712890625,0.03777414259910583,0.0031067058733984594,-0.010744133386947213
1773790584736192000,1.76619189453125,0.03388298037946224,0.0021568926228093914,-0.008931183947157114
1773790584756156000,1.786156005859375,0.040917701321840284,0.01200710937733529,-0.009494937043450773
1773790584776119000,1.806119140625,0.04555588251650333,0.009240095774346263,-0.014398582507576793
1773790584796082000,1.82608203125,0.04495324044823646,0.00664431854392751,-0.0044344753161072725
1773790584816045000,1.846045166015625,0.03747194478213787,0.011989692451653535,-0.012844631063845008
1773790584836008200,1.86600830078125,0.03837152397036552,0.014700983537232967,-0.0036409685845486817
1773790584855971000,1.88597119140625,0.03627367490828037,0.004951801163010532,-0.0025945100052282215
1773790584875934200,1.905934326171875,0.03447977722883224,0.01131602983214543,-0.0065770768353715535
1773790584895897000,1.92589697265625,0.0374707757383585,0.012520152916410007,-0.01412029528915882
1773790584915860200,1.945860107421875,0.03971533979475498,0.0023503311232110718,-0.005888784043956548
1773790584935822800,1.96582275390625,0.039863808354735374,0.006390730800281744,-0.014332768996059893
1773790584955786000,1.985785888671875,0.03806874163150787,0.01462489294358529,-0.008074494052585214
1773790584975749000,2.0057490234375,0.03776946642398834,0.0064895304118370405,-0.0049287616390734906
1773790584995712000,2.0257119140625,0.03178396227359771,0.011604470835108077,-0.004335526719968765
1773790585015675100,2.045675048828125,0.03911445129215717,0.006242940947847091,-0.002449000587314367
1773790585035638000,2.065637939453125,0.0376186597764492,0.009541721627512014,-0.009348569109011442
1773790585055601200,2.08560107421875,0.04135784630477428,0.010686704111285507,-0.0073071446755900975
1773790585075564000,2.10556396484375,0.04150456129908561,0.018392794109741224,-0.010280644061043858
1773790585095527200,2.125527099609375,0.0483890601158142,0.010918631437327712,-0.0030151465700939298
1773790585115490000,2.145489990234375,0.0415051458209753,0.004119732255164126,0.009450074988417326
1773790585135453000,2.165452880859375,0.04285246877670288,0.008248925316773239,-0.004812880174443125
1773790585155416000,2.185416015625,0.05258125110864639,0.00009595691720896866,-0.013024462876468896
1773790585175379000,2.20537890625,0.04525017756819725,0.007979690766957355,-0.002157872153632343
1773790585195342000,2.225342041015625,0.02729424963891506,-0.0010727198235166724,-0.010598733566887676
1773790585215305200,2.24530517578125,0.04076280302107334,0.00841936995901051,-0.017848193238489327
1773790585235268000,2.26526806640625,0.043158173725008964,-0.0004302363665061421,-0.018349530356749893
1773790585255231200,2.285231201171875,0.05138999549746513,0.012976565189199754,-0.006193776606209575
1773790585275194000,2.305194091796875,0.04136252247989178,0.009193498419952812,-0.013261504769045859
1773790585295157000,2.325156982421875,0.041211715832352634,0.010692302735010161,-0.006000646920595318
1773790585315119900,2.345119873046875,0.04270809186995029,0.0075257798368635115,-0.0006232647311873733
1773790585335083000,2.3650830078125,0.034927520996332166,-0.0007536838945350609,-0.004840243105404079
1773790585355046100,2.385046142578125,0.04016191451847553,0.01146050377866486,-0.011393445874843746
1773790585375009000,2.405009033203125,0.04165653699040413,0.017023827861074824,-0.005767477485537529
1773790585394972200,2.42497216796875,0.037167993399500845,0.0039726682031032395,-0.012520495409704744
1773790585414935000,2.44493505859375,0.041356092739105225,0.006543981708300998,-0.0016480229353532194
1773790585434898200,2.464898193359375,0.03611819208562374,0.004008445338082674,-0.005354275308456271
1773790585454861000,2.484861083984375,0.04389993200302124,0.0009231804011680651,-0.0005859283954836428
1773790585474824000,2.504823974609375,0.03521627480983734,0.008090896627292387,-0.006758260354865342
1773790585494787000,2.524787109375,0.04838263037502765,0.016981641820317597,-0.012654643183387815
1773790585514750000,2.54475,0.03985445600450039,0.008147727110510459,-0.007466061564348638
1773790585534713000,2.564713134765625,0.03790975167751312,0.008747218240465735,-0.017392138300370424
1773790585554676000,2.584676025390625,0.03835866448879242,0.010515363849082495,0.0034304128400981424
1773790585574639000,2.60463916015625,0.044641690281033514,0.002131050362077076,-0.011151490345131606
1773790585594602000,2.62460205078125,0.05182487978339195,-0.0009816571354895132,-0.0044478279880248005
1773790585614565000,2.644565185546875,0.033417116433382035,-0.016320420840563017,-0.008809311133157461
1773790585634528300,2.6645283203125,0.04089841209948063,0.00644511759384186,-0.010098638557642698
1773790585654491000,2.684490966796875,0.030873277169466015,0.008740837590384761,-0.012683485685382037
1773790585674454000,2.7044541015625,0.04763268879055976,0.0013235279486645594,-0.0032576866216957566
1773790585694417000,2.7244169921875,0.031470658540725706,0.01785757641312084,-0.009464085247460752
1773790585714380000,2.744380126953125,0.04209375936388969,0.0016607145952119025,-0.00940068288873881
1773790585734343400,2.764343505859375,0.048078094470500946,0.00543048234982416,0.0012770159321837127
1773790585754306600,2.784306640625,0.051368952709436415,0.005402674177580047,-0.0068822703270241615
1773790585774269700,2.804269775390625,0.04523439547717571,0.003986189838379505,0.003101601010840386
1773790585794232600,2.824232666015625,0.03431143492460251,0.008021025141054997,-0.015467325983941554
1773790585814195700,2.84419580078125,0.03745382460355758,0.01730120176404016,-0.018170301332324744
1773790585834158600,2.86415869140625,0.03640519233345985,0.0038635603996095592,-0.003276226925384253
1773790585854121500,2.88412158203125,0.036106501647830004,0.021711513036559334,-0.0024181305250152944
1773790585874084400,2.90408447265625,0.048076340904831885,0.010150996649253648,-0.0016018822386860846
1773790585894047500,2.924047607421875,0.05241232428252697,0.006073946764713036,-0.006027078269794583
1773790585914011400,2.944011474609375,0.03640110068023204,0.007765997783927014,-0.0068081639111973345
1773790585933974500,2.963974609375,0.042534488868713374,0.011698872261936775,-0.013882979401946067
1773790585953937400,2.9839375,0.044029111340641976,0.0019265516115439822,-0.0010629713227041065
1773790585973900500,3.003900634765625,0.053307227295637125,0.01092472553468542,0.0014524820969440042
1773790585993863700,3.02386376953125,0.05240823262929916,0.008813120800239266,-0.008184055374283343
1773790586013826600,3.04382666015625,0.0435790294855833,0.0014287475970297236,0.001871657357085496
1773790586033789700,3.063789794921875,0.04492576791942119,0.013269907271210104,0.005438830053061247
1773790586053752600,3.083752685546875,0.03879004164338112,0.0082615901479905,-0.007088350825756788
1773790586073715500,3.103715576171875,0.04133271186351776,0.0009291880189688527,-0.016575159361679106
1773790586093678600,3.1236787109375,0.04776595978140831,0.009034045529188005,-0.004992912916466593
1773790586113641500,3.143641357421875,0.04492284530997276,0.011984096111217512,-0.015006832332722842
1773790586133604600,3.1636044921875,0.03759001820385456,0.009094259846158092,-0.004222330402769148
1773790586153567500,3.1835673828125,0.04058218575716018,-0.010679150992492214,-0.0022230646106414496
1773790586173530600,3.203530517578125,0.0401326884239912,0.001967762973466597,-0.005338182690180838
1773790586193493500,3.223493408203125,0.044620647493004796,0.004905812305037398,-0.0036370961270295083
1773790586213456600,3.24345654296875,0.04028232602775097,0.0064647841296478865,-0.009526866551674902
1773790586233419800,3.263419677734375,0.03893734115958213,0.007526626366123673,0.005332337471283972
1773790586253382400,3.28338232421875,0.03923720088899135,-0.0002700314175483072,-0.006818593973666429
1773790586273345500,3.303345458984375,0.05180617508292198,0.014908338111022022,0.003971753175184131
1773790586293308400,3.323308349609375,0.0347474882543087,0.00008359918831265532,-0.016230875968653708
1773790586313271600,3.343271484375,0.044025604209303855,0.008431463968069874,-0.002767491951957345
1773790586333234400,3.363234375,0.048963060611486434,0.018007694649137554,-0.01682065855534747
1773790586353197600,3.383197509765625,0.029207974305748938,0.006306642988201929,-0.01484601574782282
1773790586373160700,3.40316064453125,0.04312368693351745,0.013620827042643212,-0.019899682408198713
1773790586393123600,3.42312353515625,0.039682022047042846,0.008720044822461205,-0.006428133351355791
1773790586413086700,3.443086669921875,0.04342179309725761,0.0041678402903984535,-0.00414126452319324
1773790586433049300,3.46304931640625,0.02860883936882019,-0.0024044676112549494,-0.007354454416036605
1773790586453012500,3.483012451171875,0.05329670590162277,0.011709423338703345,-0.008261504524666816
1773790586472975600,3.5029755859375,0.04476677796542644,0.009325182525202399,-0.013314787592552602
1773790586492938500,3.5229384765625,0.031899113085865974,0.016948171092267147,-0.0026076982803642746
1773790586512901600,3.542901611328125,0.04057692506015301,0.013247174849594012,-0.0004484013546258211
1773790586532864500,3.562864501953125,0.04177344136834144,0.00794076754565467,-0.004152790564205497
1773790586552827600,3.58282763671875,0.04042553389072418,0.0012374405465656309,-0.010806202305108308
1773790586572790500,3.60279052734375,0.036384734067320824,0.005831378742825472,-0.008387998714856803
1773790586592753700,3.622753662109375,0.05104921923577785,-0.0006848484505142551,0.002833469860255718
1773790586612716800,3.642716796875,0.04940320559442043,-0.0007141772929870057,0.000308353563118726
1773790586632679400,3.662679443359375,0.03788052558302879,-0.0018813601921254303,-0.004157777266576886
1773790586652642600,3.682642578125,0.044914662003517146,0.008572493002866395,-0.012174860309809446
1773790586672605400,3.70260546875,0.042969373154640195,0.007061592966283206,-0.005739036842342466
1773790586692568600,3.722568603515625,0.04850654901564121,0.010419632406625896,0.0000798603031784296
1773790586712531500,3.742531494140625,0.04805997429192066,0.008146969058684771,-0.01053003397854045
1773790586732494600,3.76249462890625,0.03728431325554848,0.019225219496025236,-0.0005542180829681456
1773790586752457500,3.78245751953125,0.03818155435621738,0.001313744056878204,-0.002015358410403132
1773790586772420400,3.80242041015625,0.05239946480095386,0.022468948374316094,-0.0019908267573453486
1773790586792383500,3.822383544921875,0.05913491053581237,-0.008372710955824004,-0.005990856178943067
1773790586812346400,3.842346435546875,0.02935819643139839,0.00402581574175856,0.006655713295843452
1773790586832309500,3.8623095703125,0.04282558076977729,0.006701001755028847,-0.006792345287557691
1773790586852272400,3.8822724609375,0.035192893934249875,-0.0011219295455157407,-0.0056994354843162
1773790586872235500,3.902235595703125,0.03788695532381534,0.009511220316326943,0.0011655183817259967
1773790586892198400,3.922198486328125,0.04746434648633003,0.004365044504575781,-0.006658599372673779
1773790586912161300,3.942161376953125,0.049559272938966746,0.006976740252511808,-0.00636345235100016
1773790586932124400,3.96212451171875,0.039832244172692294,-0.0018829476485465418,-0.0027301556162536143
1773790586952087300,3.98208740234375,0.03833586813509464,0.005884247149445582,-0.0015257299962453544
1773790586972050400,4.002050537109375,0.029209143349528312,0.002958896613010438,0.002582874366361648
1773790586992013600,4.022013671875,0.034597850650548934,-0.005037758988479617,-0.004978902657423168
1773790587011976400,4.0419765625,0.0360936421662569,-0.001102243030934187,-0.012883848829381168
1773790587031939600,4.061939697265625,0.03938566944897175,0.002305219333483546,-0.015276917978376148
1773790587051902500,4.08190234375,0.04028115698397159,0.0019831914401613176,0.00071174673223868
1773790587071865300,4.101865234375,0.04103109856843948,0.017141919549100566,-0.006401628936920314
1773790587091828200,4.121828125,0.034895372292399404,0.00326336430428928,-0.001287738255597651
1773790587111791400,4.141791259765625,0.04776362169384956,-0.003832965759001672,-0.00829940711595118
1773790587131754500,4.16175439453125,0.038036008405685426,0.010517921132349874,0.00044441929925233124
1773790587151717400,4.18171728515625,0.04252689008414745,0.006403392777388216,-0.0006854797798208892
1773790587171680500,4.201680419921875,0.020528993287682533,0.0008385206252860371,-0.006450966237671673
1773790587191643400,4.221643310546875,0.03459434351921081,-0.0015812575778880271,0.008232789886835961
1773790587211606500,4.2416064453125,0.05300093782544136,0.011257640433614142,-0.002920508822891861
1773790587231569400,4.2615693359375,0.03594049743115902,0.010023242083739023,-0.0023508009098470208
1773790587251532300,4.2815322265625,0.03234744137525558,0.017148825355566805,0.0002888086124323308
1773790587271495400,4.301495361328125,0.05194762938022613,0.00010463427024224074,-0.008400657267030327
1773790587291458300,4.321458251953125,0.03817804722487926,0.00932479436613503,-0.011843326800502835
1773790587311421400,4.34142138671875,0.03952537018060684,0.01207776003581821,-0.01050829707076773
1773790587331384300,4.36138427734375,0.03728080612421036,0.0026714385658036916,-0.009602470804844051
1773790587351347500,4.381347412109375,0.04506020795404911,0.004314514470925496,-0.00474783384790644
1773790587371310600,4.401310546875,0.04535889863967895,0.01963260842025047,0.0011518917151726782
1773790587391273500,4.4212734375,0.04012216702997684,-0.0006502985831742989,-0.0053158977931365365
1773790587411236600,4.441236572265625,0.040270051068067546,0.0020430253041631655,-0.009732198131736368
1773790587431199500,4.461199462890625,0.045803719797730444,0.004702121553268808,-0.012106032857298851
1773790587451162400,4.481162353515625,0.044157121634483334,0.003725455115905788,-0.007432341957837343
1773790587471125200,4.501125244140625,0.03577683130204677,0.018694539835560135,-0.004979907304421067
1773790587491088400,4.52108837890625,0.053882396835088726,-0.0030639461563725487,0.009563453968707471
1773790587511051500,4.541051513671875,0.034876667591929436,0.0037337934005772693,0.00862555206408724
1773790587531014400,4.561014404296875,0.0443026675850153,0.002419301281261141,0.004028707526810467
1773790587550977500,4.5809775390625,0.04160743715167045,0.007004119166493183,-0.013206705841887741
1773790587570940400,4.6009404296875,0.041159108862280844,0.012171117999742272,0.000372669237293303
1773790587590903600,4.620903564453125,0.04295534462928772,0.006079456911003217,-0.007315894237626344
1773790587610866400,4.640866455078125,0.034575638818740845,0.008307725136436055,-0.008642101340088993
1773790587630829300,4.660829345703125,0.03307984730303287,0.008992438872921046,-0.009422401530202478
1773790587650792400,4.68079248046875,0.040860418176651,-0.0013631053321601938,0.0009395824050530791
1773790587670755300,4.70075537109375,0.04908990186154842,0.0159830752200447,-0.009070957744028418
1773790587690718500,4.720718505859375,0.05447393298745155,0.0006761730953585356,0.004141428919974714
1773790587710681300,4.740681396484375,0.030681553989648818,0.0038703851493293766,0.002317355297971517
1773790587730644500,4.76064453125,0.03637070554196834,0.008226079301547725,0.0015730945356190204
1773790587750607400,4.780607421875,0.039212650969624514,0.0037597752273271904,-0.0049601431580260395
1773790587770570000,4.800570068359375,0.0413093309879303,-0.006424742096915724,0.005422006782423705
1773790587790533000,4.820533203125,0.037867666101455685,0.0038367169168122927,-0.010877550508268177
1773790587810496000,4.84049609375,0.041757659277319906,0.0028365134840016254,-0.001284249390568584
1773790587830459100,4.860459228515625,0.048044776722788805,0.003920277289218211,-0.006641629971563816
1773790587850422000,4.880422119140625,0.032631519013643265,0.007281498777680098,0.003268463744036853
1773790587870385200,4.90038525390625,0.03472586094439029,0.004926565115409903,-0.01151586667811498
1773790587890348300,4.920348388671875,0.027693478089570997,0.007598839364852756,-0.0046769423024728895
1773790587910311200,4.940311279296875,0.034575638818740845,0.00940635343605536,-0.0024955614090897142
1773790587930274300,4.9602744140625,0.03801730370521545,-0.008605128618099842,0.00272513238126412
1773790587950237000,4.98023681640625,0.03532499588131904,-0.000536588526032574,0.0034029037786647677
1773790587970200000,5.000199951171875,0.04355564860999584,0.012896482265379745,-0.010672839982714503
1773790587990163200,5.0201630859375,0.03502513615190982,-0.0020856020726874704,-0.017048475961852817
1773790588010126000,5.0401259765625,0.03801613466143608,0.006636638131793006,0.0014560440272092818
1773790588030089200,5.060089111328125,0.04115969338417053,0.011810315013467333,-0.007124536383990198
1773790588050052000,5.080052001953125,0.04041325893104076,-0.0025353260222531386,-0.010215762131288646
1773790588070015200,5.10001513671875,0.04490180252194404,0.014506729331967652,-0.00032883009556680914
1773790588089978000,5.11997802734375,0.03517652732133865,0.013172753339936024,-0.015052406773809342
1773790588109940000,5.13993994140625,0.04909282447099685,0.002414373373572016,0.0015437953758984802
1773790588129903000,5.159903076171875,0.02649696178138256,-0.005064506573154358,-0.0015635047233663497
1773790588149866000,5.179865966796875,0.0434048419624567,0.009232073439739178,-0.010465992299001664
1773790588169829000,5.1998291015625,0.03711947808265686,0.004005848953497479,0.000048259588517248626
1773790588189792300,5.219792236328125,0.04220540304481983,0.010315428821701788,0.0005824577967636287
1773790588209755100,5.239755126953125,0.02245265482664108,0.011731969672295962,-0.006398322734981775
1773790588229718300,5.25971826171875,0.055820086899399754,0.00866682478939183,0.0004196684504859149
1773790588249681200,5.27968115234375,0.03995908542275429,0.009423386769247009,0.004597045466676354
1773790588269644300,5.299644287109375,0.04430032949745655,0.008388353766239014,-0.005535842420440167
1773790588289607200,5.319607177734375,0.03666588909626007,0.007387995355212479,-0.0019362470258958637
1773790588309570000,5.339570068359375,0.03726385498940944,0.01133724044188857,-0.008164601755142211
1773790588329533200,5.359533203125,0.0430997215360403,0.0036856967817861003,-0.011912793573830276
1773790588349496000,5.37949609375,0.038161680611968035,0.025081683589401653,-0.008923713026754558
1773790588369459200,5.399459228515625,0.03412088078856468,0.007268109573144465,0.006515391509700566
1773790588389422000,5.419422119140625,0.0375619611531496,0.010958084381592926,0.0034256088008172807
1773790588409385200,5.43938525390625,0.04369768742918968,0.012610768650687531,-0.015329232687503098
1773790588429348400,5.459348388671875,0.05192600207030773,0.004369748079156852,0.0046770153677091
1773790588449311200,5.479311279296875,0.03411912722289562,0.005691790463155485,-0.012398184204287826
1773790588469274000,5.499274169921875,0.03890519245564937,0.001003227363192127,0.012434515892993658
1773790588489237000,5.519237060546875,0.029177579167485236,0.011124246145179494,0.006517035477515309
1773790588509200100,5.5392001953125,0.041598669323325156,0.00287075425114308,-0.0016122940348461269
1773790588529163000,5.5591630859375,0.04548924702107906,0.0035143479572507202,-0.00402569358581677
1773790588549126100,5.579126220703125,0.04533902489542961,0.0027321492126400697,0.0059039268141612405
1773790588569089300,5.59908935546875,0.0392044676631689,0.00814693937593256,-0.0010384944685734808
1773790588589052200,5.61905224609375,0.040402153015136714,0.004697029534209286,0.006106098322756588
1773790588609015300,5.639015380859375,0.04219663521647453,0.0074565402507549144,-0.0014276581829413772
1773790588628978200,5.658978271484375,0.037110710254311556,-0.004620369830870186,0.0026527795311063525
1773790588648941000,5.678941162109375,0.037708676147460936,0.009699492305377498,-0.00733646210161969
1773790588668904200,5.698904296875,0.0441413395434618,-0.0017830469210486626,-0.007253149466030299
1773790588688867000,5.7188671875,0.03950315834879875,0.007619164629428996,-0.0014508929280564189
1773790588708830200,5.738830322265625,0.022594693645834923,-0.002438776877055352,-0.011516670395713299
1773790588728793000,5.75879296875,0.0493786556750536,0.008025720724125858,0.002177344039082527
1773790588748756500,5.778756591796875,0.042943654191493985,-0.003874629212073341,-0.006146466865763068
1773790588768719400,5.79871923828125,0.05132511356770992,-0.002019547674219939,-0.005355645281635225
1773790588788682500,5.8186826171875,0.047586511561274525,0.012797208300611236,-0.01177112008081749
1773790588808645400,5.838645263671875,0.03726034785807133,0.004024517977582582,-0.0018389058649539945
1773790588828608300,5.858608154296875,0.060007601717114445,-0.002198584474283416,-0.00615505203101784
1773790588848571400,5.8785712890625,0.05656359874308109,0.005406361688720062,-0.008865041642077267
1773790588868534300,5.8985341796875,0.02813303855061531,0.01308048450468923,0.00232676244713366
1773790588888497400,5.918497314453125,0.04414309310913086,0.0003713390789598634,-0.012421601612493395
1773790588908460300,5.938460205078125,0.03486673071980476,0.004318977443967014,-0.004569901731424034
1773790588928423400,5.95842333984375,0.040403906580805775,0.00038077316379258263,-0.00728582789292559
1773790588948386300,5.97838623046875,0.03950841904580593,0.002929547791762161,-0.015198391115758568
1773790588968349400,5.998349365234375,0.04324760557413101,0.00022159030758484732,-0.0068944174225442105
1773790588988312600,6.0183125,0.03726385498940944,-0.0021811823899777665,-0.012507635928131639
1773790589008275500,6.038275390625,0.04294949941039085,-0.003269502069542068,-0.00994264427833259
1773790589028238300,6.05823828125,0.04459609757363796,0.013646646470489212,0.005004146696534008
1773790589048201200,6.078201171875,0.042353871604800225,-0.0011768688235719309,-0.0057599700325168665
1773790589068164400,6.098164306640625,0.03921206644773483,0.007508868659613654,-0.005036441530939191
1773790589088127500,6.11812744140625,0.04295300654172897,0.00504976394928235,-0.010299915017094463
1773790589108090400,6.13809033203125,0.028441666108369824,0.002743464905687142,-0.002393872866593301
1773790589128053500,6.158053466796875,0.03712123164832592,0.01101459120864747,-0.007236709787882864
1773790589148016400,6.178016357421875,0.04265782298743725,-0.007746216512867249,0.0023425080055370926
1773790589167979500,6.1979794921875,0.03293371683061123,-0.0029223240373539737,0.00010921426182612776
1773790589187942400,6.2179423828125,0.03906827406287193,-0.004160272615640133,0.008377111994661391
1773790589207905300,6.2379052734375,0.055528994998335836,0.010240878306236118,0.004737422051746398
1773790589227867400,6.257867431640625,0.041911388534307474,0.004388788137644587,-0.013179068916290998
1773790589247830300,6.277830322265625,0.0495440753698349,0.011169476951326942,-0.0005261244996450841
1773790589267793400,6.29779345703125,0.042810967722535134,-0.0022871558090024335,0.005123772754520178
1773790589287756500,6.317756591796875,0.039969022294878954,-0.0009225422219955361,-0.006161792299058288
1773790589307719400,6.337719482421875,0.04460837253332138,0.0028766608334219197,-0.00873261090144515
1773790589327682600,6.3576826171875,0.04625672426223754,-0.0018323406966104811,-0.008728208720963448
1773790589347645200,6.377645263671875,0.04116846121251583,-0.0008488466554168553,-0.010638280125986783
1773790589367608300,6.3976083984375,0.03144260149002075,0.007111987429670989,-0.00033900442970916626
1773790589387571500,6.417571533203125,0.04880056352615356,0.011192898926109774,-0.0016853775373660027
1773790589407534300,6.437534423828125,0.03009586305618286,-0.00287216304022877,-0.005732333106920123
1773790589427497500,6.45749755859375,0.040271220111846924,-0.0031962558827071915,-0.005111680457927286
1773790589447460400,6.47746044921875,0.03622983576655388,0.0031388831184391165,-0.009407477955706418
1773790589467423500,6.497423583984375,0.049996495312452316,-0.002972913721919758,-0.0084949844869785
1773790589487386400,6.517386474609375,0.03248772662878036,0.006308336046722251,-0.0019899134418927132
1773790589507349500,6.537349609375,0.04730184940099716,0.0016534331877657677,-0.017568298584874718
1773790589527312400,6.5573125,0.040867432439327236,0.007463213161780731,0.0019028562129475176
1773790589547275300,6.577275146484375,0.03742459850907325,0.004415120449199458,-0.0046098318830132485
1773790589567238400,6.59723828125,0.03966857804358005,0.00516676251287572,-0.007593633466772735
1773790589587201300,6.617201171875,0.04400865307450294,0.003204575615658541,0.005841474303510039
1773790589607164400,6.637164306640625,0.03817278652787209,-0.007564568344136932,-0.0005724295930936932
1773790589627127300,6.657127197265625,0.02650046891272068,-0.011826680484734241,-0.012237532016169278
1773790589647090400,6.67709033203125,0.030841128465533253,0.002202972812327789,0.0008812215476296842
1773790589667053600,6.697053466796875,0.0498445196211338,0.001180661365988999,-0.021819288826547562
1773790589687016400,6.717016357421875,0.030690321817994116,0.0002055677042147181,-0.0006975172774866223
1773790589706979300,6.736979248046875,0.0420627797037363,0.014417746149061713,-0.007749408550374209
1773790589726942200,6.756942138671875,0.03577624678015709,0.004233941210871854,-0.010484660466853528
1773790589746905300,6.7769052734375,0.03338146059811115,0.00832857612821972,0.00033138737883418797
1773790589766868500,6.796868408203125,0.04849310501217842,0.002199989124908461,-0.00945792950130999
1773790589786831400,6.816831298828125,0.0338280353218317,0.00511410074387677,0.0015157383251935242
1773790589806794200,6.836794189453125,0.048942017823457716,0.005254141114695812,0.0022120134936645624
1773790589826757000,6.856757080078125,0.04789455459713936,0.014690796645003137,-0.013636968751624226
1773790589846720300,6.87672021484375,0.024998832178115844,-0.0008153508111914561,-0.01101798189226538
1773790589866683100,6.89668310546875,0.04100771769285202,-0.00006625140792432375,-0.00848228940218687
1773790589886646300,6.916646240234375,0.0408557420015335,0.0163165883405949,-0.005979202273767441
1773790589906609400,6.936609375,0.043996962636709214,-0.0023678271077616953,-0.011597535345889627
1773790589926572300,6.956572265625,0.03472060024738312,0.013760746969986939,-0.007477843333687633
1773790589946535400,6.976535400390625,0.046539632856845856,0.00617422080990218,0.0043316725287586445
1773790589966498300,6.996498291015625,0.03561608778238296,0.007270993937508319,-0.004649378442112356
1773790589986461200,7.016461181640625,0.04010521589517593,0.000011655314392828585,-0.005073850931879132
1773790590006424000,7.036424072265625,0.040104631373286244,0.004817494129945407,0.012768076962605119
1773790590026387200,7.05638720703125,0.04279752371907234,0.005348101866818615,-0.003962382558640092
1773790590046350300,7.076350341796875,0.044891281127929686,0.006094839426514226,-0.0031447825654409823
1773790590066313200,7.096313232421875,0.03366787632405758,0.014557172886061016,-0.0008633022984489798
1773790590086276400,7.1162763671875,0.04833353053629398,-0.002420259977075329,-0.010512132995668798
1773790590106239200,7.1362392578125,0.04025426897704601,0.008801417804358062,-0.008640457372274249
1773790590126202400,7.156202392578125,0.036214638197422024,-0.0000808902268950078,-0.0013534969681873916
1773790590146165200,7.176165283203125,0.034867315241694445,0.015544100422534393,-0.006839454098604619
1773790590166128000,7.196128173828125,0.032770050701498986,0.0033538752927008315,-0.0013378610076382755
1773790590186091300,7.21609130859375,0.04728431374430656,0.00541785233875853,0.0015617876903153956
1773790590206053400,7.236053466796875,0.04563830010294914,0.0015443475036307063,-0.013271149380225687
1773790590226016300,7.256016357421875,0.027382512444257736,-0.0006316825028443417,0.006953837725892663
1773790590245979400,7.2759794921875,0.04234510377645492,-0.004127406673665973,-0.0021126813050359487
1773790590265942300,7.2959423828125,0.04772913490235805,0.011786728641903027,0.011059957870468496
1773790590285905400,7.315905517578125,0.03456161029338836,0.008699429009406593,-0.006029854748770594
1773790590305868000,7.335867919921875,0.03560907351970673,0.006113986514156567,-0.0072247818880714475
1773790590325831200,7.3558310546875,0.03590834872722626,0.0034704580123521736,-0.0018311792162247
1773790590345794300,7.375794189453125,0.0332137028157711,-0.015368272356525993,-0.0023648659678176046
1773790590365757200,7.395757080078125,0.039347675526142115,0.01239797414173372,0.006384641269501298
1773790590385720300,7.41572021484375,0.049073535248637196,0.004638858760564472,-0.009610526247136294
1773790590405683200,7.43568310546875,0.04293605540692806,0.007744661022486979,-0.007976422239281236
1773790590425646300,7.455646240234375,0.03216097889244556,0.011501120058487867,-0.006112966454960405
1773790590445609200,7.475609130859375,0.0403898780554533,0.0019921597697895774,-0.002458864394202828
1773790590465572400,7.495572265625,0.042784664237499236,0.005976851057299063,-0.0018790186796337365
1773790590485535500,7.515535400390625,0.04293254827558994,0.010157370449468725,-0.008385496230516582
1773790590505498000,7.535498046875,0.04667407289147377,0.0035502775017463135,-0.007496091376431286
1773790590525461200,7.555461181640625,0.04098901299238205,0.002146071547162137,-0.004445197639521211
1773790590545424100,7.575424072265625,0.038894671061635015,-0.004257012700849736,-0.010298508511297403
1773790590565387300,7.59538720703125,0.05086626388430595,0.002597328439632838,0.006425210741907357
1773790590585350400,7.615350341796875,0.03725099550783634,0.015444165445707038,-0.004452869489323347
1773790590605313300,7.635313232421875,0.05176408950686454,0.003663363935680536,-0.007352335524186492
1773790590625276400,7.6552763671875,0.04458031548261642,0.0005660869740389898,-0.006691113402787595
1773790590645239300,7.6752392578125,0.04966857853233814,0.0031678443514421813,-0.004329644968453794
1773790590665202400,7.695202392578125,0.043082185879349706,-0.0039582794889691285,-0.002984587035048753
1773790590685165000,7.7151650390625,0.03440086677372455,-0.004114811197340896,-0.0019469328166916964
1773790590705128200,7.735128173828125,0.045322658282518385,0.002745096315414412,-0.0027627427116036414
1773790590725091300,7.75509130859375,0.04023614879846572,0.009825681676535167,0.0027278905939310785
1773790590745054200,7.77505419921875,0.032304186755418775,0.004258672366273822,-0.0026045930078253147
1773790590765017000,7.79501708984375,0.04771685994267463,0.012466496775212,-0.005882336036860942
1773790590784980000,7.81497998046875,0.03439969772994518,0.009225117400923044,-0.006686108434107154
1773790590804943000,7.834943115234375,0.022577157989144322,0.005062857467940193,0.013127521392144263
1773790590824906000,7.854906005859375,0.04442307909429073,-0.0120275299692119,0.002132829043921083
1773790590844869000,7.874869140625,0.04681611171066761,0.001445049278920487,-0.0019990648627281186
1773790590864832300,7.894832275390625,0.048911038163304325,0.00894918425308424,0.0007002937564626336
1773790590884795100,7.914795166015625,0.03439619059860706,-0.0014421502158860676,-0.0013908150375820695
1773790590904758300,7.93475830078125,0.04427227244675159,-0.0009308335565445303,-0.007830456163641066
1773790590924721200,7.95472119140625,0.051905543804168695,0.0049054298541916065,-0.007015084660146385
1773790590944683000,7.97468310546875,0.03379880922734737,0.0034502654639276442,-0.007437894915789365
1773790590964646100,7.994646240234375,0.03230184866786003,0.004004870278907765,0.0038276137304492294
1773790590984609000,8.014609130859375,0.033797640183568,0.004831565466959727,-0.005865567565150559
1773790591004572200,8.034572265625,0.038735681107640266,0.00333504329888965,-0.0018350151411257684
1773790591024535300,8.054535400390625,0.04112754468023777,-0.004457043340941891,-0.003505615234468132
1773790591044498200,8.074498291015624,0.05130290173590183,-0.00045563049616812346,0.004442256763763725
1773790591064461300,8.09446142578125,0.043373277780413624,-0.0031103525707541846,0.0024266791576519607
1773790591084424200,8.114424072265624,0.033497195932269096,0.0019488053987806778,0.004364533618744462
1773790591104387000,8.134386962890625,0.0396317531645298,0.017034948618354973,0.0036460648847743866
1773790591124350000,8.154349853515624,0.043972412717342375,-0.004310512151365401,-0.011977145780622958
1773790591144313000,8.17431298828125,0.03873626562952995,0.006181022155913524,-0.008745324252545834
1773790591164276200,8.194276123046874,0.03469488128423691,0.005394076454237801,-0.006006181612238287
1773790591184239000,8.214239013671875,0.04217442338466644,-0.002532185644151468,0.0034198001145385203
1773790591204202200,8.2342021484375,0.03439268346726894,-0.000489380570312096,0.002400193009525537
1773790591224165000,8.2541650390625,0.04621346964240074,0.004755067591702391,0.0018456096003763376
1773790591244128300,8.274128173828124,0.03229834153652191,0.004082011756148131,-0.0022568207497708497
1773790591264091100,8.294091064453125,0.04426934983730316,-0.0070858803074574095,-0.010792265111301094
1773790591284054000,8.314053955078125,0.04486731573045254,0.002561931186799484,0.011371836831234395
1773790591304017200,8.33401708984375,0.0299023863106966,0.011064011849433881,0.0009576477847062051
1773790591323980000,8.35397998046875,0.04471709360480308,0.007069010800225078,0.0021398798392154275
1773790591343943200,8.373943115234376,0.04022738097012043,0.005142404389753937,-0.009664758918713778
1773790591363906000,8.393906005859375,0.04516775998175144,0.010891726305737393,-0.006200096749141812
1773790591383869200,8.413869140625,0.052801615861058235,-0.00029339295653517183,-0.013349493579752743
1773790591403832300,8.433832275390625,0.037089082944393156,-0.003220739586703712,0.0028465850701555606
1773790591423795200,8.453795166015626,0.034842765322327614,0.008439170067201485,-0.00291287350570783
1773790591443758300,8.47375830078125,0.043073418051004404,0.0024997121424108625,0.005149911842774599
1773790591463721000,8.493720947265626,0.053548634836077684,0.0048438912298151985,-0.001907550654374063
1773790591483684000,8.51368408203125,0.05145546194911003,0.002929780116380425,-0.0032154914477840065
1773790591503647000,8.53364697265625,0.04906242933273315,-0.0028877567599382018,-0.00044071123851463197
1773790591523609000,8.553609130859375,0.04412497293055057,-0.004257948849188687,-0.0013634338403120637
1773790591543572200,8.573572265625,0.038889410364627834,-0.011927383788186125,0.002264492599572986
1773790591563535000,8.59353515625,0.035597967603802676,0.003398066917109827,0.005690905117988586
1773790591583498200,8.613498291015626,0.05430208355188369,-0.004011400484394107,-0.008514712100755422
1773790591603461000,8.633461181640625,0.05205927306115627,0.0031818012386138433,0.004269293083343654
1773790591623424000,8.653424072265626,0.03634615562260151,0.008902581761291366,-0.005389602350164204
1773790591643387100,8.67338720703125,0.0472697006970644,0.0046514979047846275,-0.0012017587388865648
1773790591663350000,8.69335009765625,0.03963642933964729,0.002836940173564653,-0.0021580730830319224
1773790591683313200,8.713313232421875,0.031556583258509636,0.004163788023899542,-0.0009871113412082194
1773790591703276000,8.733276123046876,0.034248891082406044,0.0016798849438571777,-0.0024263320977799593
1773790591723239200,8.7532392578125,0.06297931100428104,0.0014783850075305962,-0.000930522315762937
1773790591745698800,8.77569873046875,0.04427344149053097,-0.0006443179367204721,0.011124346609879284
1773790591765661700,8.79566162109375,0.04277531188726425,-0.00167849727519133,0.004326649293769151
1773790591785624800,8.815624755859375,0.05519523299932479,0.012155031089688418,-0.0026943901831284166
1773790591805587500,8.83558740234375,0.031851182290911675,0.0074963802124431815,-0.0011895020455121993
1773790591825550600,8.855550537109375,0.039483284604549404,0.001964101720145845,-0.00375977265862748
1773790591845513500,8.875513427734376,0.05489478874802589,0.0022649618153867774,0.002305975387431681
1773790591865476600,8.8954765625,0.042027708390355106,-0.0007941444826145015,-0.00048542716307565565
1773790591885439700,8.915439697265626,0.04112988276779651,-0.0038480397451363386,-0.001998188079893589
1773790591905402600,8.935402587890625,0.04127952037155628,0.0020109870543179565,-0.006031626580748707
1773790591925365800,8.95536572265625,0.039784897899627684,-0.0063614755938673625,-0.004641450863983482
1773790591945328600,8.97532861328125,0.03349953401982784,0.006184608631531591,-0.01134668412366882
1773790591965291800,8.995291748046874,0.03170329825282096,0.0019586871865671126,-0.010857950758654623
1773790591985254400,9.01525439453125,0.050260699206590646,0.0014813629867283453,-0.007839972910657524
1773790592005217500,9.035217529296874,0.041734278401732446,0.007037154928059316,0.0006674509327858686
1773790592025179600,9.0551796875,0.052657238954305643,0.011690731196320848,-0.01934310797136277
1773790592045142500,9.075142578125,0.03604746493697166,0.010039421466982458,-0.006317457784805447
1773790592065105700,9.095105712890625,0.04158230271041393,0.01612746468488476,-0.005173000457417219
1773790592085068800,9.11506884765625,0.04038520188033581,0.000878311210857646,0.0024549554040655492
1773790592105031700,9.13503173828125,0.048314241313934324,0.004223160949008888,-0.0023882468434050677
1773790592124994800,9.154994873046874,0.03334989641606807,0.002059479395570088,-0.004609941480867565
1773790592144957400,9.17495751953125,0.04936170454025268,-0.004059892112118541,-0.005244257329031825
1773790592164920600,9.194920654296874,0.02586684718430042,0.00380887877640489,-0.0051539486970752476
1773790592184882700,9.214882568359375,0.03708849842250347,0.002570439576474018,-0.0013281067986041306
1773790592204845600,9.234845458984376,0.02990413987636566,0.005940729431147338,-0.012770287186000496
1773790592224808700,9.25480859375,0.05100128844082355,0.004964089822425739,0.001845956660248339
1773790592244771800,9.274771728515624,0.038431145203113554,0.00876447533594328,-0.0006424260893836617
1773790592264734700,9.294734619140625,0.033192660027742384,-0.0005670343247627897,-0.015101177818980066
1773790592284697600,9.314697509765624,0.030497429594397545,0.008392848419910297,-0.00019157704934477806
1773790592304660500,9.334660400390625,0.041570027750730515,-0.009166337560035754,-0.001037928212992847
1773790592324623600,9.35462353515625,0.04231821576952934,0.0018383022205220186,-0.0002982522942125797
1773790592344586500,9.37458642578125,0.03722995271980762,-0.0034538559353008164,0.007370601833239197
1773790592364549600,9.394549560546874,0.0411176078081131,0.010073239254904911,0.0021359525827690956
1773790592384512800,9.4145126953125,0.046503392499685284,0.0008148490585146646,-0.014561956375744194
1773790592404475600,9.4344755859375,0.04096738568246364,0.0013932651489893032,-0.0045682760299183426
1773790592424438800,9.454438720703125,0.03408347138762474,-0.00579728125204565,0.0043136619480326766
1773790592444401700,9.474401611328124,0.02779576942026615,0.009191791661700699,0.008042528011742978
1773790592464364500,9.494364501953125,0.04231003246307373,0.002131664852130052,0.00136266665533185
1773790592484327700,9.51432763671875,0.035277065086364745,-0.0035556258199547297,-0.003868292800709605
1773790592504290600,9.53429052734375,0.038869536620378495,-0.0031424576067918676,0.004424447112437337
1773790592524253700,9.554253662109375,0.03871989901661873,0.005586350477437372,-0.0005006977974437176
1773790592544216600,9.574216552734375,0.04036532813608646,0.0032596394042979223,-0.002133395299501717
1773790592564179700,9.5941796875,0.04171089752614498,0.004808836470276583,0.0007814327012747526
1773790592584142600,9.614142578125,0.04066343429982662,-0.007381934936362086,-0.0023555318838916718
1773790592604105700,9.634105712890625,0.035276480564475056,0.0003619811632088385,-0.010140084812883287
1773790592624068900,9.65406884765625,0.04724748886525631,-0.0012124225530293186,-0.0050582332376390695
1773790592644030500,9.674030517578124,0.041858197042346,0.00030985025881673207,-0.017496621588151903
1773790592663993600,9.69399365234375,0.04350362616181373,-0.0002330732515241834,-0.005204491574224084
1773790592683956700,9.713956787109375,0.04859072016775608,-0.00495907343730214,-0.002775309932231903
1773790592703919600,9.733919677734375,0.04769172550141811,0.010161497493670322,-0.0025505429993383584
1773790592723882800,9.7538828125,0.04185644347667694,0.002181280428683385,-0.0025840799427591264
1773790592743845000,9.77384521484375,0.038863691401481625,-0.0019334351559460628,0.00099670115346089
1773790592763808300,9.793808349609375,0.037217093238234515,-0.006080412467295537,-0.01259290305878967
1773790592783771400,9.813771484375,0.040358313873410226,-0.000899676227994496,-0.0026514278242364526
1773790592803734300,9.833734375,0.04649345562756061,0.003235861807310721,-0.004892229020968079
1773790592823697400,9.853697509765626,0.03706745563447475,-0.0015309498794682439,0.002229969275463372
1773790592843660300,9.873660400390625,0.04948679222464561,-0.0030567994629556775,-0.012408559467829762
1773790592863623400,9.89362353515625,0.042751931011676784,0.0016732909489946904,-0.004262333619594574
1773790592883586000,9.9135859375,0.043649172112345695,0.0006082030177291017,0.004916760674025863
1773790592903549200,9.933549072265626,0.032575989434123036,-0.0032195077524869702,-0.00003371960651129484
1773790592923512300,9.95351220703125,0.04125613949596882,-0.006503098283708095,-0.004278554102033376
1773790592943475200,9.97347509765625,0.03721475515067577,-0.0016849328669050008,0.001160531679354608
1773790592963438300,9.993438232421875,0.033173955327272416,0.003778349209523003,-0.0046277328658849
1773790592983401200,10.013401123046876,0.03691489542126655,0.001592221073663677,0.007632029248401522
1773790593003364400,10.0333642578125,0.04290039957165718,0.007280687068571569,0.005536737469583749
1773790593023326200,10.053326171875,0.04065642003715038,0.001802035890953266,0.0016062844191677868
1773790593043289000,10.0732890625,0.041706221351027487,-0.006707031349482713,-0.0051072600111365316
1773790593063252200,10.093252197265626,0.05038578689098358,0.002087943014357006,0.0005504186906851828
1773790593083215400,10.11321533203125,0.039461072772741315,-0.006144132203137269,-0.01841243952512741
1773790593103178200,10.13317822265625,0.05128068990409374,-0.004269901294352894,0.0029543197609484192
1773790593123141400,10.153141357421875,0.05008125098645687,-0.0071848249078408115,0.009974062329903244
1773790593143104300,10.173104248046876,0.03931026612520218,0.010838290501892334,0.004875789342820644
1773790593163067400,10.1930673828125,0.04454699773490429,-0.007991455411631614,-0.003919858591165394
1773790593183030300,10.2130302734375,0.045294016709923744,0.00003316733607352944,-0.0019086648992262779
1773790593202993200,10.2329931640625,0.040056700578331945,0.0027002836364976245,0.002563913937564939
1773790593222956300,10.252956298828124,0.047536827200651166,-0.006289918469797703,-0.00406869247732684
1773790593242919200,10.272919189453125,0.051126376125216484,-0.00541555306710652,-0.004872811934445053
1773790593262882300,10.29288232421875,0.044991818892955775,-0.0012313724216161063,-0.0011606960761360824
1773790593282845200,10.31284521484375,0.03197510093152523,0.002840095678453508,-0.0008030965438112616
1773790593302808300,10.332808349609374,0.030929975792765615,-0.01149243328688899,0.0026720687534660097
1773790593322771200,10.352771240234375,0.03930792803764343,-0.006657007920497562,0.00035758126601576805
1773790593342734300,10.372734375,0.036463644522428514,-0.005396977943266393,0.0014675335356034338
1773790593362697500,10.392697509765625,0.0408037195533514,-0.0009165197628186433,-0.0005060132933780551
1773790593382660000,10.41266015625,0.03915887495577335,0.005976789979328169,-0.0016099194146692753
1773790593402622200,10.432622314453125,0.04394903184175491,0.009432997131097362,-0.004121189849544316
1773790593422585300,10.45258544921875,0.047690556457638734,-0.0021665221072020356,-0.00039698169464245437
1773790593442548200,10.47254833984375,0.04230477176606655,0.012925677535467547,0.0029889526829123495
1773790593462511400,10.492511474609374,0.03661737377941608,-0.002200029653281672,-0.007423902923054993
1773790593482474200,10.51247412109375,0.03931143516898155,0.006543909213886945,0.0018286767318844795
1773790593502437400,10.532437255859374,0.046941199395060536,-0.003419231575669255,-0.010662117659300564
1773790593522400300,10.552400146484375,0.03856324715018272,-0.008293381517252419,0.002268730383273214
1773790593542363100,10.572363037109374,0.03796352769136429,0.015169347684364764,-0.0032048056569881737
1773790593562326300,10.592326171875,0.03990940106213092,-0.009673288143397076,-0.008181680754106491
1773790593582289200,10.6122890625,0.03706453302502632,0.000488292119486141,0.005389017828274518
1773790593602252300,10.632252197265625,0.04260346245169639,-0.005991160427153227,0.003907967223972082
1773790593622215200,10.652215087890625,0.0442500606149435,0.004526159914875461,-0.005237955452408642
1773790593642178300,10.67217822265625,0.051283027991652484,0.002116999289249361,-0.002413125556334853
1773790593662141400,10.692141357421875,0.0393137732565403,0.0013564937845163513,-0.0014672595409676431
1773790593682104300,10.712104248046876,0.036921909683942794,-0.007560352251678705,-0.01430155187388882
1773790593702067500,10.7320673828125,0.04290741383433342,-0.005673945991677465,0.006030859395768493
1773790593722030000,10.752030029296876,0.019863222855329512,0.003909295812544587,0.0032121487132273615
1773790593741993200,10.7719931640625,0.033927988564968106,0.00026702803676453184,0.0004237053047865629
1773790593761955300,10.791955322265625,0.03916588921844959,-0.0069829074151057284,-0.003641260845493525
1773790593781918200,10.811918212890625,0.028992870250344274,-0.007493673944592592,-0.003172748284600675
1773790593801881300,10.83188134765625,0.05413315672576427,-0.003881955143647792,0.003349365226831287
1773790593821844200,10.85184423828125,0.03977028485238552,0.005341415256061009,0.003951441039517522
1773790593841807400,10.871807373046876,0.048001522102952,-0.0030550752946277497,-0.00748693995559588
1773790593861770200,10.891770263671875,0.03707739250659942,-0.002133515457565954,0.004947174078598618
1773790593881733000,10.911733154296876,0.03199029850065708,-0.004496876738175342,0.004178089402243495
1773790593901696300,10.9316962890625,0.04336334090828895,-0.0007412456797144841,-0.010666684236563742
1773790593921659100,10.9516591796875,0.03947276321053505,0.006370627585524926,0.0029554340058006346
1773790593941622300,10.971622314453125,0.035732407638430594,0.0021645367877368695,-0.007858367083873599
1773790593961585400,10.99158544921875,0.033338205978274346,-0.009325346921983873,-0.010383757375646382
1773790593981548300,11.01154833984375,0.0322901582300663,-0.009513662293518427,0.0027929734530858694
1773790594001511400,11.031511474609376,0.03199146754443645,-0.0037429245572260694,-0.004870455580577254
1773790594021474300,11.051474365234375,0.04575695804655552,0.004281382811236835,-0.0037559002011083066
1773790594041437200,11.071437255859376,0.03617898236215114,-0.007189716282911831,-0.012516129761841147
1773790594061400000,11.091400146484375,0.04665595271289348,0.0020844986734562553,0.0035285577186383306
1773790594081363200,11.11136328125,0.03917465704679489,-0.0007766854587986017,0.00798785694874823
1773790594101325300,11.1313251953125,0.036329204487800595,0.0021558674262138083,-0.008814699694328009
1773790594121288200,11.1512880859375,0.04395779967010021,0.009340623264573513,-0.006555212063435465
1773790594141251300,11.171251220703125,0.0448556252926588,0.0024585846913454585,0.00557562644155696
1773790594161214500,11.19121435546875,0.04290858287811279,0.008973778696579393,-0.013172547843959182
1773790594181177300,11.21117724609375,0.0433569111675024,-0.009820579668087885,-0.0032591296601109203
1773790594201140200,11.23114013671875,0.03243453513681888,-0.003923207319354696,0.0020668146030046043
1773790594221103000,11.25110302734375,0.05278758733570575,0.007519440285977907,0.005810659040138125
1773790594241066200,11.271066162109374,0.027197803527116773,0.0023338215193492943,0.001405245421733707
1773790594261029000,11.291029052734375,0.03931728038787841,0.009393115499391569,-0.010802329847589134
1773790594280992300,11.3109921875,0.045750528305768964,-0.006428840600009425,0.00919180764472112
1773790594300955400,11.330955322265625,0.030188802036643026,0.0015585554098463035,-0.003556815698742866
1773790594320918300,11.350918212890624,0.035275311520695685,-0.00501881739681412,-0.005762435984238982
1773790594340881400,11.37088134765625,0.040811902859807014,0.002545006880639994,0.0006691862321458757
1773790594360844300,11.39084423828125,0.03737140701711177,0.0018819130333853535,0.004203242109809071
1773790594380807200,11.41080712890625,0.046049218991398806,-0.010354360034514684,0.009812496826332062
1773790594400770300,11.430770263671874,0.03288110986053944,0.0042745186747881235,0.006953929057437926
1773790594420733200,11.450733154296875,0.030336101552844046,-0.008221097165753598,0.0055363721434026954
1773790594440696300,11.4706962890625,0.059065352430939674,0.007976397123106289,-0.006513473547250032
1773790594460658400,11.490658447265625,0.034223756641149516,-0.005322106054925825,-0.013770550269726662
1773790594480621300,11.510621337890624,0.043051790741086005,-0.00865723497713916,-0.005493902974855154
1773790594500584400,11.53058447265625,0.060707858940958974,0.0037772757784550774,0.006829681623261421
1773790594520547000,11.550547119140624,0.0379629431694746,-0.008525356792355887,-0.015307769774366169
1773790594540510200,11.57051025390625,0.04020750722587108,-0.005505748676275834,0.008627068167738616
1773790594560473000,11.59047314453125,0.03212532305717468,0.0004484490182760055,0.010229589727241545
1773790594580436200,11.610436279296875,0.03556698794364929,0.00566406962670153,0.0060298730150796466
1773790594600399400,11.6303994140625,0.04469312820732593,0.004833223705328418,-0.0015038652243092655
1773790594620362200,11.6503623046875,0.05516600690484046,-0.0045452981547743545,-0.006796217745076864
1773790594640325400,11.670325439453125,0.041247956189513206,0.0029796037576103117,0.007951835787296295
1773790594660288300,11.690288330078126,0.03661094403862953,0.007559243715048069,-0.005590038559399545
1773790594680251400,11.71025146484375,0.03212240044772625,-0.010884875298198312,-0.0008566716282628476
1773790594700214300,11.73021435546875,0.04289338530898094,-0.004933158111333614,-0.005927654749620706
1773790594720177200,11.75017724609375,0.045588031220436094,-0.0021458757551619783,-0.006140585114248097
1773790594740140300,11.770140380859376,0.040498599126935,-0.008980292348223156,0.006076671298872679
1773790594760104000,11.79010400390625,0.04304243839085102,-0.00023980467182118444,0.003827814659848809
1773790594780066000,11.810066162109376,0.03780395321547985,-0.002615315902061411,0.0011884791322052477
1773790594800029000,11.83002880859375,0.04932487966120243,0.0008487834368628682,0.006195146579388529
1773790594819992000,11.849991943359376,0.03989829514622688,0.01613114877109183,-0.0032645730202086267
1773790594839955200,11.869955078125,0.0397492420643568,0.004048072668517124,-0.015984646122623233
1773790594859918000,11.88991796875,0.042591772013902664,-0.004163989809532359,0.0024382782639004287
1773790594879881000,11.909880859375,0.04109481145441532,-0.0013312152106649592,-0.017740275884605944
1773790594899843800,11.92984375,0.043937925925850864,0.00018590022298449184,-0.008464242288842797
1773790594919807000,11.949806884765625,0.050668695485591886,-0.009862737167737213,0.006519793690182268
1773790594939769900,11.969769775390626,0.03779986156225204,0.0027452036299800966,0.006670563805103302
1773790594959733000,11.98973291015625,0.03525368421077728,-0.003386731530698307,0.00964188949977979
1773790594979696000,12.009696044921874,0.04423077139258384,-0.0029535109059506794,-0.0051052872497588395
1773790594999659000,12.029658935546875,0.02597498373389244,-0.004200947404734324,0.0047855720424093305
1773790595019622100,12.0496220703125,0.036599253600835796,0.0032683641355703,-0.0049365796193480485
1773790595039585000,12.0695849609375,0.033605332481861115,-0.00041668276518903435,-0.002315839194320142
1773790595059548000,12.0895478515625,0.052907414323091505,-0.006766001844970742,-0.009612718204222619
1773790595079511000,12.109510986328125,0.043477322676777834,-0.00818098320942954,0.01286496146582067
1773790595099473000,12.129472900390626,0.038539866274595255,0.0004474141177037381,-0.002442315118201077
1773790595119436000,12.14943603515625,0.04317863199114799,-0.0005865831284987507,0.003693995679728687
1773790595139399200,12.169399169921874,0.033601825350522994,-0.00486789144744398,0.005811590621899813
1773790595159362000,12.189362060546875,0.03060731970965862,0.0030319238895477607,-0.0033794498378410935
1773790595179325200,12.2093251953125,0.044672669941186904,0.010974900802364572,-0.0016916976802982388
1773790595199288000,12.2292880859375,0.04871522333025932,-0.0038891449341375843,-0.007654003618191927
1773790595219251000,12.2492509765625,0.03464811953306198,0.008937146184596349,0.0001800144757144153
1773790595239213800,12.2692138671875,0.034947979262471195,0.0012599880218025646,-0.0001432443955913186
1773790595259177000,12.289177001953124,0.05051029005348682,0.00870070080117439,0.002699943141080439
1773790595279140000,12.30914013671875,0.03988485114276409,-0.00017989774258312535,-0.0027839681627228855
1773790595299103000,12.32910302734375,0.041079613885283466,0.00680052402743604,-0.004592478889413177
1773790595319066000,12.349066162109375,0.04003215065896511,-0.007893707825313321,0.009906349122244864
1773790595339029000,12.369029052734374,0.04317629390358925,0.003500736702895665,0.006231989724747836
1773790595358992100,12.3889921875,0.03434884432554245,-0.004153714725279133,-0.00851644740011543
1773790595378955000,12.408955078125,0.03569616728127002,0.0028333671122672964,0.005075019975658505
1773790595398918000,12.42891796875,0.03434942884743213,-0.00981082545905374,0.005825436484161764
1773790595418880000,12.4488798828125,0.044373979255557056,-0.0025890809156844624,0.0013791428660973905
1773790595438843100,12.468843017578125,0.03180383601784706,-0.002349098147350014,-0.0030520445143803953
1773790595458806000,12.488805908203124,0.042726796570420264,-0.0024731320940394653,0.003710307493712753
1773790595478769200,12.50876904296875,0.062328738141059874,-0.0024972053769044575,0.002968604014627635
1773790595498732000,12.52873193359375,0.029109190106391906,-0.006223935424099909,0.004023300699330866
1773790595518695200,12.548695068359375,0.02716390125751495,-0.006198109717210173,-0.004201342413667589
1773790595538657800,12.56865771484375,0.03958616045713424,-0.005852899879822507,0.00045305926343426107
1773790595558621000,12.588620849609375,0.041080782929062844,-0.0035028861337312264,-0.0007984021023847162
1773790595578584000,12.608583984375,0.03659165481626987,-0.01223281702514505,0.0023561712047085164
1773790595598547000,12.628546875,0.04227729923725128,0.00007712549421994481,0.00206705206502229
1773790595618510000,12.648510009765625,0.035844051319360734,0.004124597087004804,-0.00008168693408370018
1773790595638473000,12.668472900390626,0.0500625462859869,-0.004747141440628911,0.000356156493909657
1773790595658436000,12.68843603515625,0.02671908009946346,-0.0028581185318558707,0.012459431138541548
1773790595678399000,12.70839892578125,0.04123392766416072,-0.0027132198936509664,-0.00098205157360062
1773790595698360800,12.72836083984375,0.033003859457373615,-0.004746672795637278,-0.006836988146882504
1773790595718324000,12.748323974609375,0.054551674398779865,-0.0010610025570815195,0.001851856678072363
1773790595740783000,12.770783203125,0.04317921651303768,-0.00277097853369778,0.013820819152239708
1773790595760749800,12.790749755859375,0.04063479272723198,0.0020481726929720023,0.009056162033695726
1773790595780713000,12.810712890625,0.032254502394795416,-0.00801693120453856,0.0013213299979455769
1773790595800675800,12.83067578125,0.043477322676777834,-0.010894813311967299,-0.0064731598031707105
1773790595820638700,12.850638671875,0.03420212933123112,-0.003639853198052151,-0.0027279453928582367
1773790595840601600,12.8706015625,0.0288175136834383,0.006380322429054649,-0.0018092231127433479
1773790595860564700,12.890564697265624,0.04288461748063564,-0.004794919826067052,0.008444313745666295
1773790595880527600,12.910527587890625,0.04093991315364837,0.0016919379964267136,0.005868124848417937
1773790595900490800,12.93049072265625,0.047824411970376964,0.00011270598096598405,0.008349895194172858
1773790595920454000,12.950453857421875,0.03734977970719337,0.0017240661507617913,-0.000910904299840331
1773790595940416800,12.970416748046874,0.03929448403418064,0.0021678643955063306,0.001058587408531457
1773790595960380000,12.9903798828125,0.0436357281088829,-0.009310965628537815,0.0189230741946958
1773790595980342800,13.0103427734375,0.04034370082616806,0.0021472822609590364,-0.002641783213056624
1773790596000304600,13.0303046875,0.03854863410294056,-0.009511866487009683,0.003623962650820613
1773790596020267800,13.050267822265624,0.03525660682022572,0.002774750526517164,-0.00506539363078773
1773790596040230700,13.070230712890625,0.03645604573786258,-0.00420692562519398,-0.007281681440770626
1773790596060193800,13.09019384765625,0.032417584002017975,0.002609875396074494,0.00983448946243152
1773790596080157000,13.110156982421875,0.03226736187636852,0.005179748716967879,0.006699570703878999
1773790596100119800,13.130119873046874,0.02643207985162735,-0.0021682599752617534,-0.0023055187297053633
1773790596120083000,13.1500830078125,0.04842939212620258,0.005855583314786781,-0.006809424286521971
1773790596140045800,13.1700458984375,0.0355623117685318,-0.004383547704824013,0.0016099194146692753
1773790596160008700,13.1900087890625,0.0396013580262661,0.003485448658451787,-0.0037084443301893767
1773790596179971600,13.2099716796875,0.038702947881817815,0.004966322307885275,-0.00758212569206953
1773790596199933700,13.22993359375,0.0581534982830286,0.0019238362105388658,-0.0023625826791860162
1773790596219896800,13.249896728515624,0.03765314656794071,-0.0058109644299926,0.017554982445575296
1773790596239859700,13.269859619140625,0.03136778268814087,-0.0037785909527068722,-0.002608556796889752
1773790596259822800,13.28982275390625,0.045432548397779465,0.008685661920602434,-0.00032561522517353294
1773790596279786000,13.309785888671875,0.037053427109122274,-0.0005882573498878627,-0.0020027546571567655
1773790596299748600,13.32974853515625,0.04244154988825321,-0.0010130163923779037,0.0013953633485361933
1773790596319711700,13.349711669921875,0.03855155671238899,-0.0036802502821665253,-0.010932897424697875
1773790596339674600,13.369674560546875,0.03481061661839485,-0.015862008406932,-0.018714710407331584
1773790596359637800,13.3896376953125,0.03555880463719368,-0.008739042354698176,-0.005852324491087347
1773790596379600600,13.4096005859375,0.03391279099583626,0.008667071384564042,0.0026703699867241084
1773790596399563800,13.429563720703126,0.039600188982486725,-0.004288142201819573,0.007854841686226428
1773790596419527000,13.44952685546875,0.030622517278790472,0.0028898545313684734,0.0013803667088039219
1773790596439489800,13.46948974609375,0.04049976817071438,-0.006880751369261998,0.01388266887469217
1773790596459453000,13.489452880859375,0.028830373165011403,-0.003226157259804313,0.0026895313449203967
1773790596479414800,13.509414794921875,0.04603986664116382,-0.010140680751216132,-0.005155062941927462
1773790596499377700,13.529377685546875,0.0331745398491621,0.0004798079897533171,-0.0054952181491069495
1773790596519340800,13.5493408203125,0.04200374299287796,-0.008325404069488285,-0.00822345580291003
1773790596539303700,13.5693037109375,0.03931143516898155,-0.005552694232185604,0.004275850688293576
1773790596559266800,13.589266845703126,0.03153086429536343,0.004026325485945562,-0.004451188988890499
1773790596579230000,13.60922998046875,0.04529752384126186,0.0006136612192029134,-0.0016093348927795886
1773790596599192800,13.62919287109375,0.04065700455904007,-0.004395163935737218,-0.000006411474477499723
1773790596619156000,13.649156005859375,0.053824529168009755,-0.0019683717552979943,0.00361773383943364
1773790596639118600,13.66911865234375,0.040807811206579205,-0.005917475848901085,0.000976845675520599
1773790596659081700,13.689081787109375,0.04589490521252155,-0.001411333810869837,0.0013047807219438254
1773790596679044600,13.709044677734376,0.03826221837699413,0.003661511332367081,0.0018042546766810117
1773790596699007700,13.7290078125,0.03856324715018272,-0.012668057504098397,-0.008894596530124544
1773790596718971000,13.748970947265626,0.04439911369681358,-0.00685883179839875,0.0012638459233567118
1773790596738932700,13.7689326171875,0.041405777099728584,-0.008913024381847936,-0.006035261576250195
1773790596758894000,13.78889404296875,0.03571721006929874,-0.008050291763912537,-0.002464526950009167
1773790596778857200,13.808857177734374,0.05337503183484077,-0.004450742035140866,0.0009595474808476865
1773790596798820400,13.8288203125,0.04454699773490429,-0.009005409664814942,-0.006253580502048135
1773790596818783200,13.848783203125,0.04709142152070999,-0.017895870588405523,0.007777282937988638
1773790596838746400,13.868746337890625,0.042152796074748033,-0.0050154284256626845,0.006140037124976515
1773790596858709200,13.888709228515625,0.03796352769136429,-0.0013908059044275432,0.010025025332160294
1773790596878672400,13.90867236328125,0.027786417070031166,-0.0055624415913538535,0.011142959978803992
1773790596898635300,13.92863525390625,0.058012628507614135,-0.00803927318379865,0.0025006759756244718
1773790596918598100,13.94859814453125,0.05232873765230178,-0.007505577299051219,-0.004064619090408087
1773790596938561300,13.968561279296875,0.0406599271684885,-0.0035884301131358367,-0.0016889760002493858
1773790596958524200,13.988524169921876,0.03901625161468982,-0.0027061228617618325,0.0016346885297447442
1773790596978487300,14.0084873046875,0.03782090435028076,-0.008641579608636676,-0.002513645055051893
1773790596998449400,14.028449462890626,0.03916939634978771,-0.000942410828845459,0.002323711973521858
1773790597018412300,14.048412353515625,0.029445874714851376,-0.00034115414595580656,0.009783069802448153
1773790597038375400,14.06837548828125,0.04081774807870388,-0.011458647465007379,0.0018868366599082945
1773790597058338000,14.088338134765625,0.039919922456145285,-0.005588196516296011,0.004573536726925522
1773790597078301200,14.10830126953125,0.046802667707204815,-0.0005388903663842939,-0.009165358029212803
1773790597098264300,14.128264404296875,0.045156069543957705,-0.0008000763237738283,-0.01361431852839887
1773790597118227200,14.148227294921876,0.049497898140549654,0.0007869536931859329,0.0007632942563854158
1773790597138190300,14.1681904296875,0.03288870864510536,-0.0077813791577937075,-0.0016821261343546211
1773790597158153200,14.1881533203125,0.04037175787687301,-0.009579608235775958,0.0014244798451662063
1773790597178116400,14.208116455078125,0.04994856451749801,-0.005735600492951925,0.007980824419762939
1773790597198079200,14.228079345703126,0.027653146079182622,-0.009695688346517272,-0.01149615733064711
1773790597218042400,14.24804248046875,0.03019815438687801,-0.011000738496519625,-0.0010870097854174673
1773790597238005200,14.268005126953126,0.03364098831713199,-0.00851624076249427,-0.003411379346065223
1773790597257967400,14.28796728515625,0.04575988065600395,0.002916538183961529,-0.003314951500575989
1773790597277930200,14.30793017578125,0.037082653203606604,-0.002888115807075519,-0.002647281372081488
1773790597297893400,14.327893310546875,0.03393909448087215,-0.004597056312297354,0.010877294779941439
1773790597317856300,14.347856201171876,0.028104981499910354,-0.002136426935982308,-0.006263791368808597
1773790597337819400,14.3678193359375,0.04396598297655582,0.003556496038334444,0.006919478798564523
1773790597357782300,14.3877822265625,0.024365210449695585,-0.011314498887117951,-0.0027317630514502524
1773790597377745200,14.4077451171875,0.034091070172190666,-0.017715674591244897,-0.008390172405634075
1773790597397708300,14.427708251953124,0.03858195185065269,-0.0030615538407088023,-0.0015946487803012131
1773790597417671200,14.447671142578125,0.03633738779425621,-0.01027386041051941,-0.004448047183733433
1773790597437634300,14.46763427734375,0.0405289942651987,-0.007038918768527218,-0.00020801672749221325
1773790597457597200,14.48759716796875,0.05294891537725925,-0.0037150162056932457,-0.000355407575238496
1773790597477560300,14.507560302734374,0.04217383886277675,-0.010698251843539765,0.0014989515871740877
1773790597497523200,14.527523193359375,0.04771159924566745,-0.0015239667265996104,0.0031068434415385125
1773790597517485300,14.5474853515625,0.03529109361171722,-0.0008238173881429247,-0.0022589396416209636
1773790597537448200,14.5674482421875,0.04412029675543308,-0.004611564899084624,0.008624145558290183
1773790597557411000,14.5874111328125,0.04172609509527683,-0.014574032689316663,-0.0015223872616887092
1773790597577374200,14.607374267578125,0.04382102154791355,0.0037541934428561943,0.0017419665628112852
1773790597597337300,14.62733740234375,0.03753682671189308,-0.0008510672963166143,-0.010984481481462716
1773790597617300200,14.64730029296875,0.04157762653529644,-0.005170821629240527,-0.0005595153125934302
1773790597637263400,14.667263427734374,0.036489948007464405,-0.0037552403306937775,-0.004276599606964737
1773790597657226200,14.687226318359375,0.03828793734014034,0.002432168754344457,-0.004574870167486369
1773790597677189400,14.707189453125,0.041730186748504636,0.0017244919840915826,0.004819273382611572
1773790597697152300,14.72715234375,0.043375031346082685,-0.019663859791751018,0.010256989190820603
1773790597717115100,14.747115234375,0.04621873033940792,0.0019734612056578043,-0.009223280495218932
1773790597737078300,14.767078369140625,0.03394727778732776,-0.0027089718351518965,-0.002709752149041742
1773790597757037000,14.787037109375,0.03948270008265972,-0.0022058474727149587,-0.01148589166495949
1773790597777000200,14.807000244140625,0.02930675850510597,-0.00893468708274013,-0.0005265080921351909
1773790597796963300,14.82696337890625,0.04097849159836769,-0.0010302027059078682,-0.00769040837213397
1773790597816926200,14.84692626953125,0.04352174634039402,-0.012258017681771888,-0.0003344013198278844
1773790597836889300,14.866889404296876,0.04382102154791355,-0.00853948178665305,0.004606781409401447
1773790597856852200,14.886852294921875,0.036488778963685034,-0.0005120514501642901,0.0011826156469993293
1773790597876815400,14.9068154296875,0.04726034834682941,-0.007016807972241077,-0.0006510295209474861
1773790597896778200,14.9267783203125,0.041275428718328476,-0.012859764700895174,0.00786032157894224
1773790597916741400,14.946741455078126,0.04292202688157558,0.008509071807013243,0.003789400611910969
1773790597936704300,14.966704345703125,0.04606500108242035,0.005107131005328847,0.0006131451959721744
1773790597956667100,14.986667236328126,0.03933247795701027,-0.005022542011394398,0.007582344887778162
1773790597976630300,15.00663037109375,0.04546761971116066,0.0028160466555302265,0.00009677490536123514
1773790597996593200,15.02659326171875,0.03544190025925636,0.005187275007119751,-0.009488726498372853
1773790598016555300,15.04655517578125,0.0429255340129137,-0.003296942632316495,0.006287647168431431
1773790598036518400,15.066518310546876,0.041430327019095416,-0.000744534186166129,0.005770801953785121
1773790598056481300,15.086481201171875,0.048912791728973386,0.0030937699016561964,0.005294325282145291
1773790598076444200,15.106444091796876,0.04637070603072643,0.009668252350320108,0.005498031160701066
1773790598096407300,15.1264072265625,0.031107670447230337,0.0006693403541285078,0.006376293566264212
1773790598116370200,15.1463701171875,0.04816986440718174,-0.0057079184724047076,0.001863528849557042
1773790598136333300,15.166333251953125,0.04293547088503837,-0.009601509540330152,-0.008937924215197563
1773790598156296200,15.186296142578126,0.049669747576117515,0.0052402570073492825,-0.007468527516070753
1773790598176259300,15.20625927734375,0.03485504028201103,-0.0030367784465895964,-0.008351612227223812
1773790598196222200,15.22622216796875,0.03859598037600517,-0.007961804625461808,-0.0010106566135771571
1773790598216185300,15.246185302734375,0.043084523966908456,0.003811327603462268,0.003953212871495634
1773790598236148500,15.2661484375,0.04278583328127861,-0.008019983961438992,0.006309621538221836
1773790598256110000,15.286110107421875,0.040241994017362594,0.007176651876184041,-0.015076061644032596
1773790598276073200,15.3060732421875,0.038298458734154696,-0.006164055038092192,-0.0027581944006495177
1773790598296036400,15.326036376953125,0.04099368916749954,0.009297313845809549,0.002834711969271302
1773790598315999200,15.345999267578126,0.043839141726493835,-0.00699102564783534,0.012871263342443854
1773790598335962400,15.36596240234375,0.03590776420533657,-0.0035001912823237943,-0.00024675956899300217
1773790598355925200,15.38592529296875,0.03261573692262173,0.007654605835568509,0.0006291282163932919
1773790598375888400,15.405888427734375,0.026481764212250708,-0.002297142485360382,-0.0077884253865107885
1773790598395851300,15.425851318359374,0.04144669363200664,-0.010020148227643222,-0.0068367872174829245
1773790598415814100,15.445814208984375,0.041300563159584996,-0.001858522168410127,-0.010466595087200402
1773790598435777300,15.46577734375,0.04085106582641601,-0.003400771757905022,-0.0031111177578568455
1773790598455740200,15.485740234375,0.045939913398027415,-0.007350123017502482,-0.007213383711222559
1773790598475702300,15.505702392578126,0.03770984519124031,0.005246606833033729,0.003125493343081325
1773790598495665400,15.52566552734375,0.045344285592436785,-0.004364559305741568,-0.005581526459380984
1773790598515628300,15.545628173828124,0.03367430606484413,-0.004740834426606307,-0.0068764433744363486
1773790598535591400,15.56559130859375,0.042353287082910536,-0.003472612009764998,0.004188355067931115
1773790598555554000,15.585553955078124,0.03771569041013718,-0.008352501568145817,0.0032328079087659716
1773790598575517200,15.60551708984375,0.03936345761716366,-0.003202168458618689,-0.0015199578425846992
1773790598595480300,15.625480224609374,0.04295476010739803,-0.0021488417470944114,-0.013336159174144267
1773790598615443200,15.645443115234375,0.03023439474403858,-0.008687455443822545,0.0013983955558389423
1773790598635406300,15.66540625,0.03696808691322803,0.0014575709764816564,0.0022973719558678565
1773790598655369200,15.685369140625,0.029935704058408737,-0.008127779730202745,-0.003743935768678784
1773790598675332400,15.705332275390624,0.02963525980710983,-0.002150192312319996,-0.009202931826934218
1773790598695295200,15.725295166015625,0.04190554331541061,0.0075626777811499775,-0.00426176736401394
1773790598715258400,15.74525830078125,0.050881461453437804,-0.0008289188257680507,0.0008003931300714611
1773790598735220200,15.76522021484375,0.03831014917194843,0.0019413935584714635,-0.005994783435389399
1773790598755183000,15.78518310546875,0.03920622122883796,-0.012272235720080788,-0.012150419988296926
1773790598775146200,15.805146240234375,0.029479192462563513,-0.0038696759027981894,-0.002699961407389492
1773790598795109000,15.825109130859374,0.042647301593422886,-0.007532525813125539,-0.0015119754655286669
1773790598815072000,15.845072021484375,0.033220132556557654,-0.01286533592515625,-0.0043666159779764705
1773790598835035100,15.86503515625,0.036812019568681714,0.012686659456579945,-0.006327851314656436
1773790598854998000,15.884998046875,0.04848433718383312,-0.003307824215112487,-0.0009890475699678063
1773790598874961200,15.904961181640624,0.03367021441161632,-0.015536543878808151,-0.01025952820777893
1773790598894924300,15.92492431640625,0.04683656997680664,-0.010390173416701145,-0.00955980070689693
1773790598914887200,15.94488720703125,0.03441664886474609,0.007301605988192022,0.004645031060557812
1773790598934850300,15.964850341796875,0.031573534393310544,-0.004845414754154626,-0.0014857267794199287
1773790598954812200,15.984812255859374,0.04025309993326664,0.005711966743148514,-0.0077931746268644925
1773790598974775000,16.004775146484373,0.036059155374765395,-0.010308943140343762,-0.007429273217916488
1773790598994738200,16.02473828125,0.029774960538744923,0.000010654966399306431,0.007981208012253046
1773790599014701000,16.044701171875,0.023338790011405944,-0.008383506915296312,-0.0009029767217114568
1773790599034664200,16.064664306640626,0.04713058448731899,-0.017146924517781006,0.0015235928380861877
1773790599054627000,16.084626953125,0.03425999699831009,-0.007551107216009404,0.004768109450954944
1773790599074590200,16.104590087890625,0.039048400318622584,0.003260890646468033,-0.01978427586760372
1773790599094553300,16.12455322265625,0.04503331994712353,-0.006359517103043617,-0.006868789790943264
1773790599114516200,16.14451611328125,0.0438362191170454,-0.0038490760727640004,-0.007635317184031009
1773790599134479000,16.16447900390625,0.046231005299091334,-0.002459911852862569,-0.01468797564189881
1773790599154442000,16.18444189453125,0.036353169885277745,-0.005492957693361677,-0.005012841459643096
1773790599174404000,16.204404052734375,0.03710135790407657,0.008114752997737378,0.00756767704160884
1773790599194367200,16.2243671875,0.030218028131127356,-0.00933956838522572,-0.003818206581287086
1773790599214330000,16.244330078125,0.049370472368597984,-0.0006711116152844624,0.0008908113598823546
1773790599234293200,16.264293212890625,0.04173661648929119,-0.009046883319519111,-0.005716660613752901
1773790599254256000,16.284256103515624,0.041888007658720014,0.0006798920017172349,0.007960092158988118
1773790599274219000,16.304218994140626,0.06717617817223072,-0.01298464688931126,0.009779416540637612
1773790599294182100,16.32418212890625,0.04368307438194752,0.001778303388916538,-0.004712926931306719
1773790599314145000,16.34414501953125,0.03859422681033611,0.003736245652567595,0.0035869185760617254
1773790599334108200,16.364108154296876,0.032009003201127054,-0.007529322929997579,-0.01416694744247943
1773790599354071000,16.384071044921875,0.033656185886263845,-0.0164376117712236,0.001478566386271268
1773790599374034200,16.4040341796875,0.04218260669112205,0.0035396801883849547,0.0006076287706382572
1773790599393996300,16.423996337890625,0.032307693886756896,0.007025929139502113,-0.004255739482026547
1773790599413959000,16.443958984375,0.04293079470992088,-0.014675744064699393,0.0015055822573602198
1773790599433922000,16.463922119140626,0.03844283564090729,-0.01692692737483885,-0.010089249674789608
1773790599453885200,16.48388525390625,0.04038520188033581,0.006151295450396719,0.0036884792543947693
1773790599473848000,16.50384814453125,0.032303017711639403,0.003176184063169057,0.0018557108692824839
1773790599493811200,16.523811279296876,0.03365034066736698,0.0002417523170239292,-0.000714358814433217
1773790599513774000,16.543774169921875,0.04592062417566776,0.004579423615839914,-0.0055109271748922765
1773790599533737200,16.5637373046875,0.05280687655806541,-0.002158003442728659,0.00523402819596231
1773790599553700000,16.5837001953125,0.03036240503787994,-0.0025535597944428444,0.006670107147376984
1773790599573663200,16.603663330078124,0.03904080153405666,-0.002380086940657929,-0.005260678740870208
1773790599593625000,16.623625,0.0498141244828701,0.003507783787845983,-0.004310556675493717
1773790599613588000,16.643587890625,0.05100830270349979,-0.001832903669963707,-0.00012218334125354885
1773790599633551000,16.663551025390625,0.036194764453172684,0.004009219658339861,0.008379925006255506
1773790599653514200,16.68351416015625,0.044423663616180414,0.013174686143762665,-0.00485881994171068
1773790599673477000,16.70347705078125,0.04516834450364113,-0.005421616340067703,-0.004826652971468865
1773790599693440300,16.723440185546874,0.039333062478899956,-0.006775902184477309,-0.0018490254001691936
1773790599713403100,16.743403076171877,0.05235036496222019,-0.0007114287842967315,-0.0010381474087014795
1773790599734614000,16.764614013671874,0.026761750197410582,-0.007439185544688371,0.007386073397006839
1773790599754578000,16.784577880859374,0.04860884034633636,0.004899068041241844,-0.001756817072071135
1773790599774540800,16.804540771484376,0.03783551739752292,-0.0007406152066410868,-0.001023643959313631
1773790599794504000,16.82450390625,0.038733343020081516,-0.010837638622988015,-0.008199179878178984
1773790599814466000,16.844466064453126,0.04083236112594604,0.005747669385836343,-0.006337861252017319
1773790599834428700,16.8644287109375,0.0454699577987194,0.004342581796429295,0.0062942595723085104
1773790599854391800,16.884391845703124,0.0405336704403162,-0.0022337678115130983,-0.003967040467448532
1773790599874355000,16.90435498046875,0.04547288040816783,-0.0075829339762451126,-0.01375568149415776
1773790599894317800,16.92431787109375,0.04098316777348518,-0.0013643585722078568,-0.007585870285425335
1773790599914281000,16.944281005859374,0.038439328509569166,0.0029699340302555355,-0.0007201492344029247
1773790599934243800,16.964243896484376,0.037840193572640415,-0.0008293680628063156,0.000520169682893902
1773790599954207000,16.98420703125,0.04786357493698597,0.01219664744993206,-0.006396550903003662
1773790599974169900,17.004169921875,0.036191841843724246,0.0012173433254414703,0.0061836570709943766
1773790599994133000,17.024133056640625,0.0415793801009655,-0.00004316500075801741,-0.004474405467696487
1773790600014096000,17.044095947265625,0.03888707227706909,-0.006854915958395577,-0.0004972271987237036
1773790600034057700,17.0640576171875,0.03095511023402214,0.005527339453576132,-0.0011713088016957044
1773790600054020900,17.084020751953126,0.04651800554692745,-0.0016373046076943864,0.0032742176313884552
1773790600073984000,17.10398388671875,0.03888590323328971,0.006964461297073284,0.0010592084630392492
1773790600093947000,17.12394677734375,0.04127952037155628,-0.007707965720066568,0.008441080608963966
1773790600113909000,17.143908935546875,0.0345469972461462,0.008615974239099886,0.004763926466181874
1773790600133871900,17.163871826171874,0.04128127393722534,0.0021462853200602695,-0.010070691104792058
1773790600153834800,17.183834716796873,0.040085926672816276,-0.0017073541904450394,-0.007460252878069877
1773790600173798000,17.2037978515625,0.031257308050990106,-0.006243373060220619,0.008232698555290699
1773790600193760800,17.2237607421875,0.03993512002527713,0.002272910513935494,0.0035282471913844343
1773790600213724000,17.243723876953126,0.0504109213322401,-0.0035355659876819116,-0.009576971037406474
1773790600233687000,17.26368701171875,0.039487960779666896,-0.003760021822499402,0.0008726729149930179
1773790600253650000,17.28364990234375,0.03185702750980854,-0.0027777250807819653,-0.009179660549201071
1773790600273613000,17.303613037109375,0.04158230271041393,-0.009175459298118948,0.0031341698398813602
1773790600293576000,17.323575927734375,0.04876432316899299,-0.0024685341215576044,0.00256533870967105
1773790600313537800,17.343537841796874,0.03904080153405666,-0.0021738865692721445,-0.007329593969415873
1773790600333501000,17.3635009765625,0.030962124496698377,-0.000138079882117745,-0.007257734309602529
1773790600353463800,17.3834638671875,0.05011573777794838,-0.0025405182206013704,0.002332991258520633
1773790600373427000,17.403427001953126,0.04682312597334384,0.0018922925780934746,0.003408748997561633
1773790600393389800,17.423389892578125,0.036347909188270563,0.010791196532221511,0.010020129961334168
1773790600413353000,17.44335302734375,0.04337970752120018,0.004611473852950439,-0.006988817707728594
1773790600433316000,17.463316162109376,0.04921498954594135,0.011120507260045268,0.008327975623309612
1773790600453278700,17.48327880859375,0.043079263269901275,0.0012888239593419712,0.0029659919324330985
1773790600473241900,17.503241943359374,0.03709492816329002,0.0012255760080137406,-0.001593351872358471
1773790600493204700,17.523204833984376,0.04218436025679111,0.0015222140171637874,-0.004976783765573054
1773790600513166800,17.543166748046875,0.03395663013756275,0.005973526018229313,-0.002551237119082361
1773790600533130000,17.5631298828125,0.0381458985209465,0.0027404974866993143,-0.0037345286195166407
1773790600553092900,17.5830927734375,0.03410626774132251,-0.0011582560968221513,0.0034101920359767973
1773790600573056000,17.603055908203125,0.04398176506757736,-0.006762515263230307,-0.010623301752563565
1773790600593019100,17.62301904296875,0.03874386441409588,0.010163617527164751,0.008570625272765755
1773790600612981800,17.642981689453126,0.04622574460208416,-0.013549706026702187,0.000944422976952046
1773790600632945000,17.66294482421875,0.03799684543907642,-0.004624337330278649,0.0014693053675815463
1773790600652907800,17.68290771484375,0.03605097206830978,0.0011706643434794385,-0.008077069602161646
1773790600672871000,17.702870849609376,0.0378495459228754,0.0057381886006158305,-0.0016390907102264464
1773790600692833800,17.722833740234375,0.04203764526247978,0.006113118864476564,-0.009935940542910247
1773790600712796000,17.7427958984375,0.02931903346478939,0.006545147897969582,-0.006079593908321112
1773790600732759000,17.762759033203125,0.04143909484744072,0.009328557225799885,-0.005589618434291332
1773790600752721400,17.782721435546875,0.04667816454470158,-0.004636681930265331,0.0022609306693077086
1773790600772684300,17.802684326171875,0.03485562480390072,0.009672694488352862,-0.015659177027922123
1773790600792647400,17.8226474609375,0.0348562093257904,-0.0005212893505566171,0.0006225158125162124
1773790600812610000,17.842610107421876,0.03261164526939392,-0.0040355725194924155,-0.008643909704685211
1773790600832573200,17.8625732421875,0.035005846929550166,-0.004011468126819818,0.009460048393160104
1773790600852536300,17.882536376953126,0.03485445576012134,0.0018790021257911575,-0.004647679675370455
1773790600872499200,17.902499267578126,0.04263561115562915,-0.00046133960965671575,-0.002996661065332591
1773790600892462300,17.92246240234375,0.032009587723016736,0.0013219068137361317,0.0059392355895601205
1773790600912424400,17.942424560546876,0.03574877425134182,-0.0011890462440191185,-0.00579509614482522
1773790600932387300,17.96238720703125,0.029911738660931584,0.0008562754776852671,-0.008279569904319942
1773790600952350500,17.9823505859375,0.052956514161825174,-0.0021590012398606633,-0.0005066160815767944
1773790600972313000,18.00231298828125,0.039788405030965805,-0.002646063237596536,0.0009793298935517668
1773790600992276200,18.022276123046876,0.038439328509569166,-0.0030538774243294028,0.0011134594009257852
1773790601012239000,18.042239013671875,0.04621931486129761,0.00667565097217448,-0.00602260302407667
1773790601032202200,18.0622021484375,0.03858779706954956,0.00578217273117043,-0.003929722398053855
1773790601052165400,18.082165283203125,0.04187923983037471,0.00331378959207359,0.002254537461139262
1773790601072128300,18.102128173828124,0.031255554485321045,0.0021953837317385478,-0.009460651181358843
1773790601092090400,18.12209033203125,0.042479543811082834,0.006456444417921011,-0.004118559501040727
1773790601112053200,18.14205322265625,0.03185702750980854,-0.006292839366779662,-0.001087155915889889
1773790601132016000,18.16201611328125,0.043677813684940336,0.001452268038634793,0.0010270049601793288
1773790601151979300,18.181979248046876,0.04218143764734268,-0.0058870533111738035,0.010901442840509116
1773790601171942100,18.201942138671875,0.0236281283468008,-0.010445132174063473,0.004536985842511058
1773790601191905300,18.2219052734375,0.02587035431563854,-0.00787078246580786,-0.00013425737153738738
1773790601211868200,18.2418681640625,0.041433249628543854,-0.0003302854066583677,0.009700560884457081
1773790601231831300,18.261831298828124,0.04951601831912994,0.0013735996121220524,-0.011224683445505796
1773790601251794400,18.28179443359375,0.052508770394325256,0.002028314360920922,-0.0020929536912590264
1773790601271757300,18.30175732421875,0.046074353432655334,-0.004783093532599742,0.00016556582525372503
1773790601291719200,18.32171923828125,0.032905075258016586,-0.01109291485857684,-0.009648081778548657
1773790601311682300,18.341682373046876,0.04592237774133682,0.006113484761479776,-0.018278127354662863
1773790601331645200,18.361645263671875,0.034549919855594635,0.002666657073998067,-0.016473982275836168
1773790601351608300,18.3816083984375,0.039489714345335956,0.004779713694602833,-0.003398227603547275
1773790601371571200,18.4015712890625,0.042782910671830175,-0.004891830016279709,-0.007806965690199286
1773790601391534300,18.421534423828124,0.03739712598025799,-0.00013713916720153066,0.0027391243739984927
1773790601411497500,18.44149755859375,0.02811901002526283,-0.007791710468029486,-0.007402476542536169
1773790601431460400,18.46146044921875,0.03664659987390041,0.006940530719747766,-0.009865487388893961
1773790601451423200,18.48142333984375,0.03844108207523823,0.002325420729651523,-0.009203973006550223
1773790601471385300,18.50138525390625,0.04696984096765518,-0.0012758083579086814,-0.0037853089586831626
1773790601491348200,18.52134814453125,0.04741816925704479,-0.003007159911871713,-0.00853325240444392
1773790601511311400,18.541311279296874,0.04995967043340206,0.009564114980766316,0.0026793752770870923
1773790601531274200,18.561274169921877,0.046668812194466586,-0.001504706330758927,-0.018042473701573906
1773790601551237400,18.5812373046875,0.03140402304530143,0.006646684030949836,0.004810560353193432
1773790601571200300,18.6012001953125,0.05355097292363643,0.0012689276676173904,0.005687854644376785
1773790601591163100,18.6211630859375,0.04936112001836299,0.005492801288090413,-0.01004214086374268
1773790601611126300,18.641126220703125,0.029309681114554405,0.00019583224312082166,-0.008986896189767868
1773790601631089200,18.661089111328124,0.0424766212016344,-0.00018985973088274475,0.0011033398657105862
1773790601651052300,18.68105224609375,0.046966333836317056,0.0031729740447641232,-0.004620316744409501
1773790601671014400,18.701014404296874,0.04247837476730346,-0.0032514503896207314,-0.00436877140244469
1773790601690977300,18.720977294921877,0.04576981752812862,-0.0075979152037791205,0.005813965242076665
1773790601710940400,18.7409404296875,0.03843699042201042,-0.004519660819196724,-0.0010399557732976973
1773790601730903000,18.760903076171875,0.03783960905075073,-0.00031334968405572,-0.01351284918161109
1773790601750866400,18.780866455078126,0.03350011854171753,0.007316539837486925,-0.000043181554600596424
1773790601770829300,18.800829345703125,0.04382569772303104,-0.0030068673655157907,0.006353186685312539
1773790601790792400,18.82079248046875,0.03574468259811401,0.003404344819202379,0.0023377952978014946
1773790601810755600,18.840755615234375,0.04128244298100471,0.0020031402475244246,0.0013962949302978812
1773790601830718500,18.860718505859374,0.0400847576290369,-0.00024134389376995386,-0.0018793840058147907
1773790601850680600,18.8806806640625,0.04651975911259651,0.01058365929534193,0.0005109634631313383
1773790601870643700,18.900643798828124,0.046070261779427524,-0.005396146826204495,-0.0047196854656562206
1773790601890606300,18.9206064453125,0.03828676829636097,-0.00027990350135805785,-0.003077398151345551
1773790601910569500,18.940569580078126,0.034246552994847294,-0.0030721331731721874,0.008735350847803056
1773790601930532400,18.960532470703125,0.04053191687464714,-0.0031777038771644583,-0.0020533340669237074
1773790601950495500,18.98049560546875,0.0477139373332262,0.007420243953022872,-0.007431008517276495
1773790601970458600,19.000458740234375,0.04202887743413448,0.0013703473528774337,-0.009734317023586481
1773790601990421500,19.02042138671875,0.021377719071507453,-0.003963732553043519,0.00888606616379693
1773790602010384600,19.040384521484373,0.04097907612025738,0.0052145300526928616,0.00446267849728465
1773790602030347500,19.060347412109376,0.03304769859910011,-0.010932541231671348,-0.005383117810450494
1773790602050309400,19.080309326171875,0.046513913893699646,0.008982213164784479,-0.008899236172623932
1773790602070272500,19.1002724609375,0.04546761971116066,-0.014551489780656993,0.002405764233786613
1773790602090235400,19.1202353515625,0.027957681983709334,0.0013129274957813322,-0.008370937982201575
1773790602110198500,19.140198486328124,0.026761750197410582,0.002968839764178847,-0.003051989715453237
1773790602130161400,19.160161376953123,0.049505496925115584,-0.0009878397102816962,-0.010304993051011114
1773790602150124500,19.18012451171875,0.04860650225877761,0.0033607616912137016,-0.012506576482206582
1773790602170087700,19.200087646484373,0.04112345302700996,-0.00336170954140689,0.0025303039289079603
1773790602190050600,19.220050537109376,0.038430560681223865,0.006168797428580001,-0.004826196313742548
1773790602210013700,19.240013671875,0.04605915586352348,-0.0038474452338588885,-0.0033076815095730125
1773790602229975600,19.2599755859375,0.03842588450610637,-0.0013535985745314974,-0.008450158964563161
1773790602249938400,19.2799384765625,0.036029344758391375,0.009075253180766595,-0.011931845334172249
1773790602269901600,19.299901611328124,0.044259412965178484,-0.0016772273385955486,0.0034882805071771144
1773790602289864400,19.319864501953123,0.036328619965910906,0.0011886480955639854,-0.007895739952195436
1773790602309827600,19.33982763671875,0.045454760229587554,-0.007373554696261999,0.0029802579198032614
1773790602329790700,19.359790771484374,0.05218903692066669,-0.00650383521511394,0.0007216653380542993
1773790602349753600,19.379753662109376,0.03557750933766365,-0.008635528893762966,-0.006681523590534925
1773790602369716500,19.399716552734375,0.03647358139455318,0.006870275070198112,-0.002846749466937035
1773790602389679400,19.419679443359374,0.03766951318085193,-0.001659485900517029,0.0017112243646755813
1773790602409641500,19.439641357421873,0.05487608404755592,0.005659646325799985,0.001071392091177404
1773790602429604600,19.4596044921875,0.03631985213756561,-0.007238512444257503,-0.005896401094831526
1773790602449567500,19.4795673828125,0.04694412200450897,-0.008423743027562158,-0.006480868185590952
1773790602469530600,19.499530517578126,0.039461657294631004,0.008165150886058108,0.0010258724490180612
1773790602489493500,19.519493408203125,0.03257715847790241,0.00238001615871035,-0.006841408593673258
1773790602509456600,19.53945654296875,0.034971944659948344,-0.0007023858196713263,0.006597827362455427
1773790602529419500,19.55941943359375,0.04215513416230678,0.0015875120762721053,0.007756897737085819
1773790602549382400,19.57938232421875,0.03706687111258507,-0.0036580701309881984,-0.0044854565846733745
1773790602569345500,19.599345458984374,0.039161213043332095,0.006350579169695265,-0.004007810869254172
1773790602589307600,19.6193076171875,0.04768938741385936,-0.004480392535899591,-0.012910334977507591
1773790602609270500,19.6392705078125,0.04065700455904007,0.004168112001745612,0.004876282533165067
1773790602629233700,19.659233642578126,0.04110474832653999,-0.0020233522039023225,0.0032682445483282205
1773790602649196500,19.679196533203125,0.039159459477663035,-0.008007489806046942,-0.006152001557406038
1773790602669159400,19.699159423828124,0.04155424565970897,-0.0036247292649786685,0.003544851266313344
1773790602689122600,19.71912255859375,0.04110650189220905,0.00053056635226676,-0.00849726777561009
1773790602709085400,19.73908544921875,0.03317804698050022,0.0021429171839175976,0.009629285746533423
1773790602729048600,19.759048583984374,0.0367693494707346,-0.011602994689007756,-0.0011456263711676002
1773790602749011500,19.779011474609376,0.04185761252045631,-0.002875537740826257,0.013193572365678845
1773790602768974600,19.798974609375,0.0472433972120285,0.0014194537560659228,-0.006032539896201342
1773790602788936700,19.818936767578126,0.05008651168346405,0.01152660726783797,0.0018884806277230382
1773790602808899300,19.8388994140625,0.041408699709177016,0.006137197855563136,-0.0014567016143351792
1773790602828862500,19.858862548828125,0.05068798470795154,-0.00478038212734973,0.002014335497096181
1773790602848825300,19.878825439453124,0.03348082931935787,-0.004271792428162007,0.0018077983406372367
1773790602868788500,19.89878857421875,0.03288169438242912,-0.0032850284322368676,0.0057415210603736335
1773790602888751600,19.918751708984374,0.0445551810413599,0.0020973515905745445,-0.004100092262588441
1773790602908714500,19.938714599609376,0.038270401683449744,-0.011401223897567252,0.0014505458681844175
1773790602928677600,19.958677734375,0.04425649035573005,0.007129545919247903,0.003201371590886265
1773790602948639700,19.9786396484375,0.04231237055063247,0.004026956529841118,0.010778291384875774
1773790602968602400,19.998602294921874,0.045455929273366925,0.002686120397115883,-0.0032192725737579166
1773790602988565500,20.0185654296875,0.030341946771740912,0.0019300935630337335,-0.008872238567844033
1773790603008528400,20.0385283203125,0.04036708170175552,0.003965830609884869,-0.020792831855639814
1773790603028491500,20.058491455078126,0.02839431983530521,0.0035281238937983285,0.0036816111221909522
1773790603048454400,20.078454345703125,0.042161563903093335,-0.0005112100583035498,0.003498052982520312
1773790603068417500,20.09841748046875,0.030040333476662635,-0.0002583515399644966,0.0042780061127617956
1773790603088380700,20.118380615234376,0.038569676890969275,-0.0013655407448968616,-0.006937982569634914
1773790603108343600,20.138343505859375,0.0505418542355299,0.007604811306268675,0.01289035163540393
1773790603128305400,20.158305419921874,0.04081599451303482,0.009804790727200452,-0.011372695347759872
1773790603148268500,20.1782685546875,0.04620470181405544,-0.007583008183125639,0.0033340032609179616
1773790603168231400,20.1982314453125,0.04575812709033489,-0.0030466930566501104,-0.003514182133413851
1773790603188194600,20.218194580078126,0.04276712858080864,0.0039599271671278986,-0.012286321327649057
1773790603208157400,20.238157470703126,0.04456161078214645,-0.00023338178090052679,0.005420435879845172
1773790603228120600,20.25812060546875,0.03229191179573536,0.005819340103515424,-0.0019418547827750442
1773790603248083700,20.278083740234376,0.04007248266935348,-0.007667743307532509,-0.0015977723191492258
1773790603268046600,20.298046630859375,0.028551556223630904,-0.011714276468689786,-0.006917177243623882
1773790603288009500,20.318009521484374,0.049800680479407305,-0.0030141102424662675,0.00397613708935678
1773790603307971600,20.3379716796875,0.03723170628547668,0.004566049823502544,0.008749836030881851
1773790603327934500,20.3579345703125,0.037976971694827076,-0.0037437730843637835,0.0005149272521957755
1773790603347897600,20.377897705078126,0.030495091506838795,0.012053907661128323,-0.0011322554329410194
1773790603367860500,20.397860595703126,0.03259118700325489,0.0035212240809647482,0.006141918554808944
1773790603387823600,20.41782373046875,0.03229249631762504,-0.006921541749843163,0.0013246544661931693
1773790603407786500,20.437786376953124,0.03558452360033989,-0.008096270917908986,-0.005863704401627183
1773790603427749600,20.45774951171875,0.048904023900628084,-0.0023438234651999663,-0.0007263232468627393
1773790603447712500,20.47771240234375,0.03618365853726864,-0.0025509511371812547,-0.0018424312626011668
1773790603467675400,20.49767529296875,0.032442718443274496,0.0009967074325046268,0.00550595873882994
1773790603487637500,20.517637451171876,0.0423199693351984,-0.0026811217074791784,-0.004316840285807848
1773790603507600600,20.5376005859375,0.0309480959713459,-0.0022783378910127793,0.009296820655465126
1773790603527563500,20.5575634765625,0.032442718443274496,0.008862071654389729,-0.007377944889478385
1773790603547526700,20.577526611328125,0.04112345302700996,0.002803661241759255,-0.002392320230323821
1773790603567489500,20.597489501953124,0.03858136732876301,-0.0027048524970494326,-0.00160657668011263
1773790603587452400,20.617452392578127,0.034542905592918394,0.0019585453372608754,0.0042959801608696575
1773790603607415600,20.63741552734375,0.030652327895164488,0.00024902088097151137,-0.006779394474439322
1773790603627378400,20.65737841796875,0.031849428725242615,-0.0016547486474286415,-0.0037775640436448154
1773790603647341600,20.677341552734376,0.04112462207078933,-0.006366816776798805,0.0027782508079893884
1773790603667303700,20.6973037109375,0.029455227065086364,0.012952123726042918,-0.0022991072552278635
1773790603687266600,20.7172666015625,0.04876081603765487,-0.006889609958330402,-0.0072043236219324165
1773790603707229700,20.737229736328125,0.03888531871140003,0.004029645673026971,-0.00020392507426440713
1773790603727192300,20.7571923828125,0.046667058628797525,0.004690453377539233,0.00260928744925186
1773790603749651500,20.7796513671875,0.03469663484990597,0.0007635322892252588,0.003303370660636574
1773790603769614000,20.799614013671874,0.03828852186203003,0.0062725055398710535,0.014362232552561909
1773790603789577000,20.819576904296873,0.045619010880589485,0.003763249536391231,0.006524360267445445
1773790603809539800,20.839539794921876,0.03349778045415878,-0.0012879682969272833,-0.004652867307141423
1773790603829502000,20.859501953125,0.0399321974158287,-0.00008332719155441736,0.00086154873277992
1773790603849464800,20.87946484375,0.04023264166712761,0.0033494288735018926,0.005875723632983863
1773790603869428000,20.899427978515625,0.03873801919519901,-0.004057385061201057,-0.012033552142977714
1773790603889390800,20.919390869140624,0.03290273717045784,0.000990817974890524,-0.0018896862041205167
1773790603909354000,20.93935400390625,0.03365150971114635,-0.0064041200048173775,-0.008784852545335889
1773790603929317000,20.959317138671874,0.038439913031458856,0.012488894695043563,-0.008504756962321698
1773790603949279700,20.97927978515625,0.04711830952763557,0.0023593983477781873,-0.006359452029317617
1773790603969243000,20.999242919921876,0.030360651472210884,-0.010550455712061375,-0.01992004934279248
1773790603989205800,21.019205810546875,0.048019642281532285,-0.0003125271293261903,-0.002056731600407511
1773790604009168000,21.03916796875,0.04921615858972073,-0.0024326747881874325,0.010997048702090978
1773790604029131000,21.059131103515625,0.041136897030472755,0.0033884251600407875,-0.00720063382750377
1773790604049094000,21.079093994140624,0.03380523896813392,0.005017299580696272,-0.006766352329775691
1773790604069057000,21.09905712890625,0.03859598037600517,-0.0001873576746591425,-0.011262385107390582
1773790604089019600,21.11901953125,0.038596564897894856,-0.007681076000674511,0.0074310450498946004
1773790604111477800,21.141477783203126,0.035008185017108916,0.005689692120903055,-0.0066543433226644985
1773790604131441000,21.16144091796875,0.02543079385459423,0.0033789503684529335,0.004308638713043183
1773790604151403800,21.18140380859375,0.046828386670351024,-0.005710532267065718,-0.008999847002886235
1773790604171367000,21.201366943359375,0.03815057469606399,0.004207854638255958,-0.005307878883462399
1773790604191330000,21.221330078125,0.045482817280292506,-0.0026327573730959555,-0.010109032087493688
1773790604211293000,21.24129296875,0.0324643457531929,-0.010613096594024683,-0.0018602774465456603
1773790604231254800,21.2612548828125,0.044882513299584384,-0.00548640979238844,-0.008814535297546534
1773790604251218000,21.281218017578126,0.04233984307944774,-0.001752532623659499,-0.005721884778141975
1773790604271180800,21.301180908203126,0.04563303940594196,-0.0074146327712107446,-0.006979629754275083
1773790604291144000,21.32114404296875,0.030220366218686102,-0.004796036354207899,0.0030498708236031233
1773790604311106800,21.34110693359375,0.037999768048524854,-0.0036519306532689366,-0.013320614545140415
1773790604331070000,21.361070068359375,0.04697860879600048,-0.0062151858620636624,0.004000961003359407
1773790604351033000,21.381033203125,0.04144494006633758,0.004115475348921609,-0.0030494141658768056
1773790604370996000,21.400995849609377,0.030072482180595397,-0.0060082594048930325,-0.00602976341722533
1773790604390957800,21.420957763671876,0.03890402341187,0.0011917615023186953,-0.012186769943311809
1773790604410921000,21.4409208984375,0.04234510377645492,0.006431752363836858,-0.009028689504880458
1773790604430883800,21.4608837890625,0.036060908940434455,-0.0030425066469440933,-0.00245813374184072
1773790604450847000,21.480846923828125,0.04099719629883766,0.002336759255584911,-0.005673734787479043
1773790604470809900,21.500809814453124,0.0472825601786375,-0.011468370849644997,0.007338818455487489
1773790604490773000,21.52077294921875,0.02214285822510719,-0.00896369512316014,0.0037539639723487197
1773790604510734800,21.54073486328125,0.042644378983974454,-0.0035622487840417305,-0.0036270679233595727
1773790604530697700,21.56069775390625,0.037407062852382655,-0.003335209408137598,-0.00436188500393182
1773790604550660900,21.580660888671876,0.03830488847494125,-0.0019769485009259367,-0.011110573812853543
1773790604570624000,21.6006240234375,0.029026772519946096,0.0004229879240396258,-0.002546652275510132
1773790604590587000,21.6205869140625,0.0471346761405468,0.001773734813775809,-0.009822031839657575
1773790604610550000,21.640550048828125,0.030526071166992186,0.008204724844620795,-0.0036154140181839465
1773790604630513000,21.660512939453124,0.03845569512248039,0.007199024109018501,-0.016406926655303685
1773790604650476000,21.68047607421875,0.038454526078701014,-0.006907345973598421,-0.004236139732412994
1773790604670438000,21.70043798828125,0.035762218254804606,0.0006161039099220943,-0.004735595420841127
1773790604690400800,21.72040087890625,0.04384147981405258,0.012844027134001953,0.0029553061416372657
1773790604710364000,21.740364013671876,0.050722471499443054,-0.003222570213364088,0.007721241901814937
1773790604730326800,21.760326904296875,0.03246376123130321,-0.00796834053916973,-0.01902596831358969
1773790604750290000,21.7802900390625,0.038300212299823756,-0.00004797317849952378,-0.005314947945065796
1773790604770253300,21.80025341796875,0.028422376886010167,-0.0007205597982399922,0.0001765073443762958
1773790604790216200,21.82021630859375,0.02737491365969181,0.006507716234965482,-0.011035718478355556
1773790604810179300,21.840179443359375,0.045777416312694545,0.001866670797419647,0.004974409145396203
1773790604830141200,21.86014111328125,0.03874327989220619,-0.0008042630188909242,-0.0013864859223365782
1773790604850104300,21.880104248046877,0.03604921850264072,0.0036940818738745293,-0.0009093333972617983
1773790604870067500,21.9000673828125,0.05654781665205955,0.0007060504979250254,0.009687920598592609
1773790604890030300,21.9200302734375,0.03993979620039463,0.002500243863250944,0.0031472667834721506
1773790604909993500,21.939993408203126,0.03380348540246486,0.000612908875598805,-0.0020352321546524763
1773790604929956000,21.9599560546875,0.04921674311161041,0.0058199702911777415,-0.005947619825415313
1773790604949919200,21.979919189453124,0.03649930035769939,0.0011750588178620091,0.006502879087999462
1773790604969882400,21.99988232421875,0.03410509869754314,0.00034776869041597817,-0.0035215251896530387
1773790604989844200,22.01984423828125,0.03859422681033611,-0.0060337243521789785,-0.011892116111982614
1773790605009807400,22.039807373046877,0.03605038754642009,0.006832213790353853,-0.0029144444082863626
1773790605029770500,22.0597705078125,0.037547932627797126,-0.0004896408295397123,-0.0022187720280140637
1773790605049733400,22.0797333984375,0.04233633594810962,0.004015181324956939,-0.0008959259264171123
1773790605069696500,22.099696533203126,0.04517945041954517,-0.0017980227257721707,-0.001926237088534981
1773790605089659100,22.1196591796875,0.03575052781701088,0.00245354090675828,-0.0012258702668361365
1773790605109622300,22.139622314453124,0.04936696523725986,0.009726816420431715,-0.0013450214007869363
1773790605129585200,22.159585205078123,0.035303368571400644,0.0013738467781164217,-0.0011728431716561316
1773790605149547300,22.17954736328125,0.049367549759149545,-0.004268094927634229,0.005050963246636092
1773790605169510400,22.199510498046877,0.04592939200401306,-0.0012502692037422093,-0.006669833152741193
1773790605189473300,22.219473388671876,0.03156301299929619,-0.005508908176919795,-0.009127090111747383
1773790605209436400,22.2394365234375,0.04996785373985767,0.007822788309594033,0.005255034451372921
1773790605229399300,22.2593994140625,0.03859422681033611,-0.010521762765472521,-0.009956599738448858
1773790605249362200,22.279362060546877,0.04622457555830478,0.0074048905494419155,-0.013463676277641206
1773790605269325300,22.2993251953125,0.03574877425134182,0.006789133271275204,0.00950578723102808
1773790605289287400,22.319287353515627,0.0456225180119276,-0.0001570784132934932,-0.014015830267686396
1773790605309250300,22.339250244140626,0.047718613508343694,0.00761819993998215,-0.007808974984195083
1773790605329213400,22.35921337890625,0.03694470603764057,-0.007293731496523833,-0.007351184746716171
1773790605349176300,22.37917626953125,0.029315526333451268,0.010569841974187874,0.0027033406745642424
1773790605369139200,22.39913916015625,0.040838206344842906,0.0008451891124401299,-0.0034883718387223777
1773790605389102300,22.419102294921874,0.02497545130252838,-0.004366823757241945,0.003637461453210562
1773790605409065200,22.439065185546873,0.03918985461592674,0.010625301913404836,-0.0028827158294618127
1773790605429028400,22.4590283203125,0.02901099042892456,-0.005960279519233154,-0.0012108005618676543
1773790605448990500,22.478990478515627,0.03933423152267933,-0.001072760066478804,-0.0018349420758895574
1773790605468953300,22.498953369140626,0.03649111705124378,-0.006678289883010439,0.0011539375417865812
1773790605488916500,22.51891650390625,0.03319850524663925,-0.004769317881463212,-0.010792502573318779
1773790605508879400,22.53887939453125,0.05459609806239605,0.001834068432576896,-0.003287460705451667
1773790605528842200,22.55884228515625,0.03499298744797706,0.0001584014363499591,0.008418887043464928
1773790605548805000,22.57880517578125,0.04845978726446628,0.006006847190874395,-0.008144508815184234
1773790605568768300,22.598768310546873,0.03963058412075043,-0.011560380531632108,-0.0018307408248074352
1773790605588731400,22.6187314453125,0.03469020510911942,0.0065190539046656336,-0.0015316300140693782
1773790605608693200,22.638693359375,0.045165421894192696,-0.0019198059206930337,0.0009638217971660196
1773790605628656400,22.658656494140626,0.044268765315413475,0.01026978588195634,-0.0010314802058972417
1773790605648619500,22.67861962890625,0.03020166151821613,-0.004114128208628972,0.0033757052444852885
1773790605668582100,22.69858203125,0.0343903453797102,0.0055807204584940335,0.010026541435811668
1773790605688545300,22.718545166015623,0.040374680486321445,-0.00047705120414175324,0.003635379093978554
1773790605708508200,22.738508056640626,0.03513736435472965,-0.004061371112329652,-0.01699292811602354
1773790605728471300,22.75847119140625,0.0279547593742609,0.007055199758114758,0.00018901976607739923
1773790605748433400,22.778433349609376,0.047857145196199415,0.00046595299433683975,-0.010009224974829704
1773790605768399600,22.798399658203124,0.04082417781949043,-0.00435361150757526,0.004945457045547664
1773790605788362800,22.81836279296875,0.04501461524665355,0.0016521915068668021,0.0034204759679734706
1773790605808325600,22.83832568359375,0.03274608530402184,0.011774444549065082,-0.007455759366042911
1773790605828288500,22.85828857421875,0.03244388748705387,-0.005573259242068161,0.003191982708033174
1773790605848251600,22.878251708984376,0.03379237948656082,0.004294322778734204,0.0036892099067568776
1773790605868214500,22.898214599609375,0.042620998108386994,-0.0045294318674845265,-0.001828019144758582
1773790605888177700,22.918177734375,0.03424012325406074,-0.002945472873734252,0.006589735387545079
1773790605908139800,22.938139892578125,0.04606032490730285,0.008897331339083029,0.006951700567733496
1773790605928102700,22.9581025390625,0.02570785723030567,-0.0036333675166941247,-0.008661865486484021
1773790605948065800,22.978065673828127,0.04905249246060848,0.020487779927882366,-0.003775244222395122
1773790605968028700,22.998028564453126,0.04501344620287418,-0.008032455283944728,0.006172953013889491
1773790605987991600,23.017991455078125,0.04336860160529613,0.008277488115910092,-0.006168075909372419
1773790606007954700,23.03795458984375,0.0372352134168148,-0.0018651354285204433,0.010215159343089909
1773790606027917600,23.05791748046875,0.03170096016526222,0.003791300878874608,-0.002204359910171479
1773790606047880700,23.077880615234374,0.03963292220830917,0.006048902513357461,0.0020584851660765706
1773790606067842800,23.0978427734375,0.04127893584966659,0.002714353831867629,-0.014072419293131678
1773790606087805700,23.1178056640625,0.04097966064214706,0.007984780217317165,0.004614562857057899
1773790606107768600,23.1377685546875,0.041429157975316044,-0.009187594406373682,0.00010514087490737437
1773790606127731500,23.1577314453125,0.03604337328374386,0.006365766464028274,-0.005361947158258408
1773790606147694600,23.177694580078125,0.03963350673019886,-0.00520812200314831,-0.007377543030679225
1773790606167657700,23.19765771484375,0.03828618377447128,-0.0035433950989885487,-0.0061686969638802104
1773790606187620600,23.21762060546875,0.03993570454716682,-0.0000012292655170313082,0.0038168000754900274
1773790606207582700,23.237582763671874,0.038438159465789795,0.004377230701413645,0.00075346698211506
1773790606227545900,23.2575458984375,0.02931143468022346,-0.0032538843753020046,0.0012878113208338617
1773790606247508500,23.277508544921876,0.04756663781702518,-0.002194003055644134,-0.005430957273859531
1773790606267471600,23.2974716796875,0.036492286095023155,-0.004150047192914644,0.010961356334201991
1773790606287434500,23.3174345703125,0.045021044987440105,0.0008072053217038046,0.0015606186465360224
1773790606307397600,23.337397705078125,0.04576981752812862,-0.0010389127385096798,-0.006241926596872508
1773790606327360500,23.357360595703124,0.04816343466639519,0.009209216578892664,-0.001747811781708151
1773790606347323600,23.37732373046875,0.047566053295135496,0.0023015349618654,-0.006592822393774986
1773790606367285800,23.39728564453125,0.03903729440271854,0.0031028676652087596,-0.011844477577973156
1773790606387248600,23.41724853515625,0.03589548924565315,-0.00043726461432524956,-0.003049889089912176
1773790606407211500,23.43721142578125,0.029762685579061508,0.009083418791735312,-0.008595339588914066
1773790606427174700,23.457174560546875,0.03769464762210846,0.0024194945045615895,-0.013748027910664677
1773790606447137500,23.477137451171874,0.046524435287714,-0.00006431196383055066,-0.017834036848973483
1773790606467100700,23.4971005859375,0.04458031548261642,0.00009338108222145819,-0.008928243071399628
1773790606487063600,23.5170634765625,0.045779169878363606,0.006996189305075676,0.006079758305102587
1773790606507025700,23.537025634765627,0.04503098185956478,-0.006154035396754625,0.003537672606855631
1773790606526988800,23.55698876953125,0.039193946269154546,-0.009762572720402386,-0.0031334391875192523
1773790606546951400,23.576951416015625,0.03934650648236274,-0.004234185522755433,0.0014937274227850138
1773790606566914600,23.59691455078125,0.03979600381553173,0.003822148108287365,-0.0019875388217158617
1773790606586877700,23.616877685546875,0.03426116604208946,-0.0023314172164202317,0.004779197100549936
