time,seconds_elapsed,z,y,x
1773790582996913400,0.026913330078125,0.0005335666355676949,0.0006526852957904339,-0.00036583421751856804
1773790583016876500,0.04687646484375,-0.0011214060941711068,-0.000788357574492693,0.0012466819025576115
1773790583036839400,0.06683935546875,-0.0011421282542869449,0.0005917486269026995,-0.0003061192110180855
1773790583056802600,0.086802490234375,-0.001413447898812592,0.0007961681112647057,-0.0013531828299164772
1773790583076765400,0.106765380859375,-0.0008227966609410942,-0.00024344539269804955,0.00008795922622084618
1773790583096728600,0.126728515625,-0.00015744220581836998,0.0002511274069547653,0.0004907404072582722
1773790583116691700,0.146691650390625,-0.00007636519148945808,0.0007499945349991322,0.00046732835471630096
1773790583136654600,0.166654541015625,0.0007311038207262754,0.0003900015726685524,0.00080464081838727
1773790583156617500,0.186617431640625,-0.0002642588224261999,0.0006000485736876726,0.00014261668547987938
1773790583176580400,0.206580322265625,0.00043512677075341344,-0.0005055281799286604,0.00034359050914645195
1773790583196543500,0.22654345703125,0.00098668213468045,-0.0003945340868085623,-0.0007063183002173901
1773790583216506400,0.24650634765625,0.0018014803063124418,-0.001376534579321742,0.0004575527273118496
1773790583236469500,0.266469482421875,-0.0005224902415648103,0.0010227225720882416,-0.00017073797062039375
1773790583256432600,0.2864326171875,-0.00038635023520328104,0.000008353032171726227,-0.00008593639358878136
1773790583276395500,0.3063955078125,-0.000914189382456243,0.00011079944670200348,0.00015238765627145767
1773790583296358700,0.326358642578125,0.0000549078977201134,-0.0009752188343554735,0.0006011682562530041
1773790583316321500,0.346321533203125,-0.0005616697017103434,0.00009081698954105377,0.0005012904293835163
1773790583336284400,0.366284423828125,-0.00023731967667117715,-0.0002731748390942812,-0.0006079794839024544
1773790583356247600,0.38624755859375,-0.00048941740533337,0.0007969476282596588,-0.0007949350401759148
1773790583376210400,0.40621044921875,-0.00039516936521977186,0.0004448916297405958,0.00020752521231770515
1773790583396173600,0.426173583984375,-0.0004508806741796434,0.000510162441059947,-0.00043685175478458405
1773790583416137500,0.446137451171875,0.0001627055899007246,-0.0011009576264768839,-0.00007913215085864067
1773790583436100600,0.4661005859375,0.000354351126588881,-0.0009458819404244423,0.00042500486597418785
1773790583456063500,0.4860634765625,0.00014300071052275598,0.001117756124585867,0.00031769461929798126
1773790583476026600,0.506026611328125,-0.000003492605173960328,0.0008272025734186172,-0.0015383274294435978
1773790583495989500,0.525989501953125,-0.00030439902911894023,0.00087924231775105,0.0005396818742156029
1773790583515952600,0.54595263671875,0.001095276908017695,-0.0005358003545552492,0.0010369932278990746
1773790583535915500,0.56591552734375,-0.00005816211341880262,-0.001781869912520051,0.0014109848998486996
1773790583555878400,0.58587841796875,-0.001636992790736258,0.0004402310587465763,0.0016542724333703518
1773790583575841500,0.605841552734375,0.000334374257363379,-0.0007776618003845215,-0.0012412830255925655
1773790583595804400,0.625804443359375,0.00016028157551772892,-0.0008700061589479446,0.0007187467999756336
1773790583615767600,0.645767578125,-0.00017803910304792225,-0.0012679044157266617,0.0006847362965345383
1773790583635730400,0.66573046875,0.0002557584666647017,0.0010854246793314815,-0.0009223716333508492
1773790583655693600,0.685693603515625,0.0013480030465871096,-0.000014316057786345482,0.0001410902477800846
1773790583675656400,0.705656494140625,-0.00039778888458386064,0.0005789070855826139,0.00015872204676270485
1773790583695619600,0.72561962890625,-0.0007377221481874585,-0.0003719502128660679,0.0007587824948132038
1773790583715582700,0.745582763671875,0.00026402814546599984,-0.00009862473234534264,-0.0000898861326277256
1773790583738042600,0.768042724609375,-0.00028325695893727243,-0.0006295379716902971,-0.00031666224822402
1773790583758005500,0.788005615234375,0.00002920284168794751,-0.001467839814722538,-0.000726344995200634
1773790583777968600,0.80796875,-0.00025244217249564826,-0.00037940777838230133,0.0003713080659508705
1773790583797931800,0.827931884765625,-0.0005095452652312815,0.0009698206558823586,-0.0002265777438879013
1773790583817894400,0.847894287109375,-0.000226248346734792,0.001676929066888988,0.0014779302291572094
1773790583837857500,0.867857421875,0.0014530718326568604,-0.0009697070345282555,0.0006631119176745415
1773790583857820400,0.8878203125,-0.0005956375389359891,-0.0005500963889062405,-0.0009064055047929287
1773790583877783600,0.907783447265625,-0.000031464966014027596,-0.001737089827656746,0.00015607010573148727
1773790583897746700,0.92774658203125,-0.0010424810461699963,0.0017513030907139182,0.00006982032209634781
1773790583917709600,0.94770947265625,0.0003515971184242517,0.0004940386861562729,0.0000044549815356731415
1773790583937672700,0.967672607421875,-0.0009027589112520218,0.0006931640673428774,-0.00010245572775602341
1773790583957635600,0.987635498046875,-0.00013277685502544045,-0.0006531307008117437,-0.0009767119772732258
1773790583977598700,1.0075986328125,-0.00015789864119142294,-0.0002867064904421568,-0.0007324675098061562
1773790583997562600,1.027562744140625,-0.000016478064935654402,0.0007506234105676413,-0.0002446467988193035
1773790584017525800,1.04752587890625,-0.0009765122085809708,0.0003517984878271818,0.00003802496939897537
1773790584037488400,1.06748828125,-0.0003893395187333226,0.0000986102968454361,-0.0004383902996778488
1773790584057451500,1.087451416015625,-0.000846441718749702,-0.0018342372495681047,-0.000012416858226060867
1773790584077414400,1.107414306640625,-0.00015471686492674053,0.0002585765905678272,0.00036576809361577034
1773790584097377500,1.12737744140625,-0.00021385526633821428,-0.001295160036534071,-0.00018090521916747093
1773790584117340700,1.147340576171875,0.0005792888696305454,0.0008700019679963589,-0.0001331297680735588
1773790584137303600,1.167303466796875,0.0004510151338763535,0.000247361371293664,0.0008960678242146969
1773790584157266700,1.1872666015625,-0.0004381675971671939,-0.0004038622137159109,0.0009667472913861275
1773790584177229600,1.2072294921875,0.0009270601440221071,0.0010137876961380243,-0.00038376031443476677
1773790584197192700,1.227192626953125,-0.000818524626083672,-0.00023269071243703365,0.00038629258051514626
1773790584217155600,1.247155517578125,0.0006821681745350361,-0.0009214056190103292,-0.0011518453247845173
1773790584237118500,1.267118408203125,0.000180443050339818,-0.0009772982448339462,0.000372239388525486
1773790584257081600,1.28708154296875,0.000402879377361387,0.00022854306735098362,-0.00006322888657450676
1773790584277044500,1.30704443359375,0.00018049405480269343,0.00048253219574689865,-0.00023249024525284767
1773790584297007600,1.327007568359375,0.00040900506428442895,-0.0006818242836743593,0.0008661746978759766
1773790584316970500,1.346970458984375,0.0005249734385870397,0.000863413792103529,0.0005079708062112331
1773790584336933600,1.36693359375,0.001022575655952096,-0.00023265904746949673,0.001269601285457611
1773790584356896500,1.386896484375,0.0004033410514239222,0.0005582277663052082,0.00020773010328412056
1773790584376859600,1.406859619140625,0.0004075852921232581,0.001032303087413311,0.0004702485166490078
1773790584396822500,1.426822509765625,-0.001171643496491015,0.00036445888690650463,0.0006572017446160316
1773790584416785400,1.446785400390625,0.0003919608425348997,0.00026178103871643543,-0.0001386282965540886
1773790584436748500,1.46674853515625,0.0005230234237387776,0.0014880291419103742,0.00034280214458703995
1773790584456711400,1.48671142578125,0.0007353462278842926,-0.0005773338489234447,0.00023319711908698082
1773790584476674600,1.506674560546875,-0.0012404312146827579,-0.0004718434065580368,0.00024762749671936035
1773790584496637700,1.5266376953125,-0.0005387181881815195,-0.0008594873361289501,-0.0002399464137852192
1773790584516600600,1.5466005859375,0.0002765455865301192,0.0006533695850521326,-0.0016232896596193314
1773790584536563700,1.566563720703125,0.0006759658572264016,-0.0005976438988000154,0.0008684513159096241
1773790584556526600,1.586526611328125,-0.0003330106846988201,0.00018578185699880123,0.0012441091239452362
1773790584576489500,1.606489501953125,0.0020537441596388817,0.00003718957304954529,0.00024729734286665916
1773790584596452400,1.626452392578125,0.0013111267471686006,-0.0004912377335131168,0.0007772794924676418
1773790584616415500,1.64641552734375,-0.001216044882312417,0.0006734093185514212,-0.00028830766677856445
1773790584636378600,1.666378662109375,0.0007536811754107475,-0.0005884936545044184,-0.0006598345935344696
1773790584656341500,1.686341552734375,0.0007019167533144355,0.00006469758227467537,0.0013295719400048256
1773790584676304600,1.7063046875,0.000013422075426205993,-0.0004029734991490841,-0.0011363020166754723
1773790584696267500,1.726267578125,0.0000010434305295348167,-0.0002028022427111864,0.0005370639264583588
1773790584716230700,1.746230712890625,0.00017430100706405938,0.001439145882613957,0.0012809396721422672
1773790584736192000,1.76619189453125,0.0005557223921641707,0.00009716558270156384,-0.0004340321756899357
1773790584756156000,1.786156005859375,-0.0014023230178281665,0.0005411412566900253,0.0014478755183517933
1773790584776119000,1.806119140625,-0.00023626518668606877,-0.0007115181069821119,-0.0008473224006593227
1773790584796082000,1.82608203125,-0.0013906549429520965,-0.00028408924117684364,0.0002748854458332062
1773790584816045000,1.846045166015625,-0.0012362468987703323,0.0007839296013116837,-0.00027781398966908455
1773790584836008200,1.86600830078125,-0.00044993229676038027,0.0007043781224638224,0.0006141467019915581
1773790584855971000,1.88597119140625,-0.0009951154934242368,-0.0007373902481049299,-0.0001954883337020874
1773790584875934200,1.905934326171875,-0.0012584764044731855,0.0004285941831767559,0.000605536624789238
1773790584895897000,1.92589697265625,0.0003317076188977808,-0.000565545866265893,0.000915898010134697
1773790584915860200,1.945860107421875,-0.00004322969471104443,-0.00035350467078387737,-0.000292239710688591
1773790584935822800,1.96582275390625,-0.0007477671606466174,0.0007004626095294952,0.00011542486026883125
1773790584955786000,1.985785888671875,-0.0011534300865605474,0.0007463668007403612,0.0007207728922367096
1773790584975749000,2.0057490234375,-0.0004678347031585872,-0.0005407067947089672,0.0007254495285451412
1773790584995712000,2.0257119140625,0.0008150226203724742,0.0007437942549586296,0.0000034454278647899628
1773790585015675100,2.045675048828125,0.00016714350203983486,0.0007520799990743399,-0.00013107992708683014
1773790585035638000,2.065637939453125,0.0003084877389483154,0.00022709090262651443,-0.0000272984616458416
1773790585055601200,2.08560107421875,0.001052592066116631,-0.000514758750796318,-0.00034649530425667763
1773790585075564000,2.10556396484375,0.0003071252431254834,-0.0001306531485170126,-0.0000888151116669178
1773790585095527200,2.125527099609375,0.0001755141856847331,0.00020405207760632038,-0.000021437183022499084
1773790585115490000,2.145489990234375,-0.001642421237193048,0.00020233425311744213,-0.001108645461499691
1773790585135453000,2.165452880859375,-0.0014158643316477537,0.0002494188956916332,0.000008211471140384674
1773790585155416000,2.185416015625,0.00048245370271615684,0.0013176166685298085,-0.0008948692120611668
1773790585175379000,2.20537890625,0.00039236017619259655,-0.000029093120247125626,-0.0009512403048574924
1773790585195342000,2.225342041015625,0.0012121174950152636,0.0004391721449792385,0.0002964106388390064
1773790585215305200,2.24530517578125,0.0001553748152218759,-0.0001427805982530117,0.00015247752889990807
1773790585235268000,2.26526806640625,0.00007621402619406581,0.00027432129718363285,-0.00021017948165535927
1773790585255231200,2.285231201171875,-0.00037215976044535637,-0.000011788448318839073,-0.0012208628468215466
1773790585275194000,2.305194091796875,0.0007703925366513431,-0.0003341988194733858,0.0005085193552076817
1773790585295157000,2.325156982421875,-3.0934461392462254e-7,0.00017752242274582386,-0.0010777376592159271
1773790585315119900,2.345119873046875,-0.0005953773506917059,0.0003438240382820368,0.00040641799569129944
1773790585335083000,2.3650830078125,-0.001293848967179656,-0.001612343592569232,-0.00009445659816265106
1773790585355046100,2.385046142578125,0.000828846707008779,-0.0011035664938390255,-0.0009640185162425041
1773790585375009000,2.405009033203125,-0.0005386089324019849,-0.0005246005021035671,-0.0004352796822786331
1773790585394972200,2.42497216796875,0.00047855288721621037,-0.00010830140672624111,0.0003862162120640278
1773790585414935000,2.44493505859375,0.0006993792485445738,-0.0004900360945612192,-0.00011249212548136711
1773790585434898200,2.464898193359375,-0.0007567969150841236,0.001046482240781188,-0.00016673142090439796
1773790585454861000,2.484861083984375,-0.0008127669570967555,-0.0011040698736906052,0.00046903081238269806
1773790585474824000,2.504823974609375,0.00009548277739668265,-0.0004828937817364931,0.0004936531186103821
1773790585494787000,2.524787109375,-0.000577104976400733,-0.00035969982855021954,-0.0003100559115409851
1773790585514750000,2.54475,0.0005609199870377779,-0.00009331922046840191,0.0008355593308806419
1773790585534713000,2.564713134765625,0.0012034191749989986,0.000639189500361681,0.00025764061138033867
1773790585554676000,2.584676025390625,-0.0002458231174387038,0.00029579014517366886,0.00023847166448831558
1773790585574639000,2.60463916015625,0.00048812353634275496,-0.0003809372428804636,-0.001393849030137062
1773790585594602000,2.62460205078125,-0.00009510261588729918,0.0007558639626950026,0.00044064363464713097
1773790585614565000,2.644565185546875,-0.00032741064205765724,-0.0007439928594976664,0.0005123312585055828
1773790585634528300,2.6645283203125,-0.000005779613275080919,0.0005828633438795805,0.0004391404800117016
1773790585654491000,2.684490966796875,-0.0005462422268465161,0.0010457627940922976,0.00030037667602300644
1773790585674454000,2.7044541015625,-0.0009678005008026958,-0.0009528815280646086,-0.0007776455022394657
1773790585694417000,2.7244169921875,-0.0006899625877849758,0.0004405283834785223,-0.0002498938702046871
1773790585714380000,2.744380126953125,0.00011192700185347348,-0.0009384441655129194,0.0009623486548662186
1773790585734343400,2.764343505859375,-0.0009914461988955736,-0.0010755809489637613,-0.0009959782473742962
1773790585754306600,2.784306640625,0.0005804036045446992,0.00036077783443033695,0.000567917712032795
1773790585774269700,2.804269775390625,0.0010587857104837894,0.00021076318807899952,-0.0009801434352993965
1773790585794232600,2.824232666015625,0.0011028721928596497,-0.0004965763073414564,0.0008750865235924721
1773790585814195700,2.84419580078125,-0.0009395951637998223,0.001561712590046227,0.0011615986004471779
1773790585834158600,2.86415869140625,-0.0004416145966388285,-0.00035185343585908413,-0.0005933786742389202
1773790585854121500,2.88412158203125,-0.0005086650489829481,-0.00021931505762040615,-0.0006063655018806458
1773790585874084400,2.90408447265625,-0.00007276562973856926,0.000872734235599637,0.0007183291018009186
1773790585894047500,2.924047607421875,0.0005884417914785445,0.00011415267363190651,0.00007337890565395355
1773790585914011400,2.944011474609375,-0.0005984681774862111,0.0004969211295247078,0.0010062148794531822
1773790585933974500,2.963974609375,-0.000493378029204905,-0.0009420255664736032,0.0006999834440648556
1773790585953937400,2.9839375,0.0005664515774697065,0.000033514341339468956,-0.0007682750001549721
1773790585973900500,3.003900634765625,-0.000852760742418468,-0.00026540528051555157,-0.0005534477531909943
1773790585993863700,3.02386376953125,0.00028967115213163197,-0.00130912521854043,0.0010322271846234798
1773790586013826600,3.04382666015625,0.00041792920092120767,0.0000798709224909544,0.0004023779183626175
1773790586033789700,3.063789794921875,0.00039754295721650124,0.001167826121672988,-0.0007498846389353275
1773790586053752600,3.083752685546875,-0.0000797244138084352,-0.00048481603153049946,-0.0001628710888326168
1773790586073715500,3.103715576171875,0.0008914719801396132,-0.0009659428615123034,0.00047854334115982056
1773790586093678600,3.1236787109375,0.00004303813329897821,0.00018163537606596947,-0.0003968477249145508
1773790586113641500,3.143641357421875,-0.00007073432789184153,0.0005686604417860508,-0.0005576051771640778
1773790586133604600,3.1636044921875,-0.0012259637005627155,0.0006928429938852787,0.0003841300494968891
1773790586153567500,3.1835673828125,-0.0004426113737281412,0.0006015095859766006,0.00029716361314058304
1773790586173530600,3.203530517578125,0.000692234665621072,-0.0007703129667788744,-0.00009520119056105614
1773790586193493500,3.223493408203125,-0.0009344054851680994,0.0003033699467778206,-0.0010452549904584885
1773790586213456600,3.24345654296875,-0.0005267350352369249,0.0013431089464575052,0.000950964167714119
1773790586233419800,3.263419677734375,0.00021589791867882013,-0.00007708254270255566,0.00021949131041765213
1773790586253382400,3.28338232421875,0.0006613220321014524,0.00017793732695281506,-0.00003315182402729988
1773790586273345500,3.303345458984375,0.00037314079236239195,0.0009721575770527124,0.0007311650551855564
1773790586293308400,3.323308349609375,-0.00024317024508491158,-0.0002475923392921686,0.00014519505202770233
1773790586313271600,3.343271484375,-0.0000801522983238101,0.00043768039904534817,0.0004721996374428272
1773790586333234400,3.363234375,-0.00016131834127008915,-0.00040758284740149975,0.0010592890903353691
1773790586353197600,3.383197509765625,0.0009501871536485851,-0.0003460512962192297,0.0007324479520320892
1773790586373160700,3.40316064453125,0.0006532935658469796,0.0006982067134231329,-0.00043750740587711334
1773790586393123600,3.42312353515625,0.0000019807484932243824,-0.0009049554355442524,-0.0005478407256305218
1773790586413086700,3.443086669921875,0.0006204424425959587,0.0002538100816309452,0.000727308914065361
1773790586433049300,3.46304931640625,-0.00007786753121763468,0.0014722812920808792,0.0003378055989742279
1773790586453012500,3.483012451171875,0.00004313932731747627,0.00010315584950149059,0.0015410613268613815
1773790586472975600,3.5029755859375,0.0009374951478093863,0.0006812633946537971,0.00037810951471328735
1773790586492938500,3.5229384765625,-0.0003151930286549032,-0.00037268735468387604,0.001456279307603836
1773790586512901600,3.542901611328125,-0.0002576916594989598,-0.00042776763439178467,0.000004944857209920883
1773790586532864500,3.562864501953125,-0.000951120222453028,0.0003010204527527094,0.0005120327696204185
1773790586552827600,3.58282763671875,-0.000455087807495147,0.00018058624118566513,0.0014825318939983845
1773790586572790500,3.60279052734375,0.00008207710925489664,0.0003160960040986538,0.0006054681725800037
1773790586592753700,3.622753662109375,-0.0001079305075109005,0.00034694233909249306,0.0004339353181421757
1773790586612716800,3.642716796875,-0.0003701302339322865,-0.0002355370670557022,0.0006315372884273529
1773790586632679400,3.662679443359375,-0.000730955449398607,0.001865549013018608,-0.0005433047190308571
1773790586652642600,3.682642578125,0.0001808264059945941,-0.000053604599088430405,-0.000328943133354187
1773790586672605400,3.70260546875,-0.00019183621043339372,-0.00017362390644848347,0.0008866721764206886
1773790586692568600,3.722568603515625,0.0008326472016051412,-0.00014467979781329632,0.0009479755535721779
1773790586712531500,3.742531494140625,0.000966949388384819,0.0000517331063747406,0.00136910704895854
1773790586732494600,3.76249462890625,0.000762703362852335,0.00017343624494969845,-0.000606960617005825
1773790586752457500,3.78245751953125,-0.0006975704454816878,0.0010151586029678583,0.0017641326412558556
1773790586772420400,3.80242041015625,0.00011875873315148056,0.0004305036272853613,0.00009566079825162888
1773790586792383500,3.822383544921875,0.0005362682859413326,0.001175204641185701,0.0005107950419187546
1773790586812346400,3.842346435546875,0.0007328387582674623,0.00048529100604355335,0.0006689019501209259
1773790586832309500,3.8623095703125,0.0008031859179027379,-0.00019643898122012615,-0.0004577259533107281
1773790586852272400,3.8822724609375,0.0006823118892498314,0.0007229594048112631,-0.0021508680656552315
1773790586872235500,3.902235595703125,-0.0005773143493570387,0.0009760898537933826,0.0005687852390110493
1773790586892198400,3.922198486328125,-0.0009559910977259278,-0.0003490322269499302,0.0007445286028087139
1773790586912161300,3.942161376953125,-0.0016757994890213013,-0.0003243058454245329,-0.0009371270425617695
1773790586932124400,3.96212451171875,-0.0027458046097308397,0.00018605892546474934,0.0004390925168991089
1773790586952087300,3.98208740234375,-0.0010218176757916808,-0.00048487563617527485,-0.00047957710921764374
1773790586972050400,4.002050537109375,0.0007029522676020861,0.0000886016059666872,-0.000023787841200828552
1773790586992013600,4.022013671875,0.00044595354120247066,-0.00012204865925014019,-0.0010162009857594967
1773790587011976400,4.0419765625,0.0006001322180964053,0.0004175771027803421,0.001236247830092907
1773790587031939600,4.061939697265625,0.0006423638551495969,-0.0015333457849919796,0.0003515784628689289
1773790587051902500,4.08190234375,0.0005817041383124888,-0.0004291555378586054,-0.00014048628509044647
1773790587071865300,4.101865234375,-0.0009526675567030907,0.00003134668804705143,0.0006923847831785679
1773790587091828200,4.121828125,0.00001627331948839128,-0.0004988154396414757,0.0006157737225294113
1773790587111791400,4.141791259765625,0.0002233838604297489,-0.0004240225534886122,0.0000379965640604496
1773790587131754500,4.16175439453125,0.00004331086529418826,0.0005519739352166653,-0.00008720951154828072
1773790587151717400,4.18171728515625,-0.00034948549000546336,0.0012946765637025237,-0.0007384074851870537
1773790587171680500,4.201680419921875,-0.00032661965815350413,-0.001320043345913291,-0.0005062194541096687
1773790587191643400,4.221643310546875,0.00022693522623740137,0.0010893995640799403,0.0004184497520327568
1773790587211606500,4.2416064453125,-0.0007549855508841574,-0.0007800415623933077,0.0004363027401268482
1773790587231569400,4.2615693359375,0.000272116536507383,-0.0005364010576158762,0.0013070660643279552
1773790587251532300,4.2815322265625,-0.00020455961930565536,-0.0008342461660504341,-0.0008278051391243935
1773790587271495400,4.301495361328125,-0.0008322439971379936,-0.0006798640824854374,0.0006853691302239895
1773790587291458300,4.321458251953125,0.0002900234831031412,-0.00045531243085861206,-0.0001711566001176834
1773790587311421400,4.34142138671875,0.0017253129044547677,0.00007384526543319225,0.0005004615522921085
1773790587331384300,4.36138427734375,-0.0007654259679839015,0.0004833431448787451,-0.0002972465008497238
1773790587351347500,4.381347412109375,-0.0007898168405517936,-0.000821875873953104,-0.0007293503731489182
1773790587371310600,4.401310546875,-0.0006952103576622903,0.0006402609869837761,-0.0013208342716097832
1773790587391273500,4.4212734375,0.0008118344703689218,-0.00026368768885731697,-0.0002556163817644119
1773790587411236600,4.441236572265625,0.0004117119824513793,-0.0001081656664609909,-0.0002943077124655247
1773790587431199500,4.461199462890625,-0.0005025396239943802,-0.00013164477422833443,0.0009177746251225471
1773790587451162400,4.481162353515625,-0.0002790240687318146,0.00017502601258456707,-0.00023380201309919357
1773790587471125200,4.501125244140625,0.000802049005869776,-0.0009632136207073927,0.00047183455899357796
1773790587491088400,4.52108837890625,-0.0006144201615825295,0.0008740380872040987,0.0006634262390434742
1773790587511051500,4.541051513671875,0.0011518337996676564,-0.000837784493342042,-0.0006013549864292145
1773790587531014400,4.561014404296875,-0.00003643039963208139,0.00016279704868793488,0.0003645392134785652
1773790587550977500,4.5809775390625,0.0006906170747242868,-0.0007100931834429502,0.0002355477772653103
1773790587570940400,4.6009404296875,-0.0011940047843381763,0.00210977578535676,0.0010285484604537487
1773790587590903600,4.620903564453125,-0.0005715209990739822,0.0011047235457226634,0.00042816856876015663
1773790587610866400,4.640866455078125,0.0001756583951646462,0.0005712427664548159,0.0006022490561008453
1773790587630829300,4.660829345703125,0.0003496181743685156,-0.00043591135181486607,-0.0014125830493867397
1773790587650792400,4.68079248046875,-0.00017817379557527602,-0.00007121195085346699,-0.00023690657690167427
1773790587670755300,4.70075537109375,-0.000572701042983681,-0.0000033190008252859116,-0.000502072274684906
1773790587690718500,4.720718505859375,-0.00006417902477551252,0.00004704250022768974,-0.0004171151667833328
1773790587710681300,4.740681396484375,-0.0001568639709148556,0.001146792434155941,0.0008255750872194767
1773790587730644500,4.76064453125,0.0003570857224985957,0.00035307276993989944,-0.0001462753862142563
1773790587750607400,4.780607421875,-0.0007742808666080236,0.0008800171781331301,-0.0007121860980987549
1773790587770570000,4.800570068359375,-0.0003378524270374328,0.0002246466465294361,-0.0003387616015970707
1773790587790533000,4.820533203125,0.00036805978743359447,0.0006343706045299768,-0.00017119105905294418
1773790587810496000,4.84049609375,-0.000046160712372511625,0.0007861852645874023,-0.0001369202509522438
1773790587830459100,4.860459228515625,0.0001307468774029985,0.000015932368114590645,0.0008299835026264191
1773790587850422000,4.880422119140625,-0.001000155694782734,-0.0003221232909709215,-0.0010456661693751812
1773790587870385200,4.90038525390625,0.0014926965814083815,0.0002512880600988865,-0.0008078385144472122
1773790587890348300,4.920348388671875,-0.0002905212459154427,0.0006209707353264093,0.00032783299684524536
1773790587910311200,4.940311279296875,0.0004362796316854656,-0.000005745561793446541,0.001154259778559208
1773790587930274300,4.9602744140625,-0.0008298782631754875,0.0000493382103741169,-0.0015232106670737267
1773790587950237000,4.98023681640625,-0.0001494167372584343,-0.00022121984511613846,0.0005955435335636139
1773790587970200000,5.000199951171875,0.0010065485257655382,-0.0008549785707145929,-0.0002638264559209347
1773790587990163200,5.0201630859375,0.0003546946682035923,-0.0012518875300884247,0.001180148683488369
1773790588010126000,5.0401259765625,0.00028357241535559297,-0.0004616279620677233,0.0002921661362051964
1773790588030089200,5.060089111328125,0.0007118098437786102,-0.00030954834073781967,0.00018396833911538124
1773790588050052000,5.080052001953125,-0.0006655660108663142,0.0012192589929327369,-0.00008024042472243309
1773790588070015200,5.10001513671875,-0.0013513007434085011,-0.0008383768144994974,0.0010778801515698433
1773790588089978000,5.11997802734375,-0.0008465875871479511,0.00004135631024837494,-0.0002758675254881382
1773790588109940000,5.13993994140625,0.0006715933559462428,0.00031781382858753204,-0.0003820178098976612
1773790588129903000,5.159903076171875,0.0008336802129633725,-0.00008906912989914417,-0.0006833197548985481
1773790588149866000,5.179865966796875,-0.00016055841115303338,-0.0005295085720717907,0.00016983924433588982
1773790588169829000,5.1998291015625,0.00021658989135175943,0.00019811931997537613,-0.0001253918744623661
1773790588189792300,5.219792236328125,0.0006775364745408297,-0.00007389974780380726,0.0017987880855798721
1773790588209755100,5.239755126953125,0.0008261279435828328,-0.000786986667662859,0.0017713364213705063
1773790588229718300,5.25971826171875,-0.0006450280779972672,0.0012018514098599553,-0.0006850720383226871
1773790588249681200,5.27968115234375,-0.00018674699822440743,0.0010985566768795252,-0.0006478568539023399
1773790588269644300,5.299644287109375,-0.0009206748800352216,0.00026307161897420883,0.0005678478628396988
1773790588289607200,5.319607177734375,-0.0006079907761886716,-0.0005271988920867443,-0.0017545344308018684
1773790588309570000,5.339570068359375,-0.0006519440212287009,-0.0002966797910630703,-0.00035191094502806664
1773790588329533200,5.359533203125,-0.0007740597939118743,-0.00015058042481541634,-0.0001496151089668274
1773790588349496000,5.37949609375,-0.00037289783358573914,-0.0004378175362944603,0.0005730069242417812
1773790588369459200,5.399459228515625,-0.0006206024554558098,-0.0010802687611430883,-0.000714731402695179
1773790588389422000,5.419422119140625,0.00014207880303729326,0.0006228310521692038,0.00040570227429270744
1773790588409385200,5.43938525390625,0.0005223259795457125,0.00023504719138145447,0.0014627440832555294
1773790588429348400,5.459348388671875,-0.0009312441106885672,-0.0006472081877291203,-0.0003066915087401867
1773790588449311200,5.479311279296875,-0.0006232444429770112,-0.00004435982555150986,0.0008209855295717716
1773790588469274000,5.499274169921875,-0.000136889168061316,0.0005201250314712524,0.0018453062511980534
1773790588489237000,5.519237060546875,-0.0005563652375712991,0.00011763488873839378,0.000036090146750211716
1773790588509200100,5.5392001953125,0.001265985076315701,-0.00003499956801533699,0.0014872578904032707
1773790588529163000,5.5591630859375,-0.00082450732588768,-0.0005165270995348692,0.00047192396596074104
1773790588549126100,5.579126220703125,-0.0003135902516078204,-0.0006207386031746864,0.00023868493735790253
1773790588569089300,5.59908935546875,-0.00007856416050344706,0.0004226416349411011,-0.00029932474717497826
1773790588589052200,5.61905224609375,0.000058132660342380404,0.0007566779386252165,-0.001480013132095337
1773790588609015300,5.639015380859375,0.001551558030769229,-0.00041861296631395817,-0.0005076974630355835
1773790588628978200,5.658978271484375,0.0013822956243529916,0.00035051885060966015,-0.00017031095921993256
1773790588648941000,5.678941162109375,0.000014494347851723433,-0.001107564428821206,0.000010798219591379166
1773790588668904200,5.698904296875,0.0019746595062315464,-0.00042991689406335354,-0.00025642476975917816
1773790588688867000,5.7188671875,-0.00032540460233576596,0.000628339359536767,-0.0010028155520558357
1773790588708830200,5.738830322265625,0.0004562318790704012,-0.0000015979167073965073,0.0006446070037782192
1773790588728793000,5.75879296875,-0.00007415740401484072,-0.00015416997484862804,-0.0001333765685558319
1773790588748756500,5.778756591796875,0.0016629963647574186,-0.0006169241387397051,-0.00008416455239057541
1773790588768719400,5.79871923828125,-0.00014668423682451248,-0.00010774959810078144,0.00013883039355278015
1773790588788682500,5.8186826171875,-0.0009788223542273045,-0.0009582187049090862,0.0010548792779445648
1773790588808645400,5.838645263671875,0.0014234845293685794,0.0003689879085868597,0.0002467939630150795
1773790588828608300,5.858608154296875,-0.0004612448101397604,-0.000686895102262497,0.0005476116202771664
1773790588848571400,5.8785712890625,-0.00041634246008470654,0.000006065238267183304,-0.000030689407140016556
1773790588868534300,5.8985341796875,-0.00036582647589966655,0.000032557640224695206,0.000032508280128240585
1773790588888497400,5.918497314453125,-0.0007583684055134654,0.0007408924866467714,-0.00014029443264007568
1773790588908460300,5.938460205078125,0.0003806925960816443,0.0017216618871316314,0.00046836165711283684
1773790588928423400,5.95842333984375,-0.0011701349867507815,-0.00015453598462045193,-0.00033348798751831055
1773790588948386300,5.97838623046875,-0.00041048164712265134,0.00042724679224193096,-0.0000651325099170208
1773790588968349400,5.998349365234375,-0.0010710046626627445,0.000949198380112648,0.0008517182432115078
1773790588988312600,6.0183125,-0.0008086971356533468,0.0006838864646852016,-0.0008694147691130638
1773790589008275500,6.038275390625,0.0006288798758760095,0.0007387730292975903,-0.0004937765188515186
1773790589028238300,6.05823828125,0.0006044151959940791,0.00011307303793728352,-0.0004935264587402344
1773790589048201200,6.078201171875,0.0006200706120580435,-0.0001624638680368662,-0.000251655001193285
1773790589068164400,6.098164306640625,-0.0003800096455961466,0.0005050934851169586,0.0004425244405865669
1773790589088127500,6.11812744140625,0.0005115809035487473,0.001047008205205202,0.00117836007848382
1773790589108090400,6.13809033203125,0.00009231838339474052,0.000255681574344635,-0.00024232547730207443
1773790589128053500,6.158053466796875,0.00041513051837682724,0.0010650816839188337,-0.0007633133791387081
1773790589148016400,6.178016357421875,-0.0003551242407411337,0.0013592380564659834,0.0006738794036209583
1773790589167979500,6.1979794921875,-0.00035800773184746504,0.001137236598879099,-0.0003922893665730953
1773790589187942400,6.2179423828125,-0.00109598389826715,0.00020435568876564503,-0.00010482082143425941
1773790589207905300,6.2379052734375,0.00044943916145712137,0.000884797889739275,0.0006627710536122322
1773790589227867400,6.257867431640625,0.00027877604588866234,0.00032168743200600147,-0.00004158448427915573
1773790589247830300,6.277830322265625,0.0011344619560986757,-0.0004324372857809067,0.0003824993036687374
1773790589267793400,6.29779345703125,0.00042251963168382645,0.0006344444118440151,-0.0007753139361739159
1773790589287756500,6.317756591796875,0.00022081728093326092,0.00006463914178311825,-0.00016946205869317055
1773790589307719400,6.337719482421875,0.00006985750223975629,0.0019170691957697272,-0.0009362534619867802
1773790589327682600,6.3576826171875,0.0000299038365483284,0.0010711044305935502,0.00008944468572735786
1773790589347645200,6.377645263671875,-0.00012201417121104896,-0.00005916808731853962,0.0008563399314880371
1773790589367608300,6.3976083984375,-0.00019848023657687008,-0.0003459423314779997,-0.0006114323623478413
1773790589387571500,6.417571533203125,0.000922171282581985,-0.0009220081847161055,0.0005533504299819469
1773790589407534300,6.437534423828125,0.0006045638583600521,0.0010043997317552567,-0.0013264650478959084
1773790589427497500,6.45749755859375,-0.0006686652195639908,0.00037826504558324814,0.0020335628651082516
1773790589447460400,6.47746044921875,-0.00040728182648308575,0.0005009316373616457,0.00032667769119143486
1773790589467423500,6.497423583984375,0.0001353624538751319,0.0005354115273803473,0.0005126888863742352
1773790589487386400,6.517386474609375,-0.0004729199572466314,0.0002522929571568966,-0.0012199562042951584
1773790589507349500,6.537349609375,0.00025949429254978895,0.0005635309498757124,0.00031445780768990517
1773790589527312400,6.5573125,-0.00009222465450875461,-0.000567261129617691,-0.0005370303988456726
1773790589547275300,6.577275146484375,-0.0009575267904438078,-0.0004700177814811468,-0.0008219783194363117
1773790589567238400,6.59723828125,0.000014551682397723198,0.000605426263064146,0.0017691617831587791
1773790589587201300,6.617201171875,-0.0003995428269263357,0.00127417070325464,0.00158375920727849
1773790589607164400,6.637164306640625,-0.0006373653886839747,-0.00004995870403945446,0.000825204886496067
1773790589627127300,6.657127197265625,-0.0005261314800009131,-0.0008495224174112082,0.0003976747393608093
1773790589647090400,6.67709033203125,-0.0012878644047304988,-0.00045377761125564575,0.00019801734015345573
1773790589667053600,6.697053466796875,0.001685325987637043,-0.0016095626633614302,0.0009853485971689224
1773790589687016400,6.717016357421875,-0.0009808778995648026,-0.001045407261699438,0.0007373322732746601
1773790589706979300,6.736979248046875,-0.00010242866119369864,-0.0001375391148030758,-0.0006904462352395058
1773790589726942200,6.756942138671875,0.00035918643698096275,-0.00011725025251507759,-0.00010459031909704208
1773790589746905300,6.7769052734375,0.0005944956792518497,0.0010496822651475668,-0.0001638391986489296
1773790589766868500,6.796868408203125,0.0002877880760934204,0.000245407922193408,0.0013519921340048313
1773790589786831400,6.816831298828125,-0.0005200234591029584,0.00023500435054302216,0.0011409907601773739
1773790589806794200,6.836794189453125,0.00045678310561925173,0.001065384945832193,0.000841198954731226
1773790589826757000,6.856757080078125,0.0001438058534404263,-0.0006466265767812729,0.001347987912595272
1773790589846720300,6.87672021484375,-0.00004093637107871473,-0.0005548726767301559,-0.001144633162766695
1773790589866683100,6.89668310546875,-0.00023165144375525415,-0.00138952792622149,0.0006043189205229282
1773790589886646300,6.916646240234375,-0.00042041862616315484,-0.00025981804355978966,0.0008715852163732052
1773790589906609400,6.936609375,-0.00006811751518398523,0.0004822800401598215,-0.000743902288377285
1773790589926572300,6.956572265625,-0.0002937719982583076,0.0001749924849718809,-0.0002619922161102295
1773790589946535400,6.976535400390625,-0.000391576875699684,0.000177319860085845,0.000269514974206686
1773790589966498300,6.996498291015625,0.000009013339877128601,-0.0010720307473093271,0.0002513118088245392
1773790589986461200,7.016461181640625,0.00007192487828433514,-0.0006107166409492493,-0.00042228447273373604
1773790590006424000,7.036424072265625,0.0007257015677168965,-0.0002019559033215046,-0.0006504794582724571
1773790590026387200,7.05638720703125,0.0020552899222820997,0.0003373140934854746,-0.0002374490723013878
1773790590046350300,7.076350341796875,0.0004170032625552267,-0.0006418675184249878,-0.0014293105341494083
1773790590066313200,7.096313232421875,0.00045714943553321064,-0.0005475119687616825,0.00034310808405280113
1773790590086276400,7.1162763671875,0.0016569498693570495,-0.00029201339930295944,0.0007181656546890736
1773790590106239200,7.1362392578125,-0.0007303920574486256,0.000465993769466877,-0.0007310919463634491
1773790590126202400,7.156202392578125,0.0005779642378911376,0.0011814116733148694,-0.000016535166651010513
1773790590146165200,7.176165283203125,-0.00030754884937778115,-0.0015205265954136848,-0.00017671473324298859
1773790590166128000,7.196128173828125,-0.0008502935525029898,-0.0013108383864164352,-0.0011100061237812042
1773790590186091300,7.21609130859375,0.00011469960736576468,-0.0003081678878515959,-0.0003356519155204296
1773790590206053400,7.236053466796875,-0.0004701242141891271,0.0003145236987620592,-0.0002634660340845585
1773790590226016300,7.256016357421875,-0.000576383899897337,-0.00013510463759303093,0.00039360951632261276
1773790590245979400,7.2759794921875,-0.00031226957798935473,-0.000815114937722683,0.0005410662852227688
1773790590265942300,7.2959423828125,0.0009903897298499942,0.0008365618996322155,0.0004895534366369247
1773790590285905400,7.315905517578125,-0.0001131405879277736,0.0011481064138934016,-0.00045155594125390053
1773790590305868000,7.335867919921875,0.0003330366453155875,-0.0006799998227506876,-0.0005735941231250763
1773790590325831200,7.3558310546875,0.0014986655442044139,0.00013117236085236073,-0.0003544301725924015
1773790590345794300,7.375794189453125,0.0016171886818483472,-0.00029910472221672535,0.0011626477353274822
1773790590365757200,7.395757080078125,0.0010978813515976071,-0.0007388894446194172,-0.001312208827584982
1773790590385720300,7.41572021484375,0.00000952079426497221,0.0007630409672856331,0.000759646762162447
1773790590405683200,7.43568310546875,0.0006710501620545983,-0.0005675805732607841,0.00008472707122564316
1773790590425646300,7.455646240234375,-0.0002536933752708137,-0.0009892983362078667,-0.00016978755593299866
1773790590445609200,7.475609130859375,-0.00013109843712300062,0.0007403776980936527,-0.000574714969843626
1773790590465572400,7.495572265625,0.0004369595553725958,-0.00007568439468741417,-0.0008849343284964561
1773790590485535500,7.515535400390625,0.00039917518734000623,0.0004395542200654745,0.001346768345683813
1773790590505498000,7.535498046875,-0.0012185584055259824,0.0010522262891754508,-0.0015677413903176785
1773790590525461200,7.555461181640625,0.0006526503711938858,-0.0006958108860999346,0.0017041061073541641
1773790590545424100,7.575424072265625,0.0003460261505097151,-0.00013151275925338268,0.0003405781462788582
1773790590565387300,7.59538720703125,0.0008623419562354684,-0.00026596267707645893,-0.00010867277160286903
1773790590585350400,7.615350341796875,0.0003268529544584453,0.00009416299872100353,0.0019566244445741177
1773790590605313300,7.635313232421875,-0.00015305078704841435,0.0005148991476744413,-0.001538613811135292
1773790590625276400,7.6552763671875,0.00029574567452073097,0.0006674099713563919,-0.0011614924296736717
1773790590645239300,7.6752392578125,0.0004239793634042144,-0.00016687344759702682,-0.000458321999758482
1773790590665202400,7.695202392578125,0.0005170791409909725,-0.0011953169014304876,0.002138438867405057
1773790590685165000,7.7151650390625,0.0002638096921145916,-0.0009808437898755074,0.0009127226658165455
1773790590705128200,7.735128173828125,0.0001709549396764487,-0.00007050205022096634,0.0011018658988177776
1773790590725091300,7.75509130859375,-0.001479672733694315,0.0005585711915045977,0.0008141468279063702
1773790590745054200,7.77505419921875,-0.00008851414895616472,-0.00007062964141368866,0.00044844578951597214
1773790590765017000,7.79501708984375,-0.0006050649099051952,-0.00007274164818227291,-0.0004264400340616703
1773790590784980000,7.81497998046875,0.000004445930244401097,0.000028221402317285538,0.00027459766715765
1773790590804943000,7.834943115234375,0.00044495603651739657,0.0001683796290308237,0.0009709526784718037
1773790590824906000,7.854906005859375,-0.00024823343846946955,-0.0010804343037307262,-0.0006305095739662647
1773790590844869000,7.874869140625,0.00047196607920341194,-0.0005625290796160698,0.0015402627177536488
1773790590864832300,7.894832275390625,0.00027563475305214524,0.00009964965283870697,-0.001028203871101141
1773790590884795100,7.914795166015625,0.0015004848828539252,-0.00029566301964223385,-0.0014249379746615887
1773790590904758300,7.93475830078125,-0.00018218110199086368,0.000029134098440408707,0.00023192958906292915
1773790590924721200,7.95472119140625,0.000642472761683166,0.000961837125942111,-0.00030970992520451546
1773790590944683000,7.97468310546875,-0.00045822493848390877,-0.00034660077653825283,-0.00045285793021321297
1773790590964646100,7.994646240234375,-0.0008781731012277305,-0.00019381940364837646,0.0012324023991823196
1773790590984609000,8.014609130859375,0.00006604442023672163,-0.00037467083893716335,0.0009035025723278522
1773790591004572200,8.034572265625,0.00014160212595015764,0.00023613381199538708,0.001506592147052288
1773790591024535300,8.054535400390625,0.0006606893730349839,-0.00003325962461531162,0.0009376914240419865
1773790591044498200,8.074498291015624,0.00022515392629429698,-0.0002537278924137354,-0.0003083418123424053
1773790591064461300,8.09446142578125,0.0019269315525889397,0.00043551926501095295,-0.00004050135612487793
1773790591084424200,8.114424072265624,0.0017312509007751942,0.00013379985466599464,-0.00015904847532510757
1773790591104387000,8.134386962890625,0.0008798429043963552,-0.0000024724286049604416,-0.00019070645794272423
1773790591124350000,8.154349853515624,0.00003224724787287414,0.0005525446031242609,-0.0013867751695215702
1773790591144313000,8.17431298828125,0.00026909945881925523,0.0003681797534227371,-0.0005027474835515022
1773790591164276200,8.194276123046874,0.00043522188207134604,-0.0003005817998200655,0.0003864034079015255
1773790591184239000,8.214239013671875,-0.0006369435577653348,-0.0009389093611389399,-0.0010949750430881977
1773790591204202200,8.2342021484375,0.0001920401700772345,-0.00036365375854074955,0.00024071428924798965
1773790591224165000,8.2541650390625,-0.0005314963636919856,0.0010272543877363205,0.00015846733003854752
1773790591244128300,8.274128173828124,0.00016766152111813426,0.00025027268566191196,-0.00008805282413959503
1773790591264091100,8.294091064453125,0.0006930755916982889,0.00041206483729183674,0.0006431653164327145
1773790591284054000,8.314053955078125,0.0008242089534178376,-0.0001120490487664938,0.00014047976583242416
1773790591304017200,8.33401708984375,0.00014628429198637605,-0.00014577480033040047,0.0006275488995015621
1773790591323980000,8.35397998046875,0.001055614440701902,0.0004458320327103138,-0.0005463985726237297
1773790591343943200,8.373943115234376,-0.0003094489511568099,0.00034834700636565685,0.0010184654965996742
1773790591363906000,8.393906005859375,0.0005960770649835467,0.0007758487481623888,-0.0008395961485803127
1773790591383869200,8.413869140625,-0.0008603297173976898,0.0007371525280177593,0.00005204696208238602
1773790591403832300,8.433832275390625,0.000030121853342279792,-0.0009257225319743156,0.0018223118968307972
1773790591423795200,8.453795166015626,0.00001913701999001205,-0.0010863656643778086,0.0009207115508615971
1773790591443758300,8.47375830078125,-0.0006513749249279499,-0.0005016361828893423,-0.0007486776448786259
1773790591463721000,8.493720947265626,-0.0004883279325440526,0.0005855197086930275,-0.0008655088022351265
1773790591483684000,8.51368408203125,0.0019578756764531136,-0.0005727140232920647,0.0002263844944536686
1773790591503647000,8.53364697265625,-0.0007049108389765024,0.0006904674228280783,0.0008946671150624752
1773790591523609000,8.553609130859375,-0.00021025369642302394,0.0008856337517499924,0.0010260730050504208
1773790591543572200,8.573572265625,0.00012328289449214935,0.0005820994265377522,-0.00024951715022325516
1773790591563535000,8.59353515625,0.0006092278053984046,-0.0009021214209496975,-0.0011842441745102406
1773790591583498200,8.613498291015626,-0.00010215851943939924,-0.0004139365628361702,-0.000401404220610857
1773790591603461000,8.633461181640625,0.0004197806410957128,0.00045800069347023964,0.00019245222210884094
1773790591623424000,8.653424072265626,0.000594495446421206,0.0003045292105525732,0.0007603466510772705
1773790591643387100,8.67338720703125,-0.000672442140057683,0.0001981416717171669,-0.0003650207072496414
1773790591663350000,8.69335009765625,-0.000027722446247935295,-0.0007653916254639626,0.00011320924386382103
1773790591683313200,8.713313232421875,0.0009950745152309537,-0.0009077205322682858,-0.00044565368443727493
1773790591703276000,8.733276123046876,0.0009496365673840046,-0.0007472594734281301,-0.0006905253976583481
1773790591723239200,8.7532392578125,0.0010362030006945133,-0.00017921091057360172,-0.000046483706682920456
1773790591745698800,8.77569873046875,0.0002828518918249756,-0.0022629844024777412,-0.00008232332766056061
1773790591765661700,8.79566162109375,-0.0009155445732176304,-0.0001776600256562233,0.0002083880826830864
1773790591785624800,8.815624755859375,0.0027030992787331343,0.0003945976495742798,-0.00025161122903227806
1773790591805587500,8.83558740234375,0.0003104271600022912,0.0011764202499762177,-0.001050738152116537
1773790591825550600,8.855550537109375,0.00032019801437854767,-0.0005333388689905405,0.0012508081272244453
1773790591845513500,8.875513427734376,0.0010438502067700028,-0.0005935980007052422,-0.0012592351995408535
1773790591865476600,8.8954765625,-0.0005398245411925018,0.0007518590427935123,-0.0009760572575032711
1773790591885439700,8.915439697265626,-0.0006853131926618516,-0.0006184566300362349,-0.0014623720198869705
1773790591905402600,8.935402587890625,0.00036284071393311024,0.0012787200976163149,-0.0007159360684454441
1773790591925365800,8.95536572265625,0.0006819943664595485,0.0002661484759300947,-0.0006101028993725777
1773790591945328600,8.97532861328125,-0.00030868183239363134,-0.000495856860652566,0.0006976942531764507
1773790591965291800,8.995291748046874,0.00004357006400823593,0.0008892390178516507,-0.000410410575568676
1773790591985254400,9.01525439453125,-0.0012131183175370097,0.001575534581206739,-0.0005832803435623646
1773790592005217500,9.035217529296874,0.0005879544769413769,0.0004744958132505417,-0.0000074482522904872894
1773790592025179600,9.0551796875,0.0005920380353927612,-0.0004068659618496895,-0.0010113571770489216
1773790592045142500,9.075142578125,-0.0006754888454452157,-0.0011790641583502293,-0.001670097466558218
1773790592065105700,9.095105712890625,0.0006233877502381802,0.0010586876887828112,-0.0006367601454257965
1773790592085068800,9.11506884765625,0.0002600005827844143,0.00023082341067492962,-0.00008830800652503967
1773790592105031700,9.13503173828125,-0.00009537910227663815,-0.0009385896846652031,-0.000977114774286747
1773790592124994800,9.154994873046874,-0.0009219121420755982,0.0001096036285161972,-0.00046842126175761223
1773790592144957400,9.17495751953125,0.0004944091197103262,-0.00013104546815156937,-0.00033634062856435776
1773790592164920600,9.194920654296874,-0.0005175842670723796,0.0001728369388729334,-0.0009543518535792828
1773790592184882700,9.214882568359375,0.0002684335340745747,-0.0013047372922301292,0.0009122341871261597
1773790592204845600,9.234845458984376,0.0014432343887165189,-0.0008456453215330839,-0.0005847224965691566
1773790592224808700,9.25480859375,-0.0011598438723012805,0.001214375952258706,-0.0008564121089875698
1773790592244771800,9.274771728515624,0.0014197168638929725,0.000050159404054284096,-0.0009617237374186516
1773790592264734700,9.294734619140625,0.0012201068457216024,0.0002926122397184372,-0.001161215826869011
1773790592284697600,9.314697509765624,-0.0004520683432929218,-0.0005842663813382387,0.000984556507319212
1773790592304660500,9.334660400390625,-0.00021856630337424576,-0.00038680853322148323,0.00023770146071910858
1773790592324623600,9.35462353515625,-0.0003794826043304056,0.0002855351194739342,-0.0004987334832549095
1773790592344586500,9.37458642578125,-0.00046705780550837517,-0.0009862561710178852,0.0009338702075183392
1773790592364549600,9.394549560546874,0.0007697518449276686,-0.000044854357838630676,-0.00006837304681539536
1773790592384512800,9.4145126953125,0.0008841295493766665,0.0004869271069765091,-0.0006255041807889938
1773790592404475600,9.4344755859375,0.00010031534475274384,-0.000012748641893267632,0.0003158967010676861
1773790592424438800,9.454438720703125,-0.0003430067445151508,-0.0010223055724054575,-0.000926644541323185
1773790592444401700,9.474401611328124,-0.001813202165067196,-0.0005403014365583658,-0.0006985152140259743
1773790592464364500,9.494364501953125,0.0006672104354947805,-0.0006725480780005455,0.0003129793331027031
1773790592484327700,9.51432763671875,0.00073139404412359,-0.00008202344179153442,-0.0018517300486564636
1773790592504290600,9.53429052734375,-0.0006583532667718828,0.00017107417806982994,-0.001845718827098608
1773790592524253700,9.554253662109375,0.0006204445380717516,-0.000047803157940506935,-0.0005519683472812176
1773790592544216600,9.574216552734375,0.0006962622283026576,-0.0015799179673194885,0.000024677719920873642
1773790592564179700,9.5941796875,-0.0007990909507498145,-0.0006813560612499714,-0.002585542853921652
1773790592584142600,9.614142578125,0.0012059180298820138,0.0003580248448997736,-0.00020552659407258034
1773790592604105700,9.634105712890625,0.00026928316219709814,0.000232672318816185,0.00041774334385991096
1773790592624068900,9.65406884765625,0.000019920116756111383,-0.0010335303377360106,-0.00035575171932578087
1773790592644030500,9.674030517578124,-0.0007111834129318595,0.0004911669529974461,0.0011020982638001442
1773790592663993600,9.69399365234375,0.001251669367775321,-0.0008788220584392548,-0.001562850084155798
1773790592683956700,9.713956787109375,-0.0006559264147654176,0.00018103746697306633,0.0005059023387730122
1773790592703919600,9.733919677734375,0.0004380730679258704,0.0007599866949021816,-0.0006161532364785671
1773790592723882800,9.7538828125,0.00017391040455549955,0.000548217911273241,-0.0008781934157013893
1773790592743845000,9.77384521484375,0.0002550871577113867,-0.0008544742595404387,-0.000393514521420002
1773790592763808300,9.793808349609375,0.000463414064142853,0.00019560754299163818,0.00012625893577933311
1773790592783771400,9.813771484375,0.0013046725653111935,0.0005188877694308758,0.0003136070445179939
1773790592803734300,9.833734375,0.000713975983671844,0.0007224699947983027,0.0001155356876552105
1773790592823697400,9.853697509765626,0.0007455758168362081,-0.00004242383874952793,-0.0004353197291493416
1773790592843660300,9.873660400390625,0.0006636652396991849,0.0005496018566191196,0.00033404119312763214
1773790592863623400,9.89362353515625,0.0004037122998852283,-0.0007266816683113575,0.0002463306300342083
1773790592883586000,9.9135859375,0.0004052288131788373,-0.0001477617770433426,-0.00015295343473553658
1773790592903549200,9.933549072265626,0.0003918609581887722,0.000675934599712491,-0.0006766254082322121
1773790592923512300,9.95351220703125,0.00008938592509366572,-0.00032845628447830677,-0.00015468429774045944
1773790592943475200,9.97347509765625,-0.00014911903417669237,-0.00011293590068817139,0.0015175002627074718
1773790592963438300,9.993438232421875,0.0014873123727738857,-0.0012204025406390429,-0.0006271097809076309
1773790592983401200,10.013401123046876,-0.00022209325106814504,0.0006663647945970297,-0.0007649674080312252
1773790593003364400,10.0333642578125,0.00023235239495988935,0.0013979146024212241,0.00010114535689353943
1773790593023326200,10.053326171875,-0.00004398735472932458,0.0006096500437706709,0.00017197802662849426
1773790593043289000,10.0732890625,-0.0003320852993056178,-0.0003629543352872133,-0.0008244100026786327
1773790593063252200,10.093252197265626,0.00011440852540545166,-0.0003138994798064232,0.0004340759478509426
1773790593083215400,10.11321533203125,0.001609008526429534,-0.00028843735344707966,-0.0000827503390610218
1773790593103178200,10.13317822265625,-0.001881724689155817,-0.0014032050967216492,0.0007305177859961987
1773790593123141400,10.153141357421875,-0.00012509082444012165,0.00043941522017121315,-0.0007774252444505692
1773790593143104300,10.173104248046876,-0.00010420603211969137,0.001122392830438912,-0.00015786290168762207
1773790593163067400,10.1930673828125,-0.00028866290813311934,-0.0010807823855429888,0.0007317997515201569
1773790593183030300,10.2130302734375,0.00012018685811199248,0.000195659464225173,-0.0006990828551352024
1773790593202993200,10.2329931640625,0.0002777983318082988,0.0005952138453722,0.0009813220240175724
1773790593222956300,10.252956298828124,-0.000334555545123294,-0.0008443321567028761,0.0005922140553593636
1773790593242919200,10.272919189453125,0.0007297398988157511,0.00011973804794251919,0.0001997719518840313
1773790593262882300,10.29288232421875,0.0014301191549748182,-0.00041809724643826485,-0.0006068679504096508
1773790593282845200,10.31284521484375,0.0010745489271357656,0.0011225533671677113,0.0005926345475018024
1773790593302808300,10.332808349609374,-0.0007085546385496855,-0.0003347641322761774,-0.0010244762524962425
1773790593322771200,10.352771240234375,0.0009367921156808734,0.0007053709123283625,0.0012100907042622566
1773790593342734300,10.372734375,0.00040520288166590035,-0.000910730566829443,-0.0005160840228199959
1773790593362697500,10.392697509765625,0.00007134830229915679,0.0004514844622462988,-0.000038498081266880035
1773790593382660000,10.41266015625,-0.0010987574933096766,-0.00009228009730577469,0.0015834774821996689
1773790593402622200,10.432622314453125,-0.00011493673082441092,0.0005151391960680485,-0.0004519703797996044
1773790593422585300,10.45258544921875,0.0008160480647347867,0.0006593214347958565,0.0011805472895503044
1773790593442548200,10.47254833984375,0.0005224166670814157,-0.0005437107756733894,0.0012494991533458233
1773790593462511400,10.492511474609374,0.0008468934684060514,-0.00042417203076183796,0.00007948698475956917
1773790593482474200,10.51247412109375,0.0005869536544196308,0.0006423552986234426,0.0004581958055496216
1773790593502437400,10.532437255859374,-0.0006008438067510724,0.0005988709162920713,0.0008866693824529648
1773790593522400300,10.552400146484375,0.0012541471514850855,0.0004859247710555792,0.0003516743890941143
1773790593542363100,10.572363037109374,0.0003653362509794533,0.00013925856910645962,-0.0006071631796658039
1773790593562326300,10.592326171875,0.0008488841122016311,-0.0009801280684769154,-0.00006259186193346977
1773790593582289200,10.6122890625,-0.00024746067356318235,0.0008827087003737688,0.0005909767933189869
1773790593602252300,10.632252197265625,-0.001164096174761653,-0.0001722867600619793,-0.001125013455748558
1773790593622215200,10.652215087890625,0.00038286944618448615,0.0005350983701646328,0.00014412589371204376
1773790593642178300,10.67217822265625,-0.0005114590749144554,0.001110302866436541,0.0004788641817867756
1773790593662141400,10.692141357421875,0.0009244756074622273,-0.00034755864180624485,-0.0008992799557745457
1773790593682104300,10.712104248046876,0.0004255021922290325,0.00019668415188789368,0.00017294799908995628
1773790593702067500,10.7320673828125,0.00007175345672294497,0.0005088320467621088,-0.000607712659984827
1773790593722030000,10.752030029296876,-0.000027318019419908524,-0.0004695695824921131,-0.00003459025174379349
1773790593741993200,10.7719931640625,0.00006276724161580205,-0.00032397243194282055,0.0011059022508561611
1773790593761955300,10.791955322265625,-0.00004996199277229607,0.0008412851020693779,0.0007926621474325657
1773790593781918200,10.811918212890625,0.0010597911896184087,0.001164365210570395,-0.00036824028939008713
1773790593801881300,10.83188134765625,-0.0004234844818711281,-0.0000640589278191328,0.0009696278721094131
1773790593821844200,10.85184423828125,0.000406766717787832,0.0004435712471604347,-0.000057077035307884216
1773790593841807400,10.871807373046876,0.00010768284118967131,0.0005448996089398861,-0.0011600153520703316
1773790593861770200,10.891770263671875,0.0005087604513391852,0.0002909149043262005,0.0016299900598824024
1773790593881733000,10.911733154296876,0.000010894422302953899,0.00004628230817615986,0.00035722600296139717
1773790593901696300,10.9316962890625,-0.0011421842500567436,0.00015794020146131516,-0.00002400018274784088
1773790593921659100,10.9516591796875,-0.0008201959426514804,-0.0005926366429775953,-0.0005888389423489571
1773790593941622300,10.971622314453125,0.000544965616427362,-0.00008653919212520123,-0.0005690879188477993
1773790593961585400,10.99158544921875,0.00038819911424070597,-0.0005217608995735645,0.0007255133241415024
1773790593981548300,11.01154833984375,0.0003332133055664599,0.0002797353081405163,-0.0004029860720038414
1773790594001511400,11.031511474609376,-0.0009173069265671074,-0.0007155102211982012,-0.001311460044234991
1773790594021474300,11.051474365234375,0.00022559284116141498,-0.00047387205995619297,-0.00020966678857803345
1773790594041437200,11.071437255859376,-0.00024617259623482823,0.0008190486114472151,0.000599502120167017
1773790594061400000,11.091400146484375,0.0013006518129259348,0.000001087784767150879,0.00030963215976953506
1773790594081363200,11.11136328125,-0.0002531653444748372,0.00035632471553981304,0.0021795998327434063
1773790594101325300,11.1313251953125,-0.0004974985495209694,0.000044362153857946396,0.0011243028566241264
1773790594121288200,11.1512880859375,0.00012414190859999508,-0.00041575217619538307,-0.0002735387533903122
1773790594141251300,11.171251220703125,-0.00033466785680502653,-0.0005805811379104853,0.00028789276257157326
1773790594161214500,11.19121435546875,-0.0011829524300992489,-0.0012360047549009323,0.00016866857185959816
1773790594181177300,11.21117724609375,-0.00008215566049329937,0.0013383572222664952,-0.0006327219307422638
1773790594201140200,11.23114013671875,0.0008618411957286298,0.0013389142695814371,0.0007241666316986084
1773790594221103000,11.25110302734375,-0.00018714694306254387,-0.0006876799743622541,-0.001474027056246996
1773790594241066200,11.271066162109374,-0.00027283429517410696,-0.0002349794376641512,-0.00001905485987663269
1773790594261029000,11.291029052734375,0.0007393661653622985,-0.0016280245035886765,-0.001351719256490469
1773790594280992300,11.3109921875,-0.00018378178356215358,-0.001523355022072792,0.0003268048167228699
1773790594300955400,11.330955322265625,0.0011702575720846653,-0.000613971846178174,-0.000032780226320028305
1773790594320918300,11.350918212890624,0.0007869529654271901,-0.0012740690726786852,0.0010437951423227787
1773790594340881400,11.37088134765625,-0.0003542036865837872,0.0010563255054876208,-0.0003793821670114994
1773790594360844300,11.39084423828125,-0.000621614046394825,0.0008471207693219185,-0.0015429714694619179
1773790594380807200,11.41080712890625,0.0004991758614778519,-0.0005018578376621008,-0.0005065388977527618
1773790594400770300,11.430770263671874,-0.00039057849789969623,-0.000013630371540784836,-0.0006970935501158237
1773790594420733200,11.450733154296875,0.0002821314847096801,-0.0006381659768521786,0.00042346352711319923
1773790594440696300,11.4706962890625,-0.0015611390117555857,-0.00009762030094861984,0.00041631096974015236
1773790594460658400,11.490658447265625,-0.00005090926424600184,-0.0008783109951764345,-0.0012244912795722485
1773790594480621300,11.510621337890624,0.0007061043288558722,-0.0007168375886976719,-0.0003932146355509758
1773790594500584400,11.53058447265625,0.0006169001571834087,-0.00005576456896960735,-0.00046189315617084503
1773790594520547000,11.550547119140624,0.00016043480718508363,0.001680279616266489,-0.0014091413468122482
1773790594540510200,11.57051025390625,-0.0016534877941012383,0.001134128076955676,0.0010597910732030869
1773790594560473000,11.59047314453125,-0.00007947569247335196,-0.00020677177235484123,0.00017178617417812347
1773790594580436200,11.610436279296875,0.0014747523237019777,0.0012147336965426803,0.000049709808081388474
1773790594600399400,11.6303994140625,-0.00032781902700662613,-0.0011049029417335987,-0.0021729315631091595
1773790594620362200,11.6503623046875,-0.0015041467268019915,-0.0006401906721293926,-0.0011611776426434517
1773790594640325400,11.670325439453125,-0.0003675719490274787,-0.00029699690639972687,0.000005705282092094421
1773790594660288300,11.690288330078126,-0.00026922966935671866,-0.0003003885503858328,-0.0006740037351846695
1773790594680251400,11.71025146484375,0.000022145366529002786,0.0005507338792085648,-0.0012802015990018845
1773790594700214300,11.73021435546875,0.0005329292616806924,-0.0009344073478132486,-0.0014696675352752209
1773790594720177200,11.75017724609375,0.0002108369953930378,0.000969303771853447,0.00026197871193289757
1773790594740140300,11.770140380859376,0.0013317058328539133,0.0008319085463881493,-0.0005277367308735847
1773790594760104000,11.79010400390625,-0.00041802023770287633,0.0009669506689533591,-0.0015057455748319626
1773790594780066000,11.810066162109376,-0.0005351486033760011,-0.0003785761073231697,0.0007055713795125484
1773790594800029000,11.83002880859375,-0.0002437265357002616,0.0006082984618842602,0.0000719018280506134
1773790594819992000,11.849991943359376,-0.00015521509340032935,-0.0015231173019856215,0.00008842116221785545
1773790594839955200,11.869955078125,-0.00035908393329009414,0.0006466319318860769,0.001495390199124813
1773790594859918000,11.88991796875,-0.0002869981690309942,-0.0006482992321252823,0.00018515251576900482
1773790594879881000,11.909880859375,-0.0006199972121976316,-0.00025651068426668644,-0.0005897162482142448
1773790594899843800,11.92984375,-0.0005792893934994936,-0.0004378007724881172,0.0014795251190662384
1773790594919807000,11.949806884765625,-0.000543979462236166,0.00076884008012712,0.000578761100769043
1773790594939769900,11.969769775390626,-0.0012232441222295165,-0.0011407339479774237,0.0003679869696497917
1773790594959733000,11.98973291015625,-0.0003680677618831396,-0.00037145568057894707,-0.0002594301477074623
1773790594979696000,12.009696044921874,-0.0008462794357910752,0.0008944179862737656,0.00010751653462648392
1773790594999659000,12.029658935546875,-0.0013305619359016418,0.000019746599718928337,0.0007353131659328938
1773790595019622100,12.0496220703125,-0.0007358730072155595,0.0001382941845804453,-0.0001031775027513504
1773790595039585000,12.0695849609375,-0.0010861798655241728,-0.0007054416928440332,0.0005043437704443932
1773790595059548000,12.0895478515625,0.00023684199550189078,-0.0009900524746626616,0.00035794032737612724
1773790595079511000,12.109510986328125,0.0008921497501432896,0.00020693964324891567,-0.0002519087865948677
1773790595099473000,12.129472900390626,0.0005251674447208643,0.00007671280764043331,0.00030789850279688835
1773790595119436000,12.14943603515625,-0.00005668966332450509,0.0008883967529982328,0.0003991164267063141
1773790595139399200,12.169399169921874,0.0012225222308188677,-0.0008184248581528664,0.00035863975062966347
1773790595159362000,12.189362060546875,-0.000771577877458185,-0.0008296752348542213,0.0012502921745181084
1773790595179325200,12.2093251953125,-0.0005345031968317926,0.0005178020801395178,-0.0014278865419328213
1773790595199288000,12.2292880859375,-0.000030396447982639074,0.0015474935062229633,-0.0010781069286167622
1773790595219251000,12.2492509765625,0.0002612830139696598,0.0004582430701702833,-0.00001430092379450798
1773790595239213800,12.2692138671875,0.00006511341780424118,0.0006477113347500563,0.0004023830406367779
1773790595259177000,12.289177001953124,-0.00034095015143975616,-0.0014252159744501114,0.00005365908145904541
1773790595279140000,12.30914013671875,-0.0009353202767670155,-0.00033687613904476166,-0.0007211589254438877
1773790595299103000,12.32910302734375,0.0010142027167603374,-0.0002660576719790697,-0.0006243684329092503
1773790595319066000,12.349066162109375,-0.000863781722728163,0.0006109136156737804,0.0007197661325335503
1773790595339029000,12.369029052734374,0.0007578643271699548,0.0012665832182392478,0.0006616036407649517
1773790595358992100,12.3889921875,0.001539131160825491,0.0003040195442736149,0.00028932467103004456
1773790595378955000,12.408955078125,0.0005464487476274371,-0.00007414096035063267,-0.0008673239499330521
1773790595398918000,12.42891796875,0.00009571510599926114,-0.000358909135684371,0.00012635020539164543
1773790595418880000,12.4488798828125,0.0005629826337099075,-0.0008701861370354891,-0.0005053756758570671
1773790595438843100,12.468843017578125,0.0006094751297496259,0.0008338948246091604,0.00031383149325847626
1773790595458806000,12.488805908203124,-0.0009715534979477525,-0.0009917998686432838,0.000648006796836853
1773790595478769200,12.50876904296875,0.00028999688220210373,0.00006497139111161232,0.001193515956401825
1773790595498732000,12.52873193359375,-0.0008986482862383127,-0.000023928005248308182,-0.0002692597918212414
1773790595518695200,12.548695068359375,-0.000985767925158143,0.0005566801410168409,-0.000923005398362875
1773790595538657800,12.56865771484375,0.0017352687427774072,-0.00026107742451131344,0.000004841946065425873
1773790595558621000,12.588620849609375,0.0012053088285028934,0.000021246029064059258,0.0002224012278020382
1773790595578584000,12.608583984375,0.0013782363384962082,0.00023564277216792107,0.0005881632678210735
1773790595598547000,12.628546875,0.00003035622648894787,0.0005442902911454439,0.0007191500626504421
1773790595618510000,12.648510009765625,-0.001731364638544619,0.001624886179342866,-0.00004154816269874573
1773790595638473000,12.668472900390626,0.0005278829485177994,0.00009608571417629719,-0.0007177176885306835
1773790595658436000,12.68843603515625,-0.00004580384120345116,-0.0003494976554065943,-0.00013345712795853615
1773790595678399000,12.70839892578125,-0.0014166522305458784,-0.00015591341070830822,-0.0007769730873405933
1773790595698360800,12.72836083984375,0.00018530196393840015,-0.00043081422336399555,0.00036642514169216156
1773790595718324000,12.748323974609375,-0.0007051600841805339,-0.0005869308952242136,-0.0006932062096893787
1773790595740783000,12.770783203125,-0.00007094454485923052,-0.00000769738107919693,0.0009284913539886475
1773790595760749800,12.790749755859375,0.000993423629552126,-0.00033631385304033756,-0.0007783565670251846
1773790595780713000,12.810712890625,-0.0002948006149381399,0.0003482070751488209,-0.0003707041032612324
1773790595800675800,12.83067578125,0.0005686389049515128,0.0003168531693518162,0.00025191158056259155
1773790595820638700,12.850638671875,0.0003596864698920399,0.0008053539786487818,-0.0009283167310059071
1773790595840601600,12.8706015625,0.00002339607453905046,0.0008359071798622608,0.00033774925395846367
1773790595860564700,12.890564697265624,-0.000402168370783329,0.000027114059776067734,-0.000741736963391304
1773790595880527600,12.910527587890625,0.0006648920243605971,-0.00006041117012500763,0.001026761718094349
1773790595900490800,12.93049072265625,0.0013899627374485135,-0.0011235729325562716,0.00045782420784235
1773790595920454000,12.950453857421875,0.00014392213779501617,-0.0005031470209360123,-0.0014858581125736237
1773790595940416800,12.970416748046874,-0.00001790837268345058,0.00025644199922680855,-0.0007972791790962219
1773790595960380000,12.9903798828125,0.00008292807615362108,-0.0004029048141092062,0.00042673666030168533
1773790595980342800,13.0103427734375,-0.0009073623805306852,-0.0006652348674833775,-0.00014115264639258385
1773790596000304600,13.0303046875,0.00029087421717122197,-0.00047923624515533447,-0.0010866387747228146
1773790596020267800,13.050267822265624,-0.00000637766788713634,-0.0009624352678656578,0.0012997896410524845
1773790596040230700,13.070230712890625,0.00002611576928757131,-0.0004623380955308676,-0.0011198446154594421
1773790596060193800,13.09019384765625,-0.0003769667528104037,0.0005245644133538008,-0.00023969262838363647
1773790596080157000,13.110156982421875,0.0015783640556037426,-0.0006927214562892914,-0.00008070003241300583
1773790596100119800,13.130119873046874,0.0010478125186637044,0.0010278855916112661,0.00024454807862639427
1773790596120083000,13.1500830078125,0.0009218871709890664,0.0005498211830854416,-0.0008276463486254215
1773790596140045800,13.1700458984375,0.0018877008697018027,-0.0004108306020498276,-0.00030218902975320816
1773790596160008700,13.1900087890625,-0.0006201195647008717,0.00025790208019316196,-0.001365150325000286
1773790596179971600,13.2099716796875,-0.0007451995625160635,0.0004401598125696182,0.0008097365498542786
1773790596199933700,13.22993359375,0.0014644161565229297,0.0003182769287377596,-0.00022086547687649727
1773790596219896800,13.249896728515624,-0.00043180963257327676,-0.0004650356713682413,0.0007663206197321415
1773790596239859700,13.269859619140625,0.00034643273102119565,-0.0001868030522018671,-0.00021253293380141258
1773790596259822800,13.28982275390625,0.00022858940064907074,-0.0008369437418878078,0.0013419101014733315
1773790596279786000,13.309785888671875,-0.0007510202121920884,0.0009523050393909216,-0.0016765124164521694
1773790596299748600,13.32974853515625,-0.000801648769993335,-0.0006362986750900745,-0.0016183550469577312
1773790596319711700,13.349711669921875,-0.001468262984417379,0.00008803163655102253,0.00022298749536275864
1773790596339674600,13.369674560546875,-0.0005851945606991649,0.000897528138011694,-0.0007459479384124279
1773790596359637800,13.3896376953125,0.0006690903683193028,-0.000393338268622756,-0.0005036015063524246
1773790596379600600,13.4096005859375,0.0006463544559665024,0.0002800058573484421,-0.000315746758133173
1773790596399563800,13.429563720703126,-0.0005334906163625419,-0.0006340255495160818,-0.000787756871432066
1773790596419527000,13.44952685546875,-0.0015066901687532663,0.001271359622478485,-0.001033548265695572
1773790596439489800,13.46948974609375,-0.0004345713823568076,0.0015487647615373135,0.00028997519984841347
1773790596459453000,13.489452880859375,-0.0015872097574174404,0.0009499124716967344,0.000432073138654232
1773790596479414800,13.509414794921875,0.000933333532884717,0.0000809116754680872,-0.0006810706108808517
1773790596499377700,13.529377685546875,-0.00011112057836726308,-0.0005820691585540771,0.00009217765182256699
1773790596519340800,13.5493408203125,-0.001801305916160345,0.0008524756412953138,-0.00023688562214374542
1773790596539303700,13.5693037109375,-0.0009293073089793324,0.0004937818739563227,-0.00014520948752760887
1773790596559266800,13.589266845703126,-0.00038182787830010056,0.0006160007324069738,-0.000527343712747097
1773790596579230000,13.60922998046875,-0.0002481650444678962,-0.00040308432653546333,-0.0004179994575679302
1773790596599192800,13.62919287109375,-0.00011123385047540069,-0.0010062158107757568,-0.0007318519055843353
1773790596619156000,13.649156005859375,-0.0004718195414170623,0.000002607237547636032,-0.00016022799536585808
1773790596639118600,13.66911865234375,-0.0012221441138535738,0.0001405775547027588,0.00020408304408192635
1773790596659081700,13.689081787109375,0.0019795389380306005,0.0008866726420819759,-0.0008001578971743584
1773790596679044600,13.709044677734376,0.0003982753260061145,0.0000498949084430933,-0.0006080721504986286
1773790596699007700,13.7290078125,0.0009877212578430772,0.00011605489999055862,-0.0007173996418714523
1773790596718971000,13.748970947265626,-0.0013713117223232985,-0.001099143410101533,0.00024801911786198616
1773790596738932700,13.7689326171875,0.0006296252831816673,0.00005267234519124031,-0.0003147488459944725
1773790596758894000,13.78889404296875,-0.0005489841569215059,-0.00032441271468997,0.00037598004564642906
1773790596778857200,13.808857177734374,0.001824594452045858,-0.0005160928703844547,-0.000009330455213785172
1773790596798820400,13.8288203125,0.0019633695483207703,0.000353401992470026,-0.0013046655803918839
1773790596818783200,13.848783203125,0.00042866833973675966,-0.0004007855895906687,-0.0007827179506421089
1773790596838746400,13.868746337890625,0.00013736469554714859,-0.00022130715660750866,0.00011479808017611504
1773790596858709200,13.888709228515625,0.0004912895383313298,-0.0016558929346501827,-0.00047135865315794945
1773790596878672400,13.90867236328125,-0.0007322651799768209,-0.0012732651084661484,0.00031664641574025154
1773790596898635300,13.92863525390625,-0.0007978189969435334,0.0001461522188037634,-0.0003642365336418152
1773790596918598100,13.94859814453125,-0.001494568190537393,0.0018004144076257944,-0.0003841104917228222
1773790596938561300,13.968561279296875,0.0010674514342099428,0.000030153198167681694,0.00010930793359875679
1773790596958524200,13.988524169921876,-0.00009053363464772701,0.0008520078845322132,0.000512218102812767
1773790596978487300,14.0084873046875,0.0003378886613063514,-0.0007526213303208351,0.000436137430369854
1773790596998449400,14.028449462890626,-0.0004334219265729189,-0.00020867865532636642,0.000723604578524828
1773790597018412300,14.048412353515625,-0.0010914284503087401,0.0005013183690607548,0.0003625517711043358
1773790597038375400,14.06837548828125,-0.0011364398524165154,-0.0002556559629738331,-0.0000824909657239914
1773790597058338000,14.088338134765625,0.0007673880318179727,0.0005887027364224195,-0.00039097899571061134
1773790597078301200,14.10830126953125,0.0008106586756184697,-0.001023752149194479,-0.00006809039041399956
1773790597098264300,14.128264404296875,-0.00006177640170790255,0.0006356576923280954,-0.000296570360660553
1773790597118227200,14.148227294921876,-0.0006837879191152751,0.000004993053153157234,0.0005581709556281567
1773790597138190300,14.1681904296875,-0.0014852458843961358,0.001262703794054687,0.0001942780800163746
1773790597158153200,14.1881533203125,0.0006205022800713778,0.000222513685002923,-0.00005298713222146034
1773790597178116400,14.208116455078125,-0.0008295553852804005,0.0004957397468388081,0.00003062654286623001
1773790597198079200,14.228079345703126,0.0006225227261893451,0.0006778528913855553,-0.0000011920928955078125
1773790597218042400,14.24804248046875,0.0015129459789022803,0.0003762266132980585,0.0007365420460700989
1773790597238005200,14.268005126953126,0.0016391575336456299,0.0006455492693930864,-0.0005757864564657211
1773790597257967400,14.28796728515625,0.0016198062803596258,0.00014531705528497696,0.00007357681170105934
1773790597277930200,14.30793017578125,0.0012497523566707969,-0.0005077808164060116,0.0010723499581217766
1773790597297893400,14.327893310546875,0.0011389433639124036,-0.00004233233630657196,0.0001702350564301014
1773790597317856300,14.347856201171876,0.0007983808172866702,-0.000020477687940001488,0.000018693041056394577
1773790597337819400,14.3678193359375,0.0007239188416860998,-0.0002600722946226597,0.0014583813026547432
1773790597357782300,14.3877822265625,-0.0008233535336330533,-0.00033912528306245804,-0.0003559044562280178
1773790597377745200,14.4077451171875,0.0016730519710108638,0.0003803563304245472,-0.0002520224079489708
1773790597397708300,14.427708251953124,-0.0009338580421172082,0.0006571563426405191,0.00039992714300751686
1773790597417671200,14.447671142578125,-0.0003050992381758988,0.000027074245736002922,0.001047580037266016
1773790597437634300,14.46763427734375,0.00036549504147842526,-0.0004775610286742449,-0.0015136636793613434
1773790597457597200,14.48759716796875,0.00020036334171891212,-0.00004535051994025707,-0.00022889301180839539
1773790597477560300,14.507560302734374,0.00048267588135786355,0.0008182178717106581,0.00016017351299524307
1773790597497523200,14.527523193359375,-0.00046528084203600883,-0.0008517978712916374,0.0009611495770514011
1773790597517485300,14.5474853515625,0.0003137142048217356,0.00022680824622511864,-0.0007930728606879711
1773790597537448200,14.5674482421875,0.0017287824302911758,-0.00030020764097571373,0.00009972462430596352
1773790597557411000,14.5874111328125,0.00005829174187965691,0.0005856063216924667,-0.000025455839931964874
1773790597577374200,14.607374267578125,-0.00042112410301342607,0.00007785274647176266,0.00005896249786019325
1773790597597337300,14.62733740234375,0.000056914519518613815,0.00022377679124474525,0.0009465748444199562
1773790597617300200,14.64730029296875,0.0007904251106083393,-0.00042341998778283596,0.00010952772572636604
1773790597637263400,14.667263427734374,0.00021653863950632513,0.00011474848724901676,-0.00013454165309667587
1773790597657226200,14.687226318359375,0.0011313853319734335,0.0007066703401505947,0.00002402951940894127
1773790597677189400,14.707189453125,0.0005569431814365089,0.0013260873965919018,-0.0005498058162629604
1773790597697152300,14.72715234375,0.00004068936686962843,-0.0012626321986317635,-0.0007149530574679375
1773790597717115100,14.747115234375,0.00010603744885884225,0.00046229944564402103,0.0005380758084356785
1773790597737078300,14.767078369140625,0.0001967620919458568,0.00011075078509747982,-0.0014407532289624214
1773790597757037000,14.787037109375,0.0009645359823480248,0.00030894577503204346,-0.000570906326174736
1773790597777000200,14.807000244140625,-0.0002531410427764058,-0.0005856046918779612,0.0012601232156157494
1773790597796963300,14.82696337890625,-0.0002840899396687746,0.0005865739658474922,0.0003901836462318897
1773790597816926200,14.84692626953125,0.00046994700096547604,0.0007027359679341316,-0.0007921238429844379
1773790597836889300,14.866889404296876,0.0004117754870094359,-0.0001240740530192852,-0.00003523379564285278
1773790597856852200,14.886852294921875,0.0003431904478929937,-0.0000441067386418581,0.001083871815353632
1773790597876815400,14.9068154296875,0.0002776638139039278,0.00007565808482468128,0.0002602706663310528
1773790597896778200,14.9267783203125,0.00010635863873176277,-0.0007507782429456711,-0.0011786059476435184
1773790597916741400,14.946741455078126,-0.0011935937218368053,0.0008382957894355059,0.0006908909417688847
1773790597936704300,14.966704345703125,0.00010502879740670323,0.0003746100701391697,0.0011638854630291462
1773790597956667100,14.986667236328126,-0.0006996355950832367,-0.0007220422849059105,0.0016135112382471561
1773790597976630300,15.00663037109375,-0.0006421629805117846,0.0004958650097250938,-0.0015819724649190903
1773790597996593200,15.02659326171875,0.00028228270821273327,0.0003718058578670025,0.00012739235535264015
1773790598016555300,15.04655517578125,0.0003226929111406207,0.0008200176525861025,0.00027838582172989845
1773790598036518400,15.066518310546876,-0.000010190095053985715,-0.0005250880494713783,-0.0003873612731695175
1773790598056481300,15.086481201171875,-0.0014356073224917054,0.0004391362890601158,0.00021473923698067665
1773790598076444200,15.106444091796876,-0.0006658192723989487,0.0003156785387545824,-0.0008344207890331745
1773790598096407300,15.1264072265625,-0.00036046700552105904,-0.0006493267137557268,0.0003241584636271
1773790598116370200,15.1463701171875,0.00017390851280651987,0.00042336760088801384,-0.0003999066539108753
1773790598136333300,15.166333251953125,0.0008749008411541581,-0.0003515970893204212,0.0007490967400372028
1773790598156296200,15.186296142578126,0.000696812872774899,0.0010066626127809286,0.00008508749306201935
1773790598176259300,15.20625927734375,0.00043930404353886843,-0.0012611246202141047,-0.0014512492343783379
1773790598196222200,15.22622216796875,0.00009716831846162677,0.0008649884257465601,0.00039275456219911575
1773790598216185300,15.246185302734375,0.0000983125064522028,0.00031346757896244526,-0.0001817699521780014
1773790598236148500,15.2661484375,-0.00043253140756860375,0.0019031980773434043,0.0007598218508064747
1773790598256110000,15.286110107421875,0.0006042952882125974,-0.0000525875948369503,0.00032052118331193924
1773790598276073200,15.3060732421875,-0.00016128280549310148,-0.000058991601690649986,0.0010535945184528828
1773790598296036400,15.326036376953125,-0.0005079259281046689,-0.00011673127301037312,-0.0011349022388458252
1773790598315999200,15.345999267578126,-0.0005722931819036603,0.0013493922306224704,0.00035625137388706207
1773790598335962400,15.36596240234375,-0.000841580331325531,0.0013461534399539232,-0.00023541878908872604
1773790598355925200,15.38592529296875,-0.00017185794422402978,0.00038255820982158184,-0.0008603245951235294
1773790598375888400,15.405888427734375,0.001874864217825234,-0.0004738778807222843,0.0008794744499027729
1773790598395851300,15.425851318359374,0.000005753914592787623,0.000548733863979578,-0.0014318828471004963
1773790598415814100,15.445814208984375,0.000650332891382277,0.0013282711151987314,-0.00036586495116353035
1773790598435777300,15.46577734375,0.0007762489258311689,-0.00011290609836578369,0.0006187143735587597
1773790598455740200,15.485740234375,0.00029813635046593845,0.0005930224433541298,-0.00021954812109470367
1773790598475702300,15.505702392578126,-0.0010190566536039114,0.0010406069923192263,0.0003185737878084183
1773790598495665400,15.52566552734375,0.0008943545399233699,0.0008949271868914366,-0.0007285904139280319
1773790598515628300,15.545628173828124,-0.00037403832538984716,0.0004796802531927824,-0.0011991551145911217
1773790598535591400,15.56559130859375,-0.0000178094778675586,-0.00011060875840485096,-0.0020489348098635674
1773790598555554000,15.585553955078124,-0.00007593902410008013,0.0012458963319659233,-0.0007671881467103958
1773790598575517200,15.60551708984375,-0.0004603540292009711,-0.00007311603985726833,-0.0000560171902179718
1773790598595480300,15.625480224609374,-0.0013056922471150756,-0.0001861085183918476,-0.0010942937806248665
1773790598615443200,15.645443115234375,-0.0006728400476276875,0.0005799455102533102,0.0010000155307352543
1773790598635406300,15.66540625,0.00037216139025986195,0.00009210919961333275,-0.00004459591582417488
1773790598655369200,15.685369140625,0.00012396674719639122,0.00027187704108655453,-0.0009777043014764786
1773790598675332400,15.705332275390624,0.0007118522771634161,-0.0003882960882037878,0.0001852349378168583
1773790598695295200,15.725295166015625,-0.0004151601460762322,-0.0010949636343866587,-0.00019749440252780914
1773790598715258400,15.74525830078125,-0.0006000593421049416,0.000466660363599658,-0.0005215173587203026
1773790598735220200,15.76522021484375,0.0006462321034632623,-0.0006606511306017637,-0.000872698612511158
1773790598755183000,15.78518310546875,-0.00011901612742803991,0.00016739778220653534,-0.0009999466128647327
1773790598775146200,15.805146240234375,0.0007460860651917756,0.0003545847721397877,-0.0019587604328989983
1773790598795109000,15.825109130859374,0.0020168498158454895,0.0007394414860755205,-0.000301227904856205
1773790598815072000,15.845072021484375,-0.0006420444115065038,0.0003825835883617401,0.00015593646094202995
1773790598835035100,15.86503515625,-0.0011309534311294556,-0.00024163979105651379,0.00047261640429496765
1773790598854998000,15.884998046875,-0.0011414620094001293,-0.0002471476327627897,-0.0016564847901463509
1773790598874961200,15.904961181640624,-0.0005907337763346732,0.0004304812755435705,-0.0008497573435306549
1773790598894924300,15.92492431640625,0.00011215516133233905,0.0014345442177727818,0.0013052183203399181
1773790598914887200,15.94488720703125,-0.00036677837488241494,-0.000055726151913404465,0.0003774072974920273
1773790598934850300,15.964850341796875,-0.001971927937120199,0.0005578335840255022,-0.0010439562611281872
1773790598954812200,15.984812255859374,0.000009172625141218305,-0.0008592442609369755,-0.0008055944927036762
1773790598974775000,16.004775146484373,-0.0006226699333637953,0.0000343953724950552,0.0011378251947462559
1773790598994738200,16.02473828125,-0.0006550357211381197,-0.0002818407956510782,0.0005848947912454605
1773790599014701000,16.044701171875,0.000686517683789134,-0.00021665473468601704,0.000496922992169857
1773790599034664200,16.064664306640626,-0.0003189939889125526,0.0008599043358117342,0.0005029230378568172
1773790599054627000,16.084626953125,-0.00024529872462153435,-0.0006052588578313589,0.00010800035670399666
1773790599074590200,16.104590087890625,-0.0008692991686984897,0.00031132251024246216,0.0003638649359345436
1773790599094553300,16.12455322265625,-0.0009214236633852124,-0.002382467268034816,0.000142684206366539
1773790599114516200,16.14451611328125,0.0005238772137090564,0.0006574760191142559,0.0009909733198583126
1773790599134479000,16.16447900390625,0.0005122486618347466,-0.00034817401319742203,0.000962527934461832
1773790599154442000,16.18444189453125,-0.00019273220095783472,0.00003834627568721771,0.0002929810434579849
1773790599174404000,16.204404052734375,-0.0009434386156499386,0.0003229379653930664,0.0006534280255436897
1773790599194367200,16.2243671875,0.00045523661538027227,0.00032416917383670807,-0.0008126972243189812
1773790599214330000,16.244330078125,-0.00003508321242406964,-0.0003905401099473238,0.0011719842441380024
1773790599234293200,16.264293212890625,-0.000355453317752108,-0.0007012025453150272,0.00027379393577575684
1773790599254256000,16.284256103515624,0.0018032974330708385,-0.00041518243961036205,0.0004458427429199219
1773790599274219000,16.304218994140626,-0.0020329621620476246,-0.0011853363830596209,-0.00023704208433628082
1773790599294182100,16.32418212890625,0.0007046526880003512,0.0007615915965288877,-0.0006088684312999249
1773790599314145000,16.34414501953125,0.0004355426935944706,0.00012909132055938244,0.00022562779486179352
1773790599334108200,16.364108154296876,0.0017135444795712829,0.0005584750324487686,0.0006839875131845474
1773790599354071000,16.384071044921875,0.0014921675901859999,-0.0005917574744671583,0.00039302418008446693
1773790599374034200,16.4040341796875,0.00041537111974321306,-0.00042721256613731384,-0.000018605496734380722
1773790599393996300,16.423996337890625,-0.0012344523565843701,0.00013555004261434078,-0.0002118721604347229
1773790599413959000,16.443958984375,-0.00050760229350999,-0.0003631927538663149,0.000011372379958629608
1773790599433922000,16.463922119140626,0.0003658123896457255,-0.00008826423436403275,0.00048064254224300385
1773790599453885200,16.48388525390625,-0.0013751864898949862,-0.0003868748899549246,-0.00047434912994503975
1773790599473848000,16.50384814453125,0.001055413857102394,-0.0011102319695055485,-0.0011336239986121655
1773790599493811200,16.523811279296876,-0.0004046685644425452,-0.0003283582627773285,0.0011182385496795177
1773790599513774000,16.543774169921875,-0.0014315854059532285,-0.0003496611025184393,0.00042529357597231865
1773790599533737200,16.5637373046875,0.0005342335207387805,0.0002479543909430504,0.000769222155213356
1773790599553700000,16.5837001953125,0.0007615940412506461,0.0002158922143280506,0.00028078630566596985
1773790599573663200,16.603663330078124,-0.0005979051347821951,-0.0005574938841164112,0.0006950986571609974
1773790599593625000,16.623625,0.0006239638896659017,-0.00044335261918604374,0.00036939186975359917
1773790599613588000,16.643587890625,0.00035248356289230287,-0.0010606595315039158,-0.0010491753928363323
1773790599633551000,16.663551025390625,-0.0009160246117971838,0.0002469958271831274,0.000896574929356575
1773790599653514200,16.68351416015625,0.0009651573491282761,-0.0010957375634461641,0.0005664099007844925
1773790599673477000,16.70347705078125,0.000244773254962638,-0.0003246206324547529,0.00020367000252008438
1773790599693440300,16.723440185546874,-0.0005334069719538093,0.001134116086177528,-0.0006933631375432014
1773790599713403100,16.743403076171877,-0.0001816790027078241,-0.0002627430949360132,0.0008660806342959404
1773790599734614000,16.764614013671874,-0.0009583804639987648,0.0003061071038246155,0.0005935137160122395
1773790599754578000,16.784577880859374,0.0005615116097033024,-0.00015862449072301388,0.0005293381400406361
1773790599774540800,16.804540771484376,0.0007250210037454963,0.000027563655748963356,-0.0000697956420481205
1773790599794504000,16.82450390625,0.001657873042859137,0.0002103135921061039,-0.0003813747316598892
1773790599814466000,16.844466064453126,-0.0004176585061941296,0.0008660859894007444,-0.0008885003626346588
1773790599834428700,16.8644287109375,0.0004261984722688794,-0.00014649471268057823,-0.0009406697936356068
1773790599854391800,16.884391845703124,-0.00007769899093545973,0.0006993289571255445,-0.00011581508442759514
1773790599874355000,16.90435498046875,0.0001788656081771478,-0.00014994735829532146,0.0008404925465583801
1773790599894317800,16.92431787109375,-0.0005440220702439547,-0.0004957898054271936,-0.0012015136890113354
1773790599914281000,16.944281005859374,-0.0006696042837575078,0.0002724798396229744,0.0007317159324884415
1773790599934243800,16.964243896484376,0.001170912990346551,-0.00008674291893839836,0.0009597497992217541
1773790599954207000,16.98420703125,-0.00007780810119584203,-0.0008201256860047579,-0.0004114266484975815
1773790599974169900,17.004169921875,0.0007165881106629968,-0.000030161812901496887,-0.0008788025006651878
1773790599994133000,17.024133056640625,-0.000212083978112787,0.0002994935493916273,-0.0011348500847816467
1773790600014096000,17.044095947265625,0.0007945415563881397,-0.00029002013616263866,0.0004636254161596298
1773790600034057700,17.0640576171875,0.0010439284378662705,0.00005761347711086273,-0.0004959916695952415
1773790600054020900,17.084020751953126,-0.000757554778829217,0.0003015149850398302,0.00015450036153197289
1773790600073984000,17.10398388671875,0.0003174350131303072,-0.00028730928897857666,0.0009684129618108273
1773790600093947000,17.12394677734375,-0.000060749531257897615,0.00010782130993902683,0.00039618508890271187
1773790600113909000,17.143908935546875,0.00042174122063443065,0.0010828603990375996,-0.0007219798862934113
1773790600133871900,17.163871826171874,-0.0006484737969003618,-0.0009247877169400454,0.0010578916408121586
1773790600153834800,17.183834716796873,-0.0011460299137979746,0.0008637963328510523,-0.00007736310362815857
1773790600173798000,17.2037978515625,-0.0003279627417214215,-0.0008861133828759193,0.0002134549431502819
1773790600193760800,17.2237607421875,-0.00013708719052374363,-0.0000454997643828392,-0.0001582745462656021
1773790600213724000,17.243723876953126,0.0013109473511576653,0.0002686313819140196,-0.0009456109255552292
1773790600233687000,17.26368701171875,0.0008047265000641346,-0.0007770438678562641,0.0011138217523694038
1773790600253650000,17.28364990234375,-0.00007437626481987536,-0.0003832671791315079,-0.00007507018744945526
1773790600273613000,17.303613037109375,-0.0002666336949914694,-0.0007454587612301111,0.00038174400106072426
1773790600293576000,17.323575927734375,-0.00009975640568882227,-0.0001180446706712246,-0.0004102555103600025
1773790600313537800,17.343537841796874,0.0003781435370910913,0.00020833848975598812,0.0003684326075017452
1773790600333501000,17.3635009765625,0.00010064069647341967,-0.000007353024557232857,-0.0002521970309317112
1773790600353463800,17.3834638671875,0.0003758836246561259,-0.00038214074447751045,0.0005868040025234222
1773790600373427000,17.403427001953126,0.0012014973908662796,-0.000670300330966711,-0.00039348937571048737
1773790600393389800,17.423389892578125,0.001825194340199232,-0.0010041273199021816,-0.0007442100904881954
1773790600413353000,17.44335302734375,0.0005586895858868957,0.00019727577455341816,0.00033577345311641693
1773790600433316000,17.463316162109376,-0.0008809301070868969,-0.0015320659149438143,-0.0008436879143118858
1773790600453278700,17.48327880859375,0.0005423672846518457,-0.00020218873396515846,0.0008839271031320095
1773790600473241900,17.503241943359374,0.0010180850513279438,0.00021865172311663628,0.001051526516675949
1773790600493204700,17.523204833984376,0.00034262824920006096,0.0008173913229256868,0.0001334724947810173
1773790600513166800,17.543166748046875,0.0009823753498494625,0.0002600131556391716,0.0004949932917952538
1773790600533130000,17.5631298828125,0.00026295476709492505,-0.0009328005835413933,0.0006208480335772038
1773790600553092900,17.5830927734375,0.00006830898928456008,0.0000973076093941927,-0.0019441377371549606
1773790600573056000,17.603055908203125,0.0014490381581708789,-0.0004996007774025202,0.00036306679248809814
1773790600593019100,17.62301904296875,-0.0006850810023024678,-0.0008206346537917852,0.000776365865021944
1773790600612981800,17.642981689453126,-0.0007528701098635793,0.0011057414812967181,-0.0005388869903981686
1773790600632945000,17.66294482421875,-0.0002920684346463531,-0.00029048207215964794,0.000001043081283569336
1773790600652907800,17.68290771484375,0.0009065750055015087,0.0015426825266331434,0.00040631089359521866
1773790600672871000,17.702870849609376,-0.0003075585700571537,-0.0005178605206310749,0.001836738083511591
1773790600692833800,17.722833740234375,0.0006381404818966985,-0.000035593751817941666,-0.0004059593193233013
1773790600712796000,17.7427958984375,0.0004792775143869221,0.0012623347574844956,0.0008228183723986149
1773790600732759000,17.762759033203125,0.00040368709596805274,0.0012161143822595477,0.0008781938813626766
1773790600752721400,17.782721435546875,-0.000041331921238452196,0.0009635291062295437,-0.0002901586703956127
1773790600772684300,17.802684326171875,-0.00022144592367112637,0.00034135114401578903,0.0008938056416809559
1773790600792647400,17.8226474609375,0.0008529694750905037,0.0009623030200600624,-0.0014368295669555664
1773790600812610000,17.842610107421876,0.00009293184848502278,-0.00042544445022940636,0.0009121289476752281
1773790600832573200,17.8625732421875,-0.00045855919597670436,-0.001080040354281664,0.001517553348094225
1773790600852536300,17.882536376953126,-0.0017667145002633333,-0.0002860145177692175,0.0014100857079029083
1773790600872499200,17.902499267578126,-0.00041332546970807016,-0.0003674642648547888,-0.0006829742342233658
1773790600892462300,17.92246240234375,0.000800283276475966,-0.0002810852602124214,0.0016061137430369854
1773790600912424400,17.942424560546876,-0.0002715029986575246,-0.0004515829496085644,0.0006353501230478287
1773790600932387300,17.96238720703125,0.00028565069078467786,-0.00008232030086219311,0.0013342797756195068
1773790600952350500,17.9823505859375,-0.0013428572565317154,0.0004036193713545799,-0.0003417707048356533
1773790600972313000,18.00231298828125,0.000152433174662292,-0.00009951903484761715,0.0009002308361232281
1773790600992276200,18.022276123046876,0.0001232345966855064,-0.000054602744057774544,0.00042643770575523376
1773790601012239000,18.042239013671875,0.0004284761380404234,-0.00039213569834828377,-0.0008903266862034798
1773790601032202200,18.0622021484375,0.00029032857855781913,0.0007875571027398109,-0.0000642179511487484
1773790601052165400,18.082165283203125,0.00014779757475480437,-0.0012574128340929747,0.000713713001459837
1773790601072128300,18.102128173828124,-0.0004607296723406762,0.00011494243517518044,-0.0011814311146736145
1773790601092090400,18.12209033203125,-0.000052459450671449304,0.0007911438588052988,-0.001291605643928051
1773790601112053200,18.14205322265625,-0.00036469456972554326,0.00033640326000750065,-0.002083198633044958
1773790601132016000,18.16201611328125,-0.0011934260837733746,0.0003168918192386627,0.0008322373032569885
1773790601151979300,18.181979248046876,0.0007317627896554768,-0.00009848573245108128,-0.000562125351279974
1773790601171942100,18.201942138671875,-0.0009396546520292759,-0.0016927991528064013,0.00041278963908553123
1773790601191905300,18.2219052734375,-0.001616128021851182,-0.0009132949635386467,0.000339290127158165
1773790601211868200,18.2418681640625,-0.002166468882933259,0.0026135463267564774,-0.0020183403976261616
1773790601231831300,18.261831298828124,0.00044474058086052537,0.0003008453641086817,-0.0006178603507578373
1773790601251794400,18.28179443359375,0.000688609667122364,-0.0001638508401811123,0.0012965016067028046
1773790601271757300,18.30175732421875,0.0006098304293118417,-0.0018246686086058617,-0.0003928840160369873
1773790601291719200,18.32171923828125,-0.0005045232828706503,0.00027882889844477177,-0.001178679522126913
1773790601311682300,18.341682373046876,0.0010654127690941095,-0.0007374885026365519,-0.0006850841455161572
1773790601331645200,18.361645263671875,-0.000794708845205605,0.000575467711314559,0.0005898894742131233
1773790601351608300,18.3816083984375,-0.0007796450518071651,0.0005309220869094133,0.0012007332406938076
1773790601371571200,18.4015712890625,-0.000788626610301435,0.00030258833430707455,-0.0014286627992987633
1773790601391534300,18.421534423828124,0.0020615416578948498,-0.0000039192382246255875,-0.00024509383365511894
1773790601411497500,18.44149755859375,0.000056587508879601955,-0.0004589327145367861,-0.0006592883728444576
1773790601431460400,18.46146044921875,-0.0005354955792427063,-0.0009636976756155491,-0.0007978281937539577
1773790601451423200,18.48142333984375,-0.000045294436858966947,-0.0006216445472091436,-0.0005691023543477058
1773790601471385300,18.50138525390625,-0.0009579883189871907,-0.00012977095320820808,0.00032831914722919464
1773790601491348200,18.52134814453125,-0.0002648871159180999,-0.00040640286169946194,0.0005307085812091827
1773790601511311400,18.541311279296874,-0.0003586873644962907,-0.0005263928323984146,-0.0005168304778635502
1773790601531274200,18.561274169921877,0.00002134963870048523,-0.001254599541425705,-0.0000402107834815979
1773790601551237400,18.5812373046875,-0.0006035795668140054,-0.0007821880280971527,-0.00016530323773622513
1773790601571200300,18.6012001953125,0.00043724983697757125,0.000614657998085022,0.0009294473566114902
1773790601591163100,18.6211630859375,-0.0003419311542529613,-0.0008123607840389013,-0.00009424611926078796
1773790601611126300,18.641126220703125,0.00007168357842601836,-0.00005734432488679886,0.00008464325219392776
1773790601631089200,18.661089111328124,0.0020396083127707243,0.0015948188956826925,0.00006473157554864883
1773790601651052300,18.68105224609375,0.0006331508047878742,-0.001043553464114666,0.0005469303578138351
1773790601671014400,18.701014404296874,-0.00001838570460677147,0.00038466043770313263,0.0005652736872434616
1773790601690977300,18.720977294921877,0.0005001527024433017,-0.00047111744061112404,-0.0001670517958700657
1773790601710940400,18.7409404296875,-0.00039259070763364434,0.0005603763274848461,0.0010386276990175247
1773790601730903000,18.760903076171875,-0.0013915286399424076,0.0002323952503502369,0.0011958167888224125
1773790601750866400,18.780866455078126,0.00004544996772892773,0.0018145550275221467,-0.0007107299752533436
1773790601770829300,18.800829345703125,-0.0007158830412663519,0.0019028240349143744,0.0001256628893315792
1773790601790792400,18.82079248046875,-0.0003089279925916344,0.0004932503215968609,0.0006291121244430542
1773790601810755600,18.840755615234375,0.00020068464800715446,-0.0000429993961006403,0.0010019359178841114
1773790601830718500,18.860718505859374,-0.0003300600219517946,0.0006352146156132221,0.00015105586498975754
1773790601850680600,18.8806806640625,-0.0005140054854564369,0.00021100020967423916,0.00046322308480739594
1773790601870643700,18.900643798828124,-0.0000215863692574203,-0.0005600731819868088,0.00012549012899398804
1773790601890606300,18.9206064453125,-0.00009597156895324588,-0.0004945395048707724,-0.0011009396985173225
1773790601910569500,18.940569580078126,0.001231677015312016,0.00025258888490498066,-0.0007020370103418827
1773790601930532400,18.960532470703125,-0.0020786805544048548,0.0008992141811177135,0.00006468920037150383
1773790601950495500,18.98049560546875,-0.0007063484517857432,-0.00032634870149195194,0.0007147002033889294
1773790601970458600,19.000458740234375,0.0001290185027755797,-0.0005181862507015467,-0.00035084737464785576
1773790601990421500,19.02042138671875,0.00042991904774680734,-0.0005396294873207808,0.0005335337482392788
1773790602010384600,19.040384521484373,-0.00025494920555502176,0.0003879580181092024,0.0006869509816169739
1773790602030347500,19.060347412109376,-0.00016026999219320714,-0.00019170762971043587,0.000053831376135349274
1773790602050309400,19.080309326171875,0.00019072163559030741,-0.00007653352804481983,0.00024171452969312668
1773790602070272500,19.1002724609375,-0.00045661249896511436,0.00015124445781111717,-0.00006804196164011955
1773790602090235400,19.1202353515625,0.00013075458991806954,-0.00026719504967331886,-0.0008311672136187553
1773790602110198500,19.140198486328124,0.000453838671091944,-0.00022990815341472626,-0.0004912060685455799
1773790602130161400,19.160161376953123,0.0011523899156600237,-0.0011434592306613922,-0.0007555978372693062
1773790602150124500,19.18012451171875,0.00024078693240880966,0.002671327907592058,-0.0005172048695385456
1773790602170087700,19.200087646484373,-0.0002028255839832127,-0.0006854648236185312,-0.0003797258250415325
1773790602190050600,19.220050537109376,0.0009189487900584936,0.00020415335893630981,-0.0008145133033394814
1773790602210013700,19.240013671875,-0.0005770031129941344,-0.0005300177726894617,0.0004811380058526993
1773790602229975600,19.2599755859375,0.0007697867695242167,-0.0005131803918629885,-0.0004297969862818718
1773790602249938400,19.2799384765625,-0.0007692603394389153,-0.000614621676504612,0.0006638229824602604
1773790602269901600,19.299901611328124,0.00019609919399954379,0.0009928882354870439,-0.0003015538677573204
1773790602289864400,19.319864501953123,-0.000473285123007372,0.001122201094403863,-0.0016345148906111717
1773790602309827600,19.33982763671875,-0.0011314749717712402,-0.0009536168072372675,0.0007454543374478817
1773790602329790700,19.359790771484374,-0.00034585079993121326,0.001199477119371295,-0.0013584666885435581
1773790602349753600,19.379753662109376,0.0005743091460317373,-0.00026837829500436783,0.0001194952055811882
1773790602369716500,19.399716552734375,0.001988638425245881,-0.001480993116274476,0.00017346953973174095
1773790602389679400,19.419679443359374,-0.00037360962596721947,-0.001611884217709303,-0.0003867358900606632
1773790602409641500,19.439641357421873,-0.000090036541223526,0.000418312381953001,0.0010738237760961056
1773790602429604600,19.4596044921875,-0.0004243865259923041,-0.0007246178574860096,0.0007618740200996399
1773790602449567500,19.4795673828125,-0.000764489930588752,-0.0001360722817480564,0.0002676653675734997
1773790602469530600,19.499530517578126,-0.0004278584092389792,-0.0001779466401785612,-0.0011016870848834515
1773790602489493500,19.519493408203125,0.0009079950395971537,-0.0009730609599500895,0.0005869679152965546
1773790602509456600,19.53945654296875,-0.0005596246919594705,0.00048611010424792767,-0.0009089079685509205
1773790602529419500,19.55941943359375,-0.0009114178828895092,-0.0003849684726446867,0.0006653838790953159
1773790602549382400,19.57938232421875,0.0002643420302774757,-0.0007570451125502586,-0.00008738599717617035
1773790602569345500,19.599345458984374,-0.0006319019012153149,-0.00031900894828140736,0.0016486896201968193
1773790602589307600,19.6193076171875,-0.0000522902118973434,-0.00008677388541400433,0.000795840285718441
1773790602609270500,19.6392705078125,0.00042482541175559163,-0.0004525724798440933,0.0007332386448979378
1773790602629233700,19.659233642578126,-0.0001719719439279288,0.0009290957823395729,-0.00006849970668554306
1773790602649196500,19.679196533203125,0.000571061740629375,-0.00014794967137277126,0.0004590698517858982
1773790602669159400,19.699159423828124,0.00020987559400964528,0.0008390261791646481,0.00009109871461987495
1773790602689122600,19.71912255859375,0.0004674089723266661,0.0005106630269438028,-0.0002463562414050102
1773790602709085400,19.73908544921875,-0.001083176932297647,-0.00043297791853547096,-0.00001531420275568962
1773790602729048600,19.759048583984374,0.0009339796379208565,-0.00020480318926274776,-0.001072197686880827
1773790602749011500,19.779011474609376,0.0003342780109960586,-0.000042662257328629494,-0.00007477821782231331
1773790602768974600,19.798974609375,0.0008251386461779475,0.0015726001001894474,0.0015218514017760754
1773790602788936700,19.818936767578126,0.00008412318129558116,-0.0004800416063517332,0.0009677158668637276
1773790602808899300,19.8388994140625,0.00031717849196866155,0.0011784168891608715,-0.0005154171958565712
1773790602828862500,19.858862548828125,0.0005799658829346299,-0.00012046913616359234,0.0012185457162559032
1773790602848825300,19.878825439453124,-0.0003257686039432883,0.00013792235404253006,0.0009480006992816925
1773790602868788500,19.89878857421875,-0.0005180543521419168,0.0001321299932897091,-0.00015864800661802292
1773790602888751600,19.918751708984374,-0.0011416766792535782,0.00017141550779342651,-0.0007471218705177307
1773790602908714500,19.938714599609376,-0.001831699162721634,0.00012710504233837128,-0.0003555053845047951
1773790602928677600,19.958677734375,0.0006824183510616422,0.0006698963697999716,-0.0003748266026377678
1773790602948639700,19.9786396484375,0.0004649492329917848,0.00019700638949871063,0.00021974509581923485
1773790602968602400,19.998602294921874,-0.0018632195424288511,-0.0005770337302237749,0.000008070375770330429
1773790602988565500,20.0185654296875,0.0004888498806394637,-0.0007194783538579941,0.0005092979408800602
1773790603008528400,20.0385283203125,0.00019390681700315326,-0.00029062293469905853,-0.0008125514723360538
1773790603028491500,20.058491455078126,-0.0014930511824786663,-0.00028184126131236553,0.000408438965678215
1773790603048454400,20.078454345703125,-0.00039257819298654795,-0.00039602466858923435,-0.00015961378812789917
1773790603068417500,20.09841748046875,-0.00042232402483932674,-0.0005628475919365883,-0.0011394042521715164
1773790603088380700,20.118380615234376,0.0011424475815147161,0.00013861176557838917,0.00003301352262496948
1773790603108343600,20.138343505859375,0.0015291331801563501,-0.00026929168961942196,-0.00023902719840407372
1773790603128305400,20.158305419921874,-0.001366451382637024,0.0002256087027490139,0.00048617832362651825
1773790603148268500,20.1782685546875,0.00020968005992472172,0.0010741599835455418,-0.0001629488542675972
1773790603168231400,20.1982314453125,0.0005155318649485707,-0.00011349027045071125,0.0011185314506292343
1773790603188194600,20.218194580078126,0.0014158976264297962,0.001396725419908762,0.0013609947636723518
1773790603208157400,20.238157470703126,0.00024197176389861852,-0.00046898028813302517,-0.0009773867204785347
1773790603228120600,20.25812060546875,0.0004388514207676053,-0.00009846058674156666,-0.00018561817705631256
1773790603248083700,20.278083740234376,-0.0004556186031550169,0.000665018567815423,-0.00034225592389702797
1773790603268046600,20.298046630859375,-0.00025690122856758535,0.0007373453117907047,0.0017429180443286896
1773790603288009500,20.318009521484374,-0.0004757108981721103,-0.0008611963130533695,0.00034079281613230705
1773790603307971600,20.3379716796875,0.0021631934214383364,-0.0008284796494990587,0.0007149153389036655
1773790603327934500,20.3579345703125,0.0004503133532125503,0.0003728289157152176,-0.0001717153936624527
1773790603347897600,20.377897705078126,-0.0016285460442304611,0.000047908397391438484,0.0010675368830561638
1773790603367860500,20.397860595703126,-0.0005876709474250674,-0.000015172874554991722,0.0013534966856241226
1773790603387823600,20.41782373046875,0.0002010277094086632,0.0002480871044099331,0.0006298967637121677
1773790603407786500,20.437786376953124,0.0003443692985456437,0.000020567094907164574,-0.00039499346166849136
1773790603427749600,20.45774951171875,-0.00012022641021758318,0.00015654857270419598,-0.000822979025542736
1773790603447712500,20.47771240234375,-0.00020003682584501803,-0.00028795981779694557,0.0017406493425369263
1773790603467675400,20.49767529296875,0.0011895361822098494,-0.00016557914204895496,0.0011391551233828068
1773790603487637500,20.517637451171876,0.001143711619079113,0.00017177406698465347,-0.0004781852476298809
1773790603507600600,20.5376005859375,0.000913474359549582,0.0011960641713812947,-0.0008397875353693962
1773790603527563500,20.5575634765625,0.00011611002264544368,-0.0018129535019397736,-0.0010682875290513039
1773790603547526700,20.577526611328125,0.001373458537273109,0.0009887528140097857,0.0011269706301391125
1773790603567489500,20.597489501953124,-0.0013726599281653762,-0.0009351151529699564,0.0004039355553686619
1773790603587452400,20.617452392578127,0.0005843696417286992,0.000368734123185277,-0.0003143278881907463
1773790603607415600,20.63741552734375,-0.0011671010870486498,0.00027313479222357273,0.000670792069286108
1773790603627378400,20.65737841796875,0.0009323417907580733,-0.0008625495247542858,0.00017564557492733002
1773790603647341600,20.677341552734376,0.00002752896398305893,-0.0007824860513210297,-0.0018636025488376617
1773790603667303700,20.6973037109375,0.00019107171101495624,0.0014897154178470373,0.0010857032611966133
1773790603687266600,20.7172666015625,0.0009394614608027041,-0.000014396151527762413,-0.001093957107514143
1773790603707229700,20.737229736328125,0.00043621461372822523,0.0005013602785766125,-0.0003201593644917011
1773790603727192300,20.7571923828125,0.0014953701756894588,0.0003374731168150902,0.0003454764373600483
1773790603749651500,20.7796513671875,0.0006337776430882514,0.00025204475969076157,0.00041509419679641724
1773790603769614000,20.799614013671874,0.0008841522503644228,-0.0004446201492100954,-0.00006008334457874298
1773790603789577000,20.819576904296873,0.00043578294571489096,-0.000996357062831521,-0.0006346888840198517
1773790603809539800,20.839539794921876,0.0004922337830066681,-0.001233755610883236,-0.0011130869388580322
1773790603829502000,20.859501953125,0.0011034433264285326,-0.000865342328324914,0.0015307506546378136
1773790603849464800,20.87946484375,-0.0011105216108262539,0.0013801862951368093,0.000060690101236104965
1773790603869428000,20.899427978515625,0.00024742897949181497,-0.000304708955809474,0.00020049326121807098
1773790603889390800,20.919390869140624,-0.00008518644608557224,0.0011526516173034906,0.0003804839216172695
1773790603909354000,20.93935400390625,-0.0014434389304369688,-0.0002756882458925247,0.0010478729382157326
1773790603929317000,20.959317138671874,0.0017196679254993796,-0.00038389628753066063,-0.00029655126854777336
1773790603949279700,20.97927978515625,0.0008884164853952825,0.00101943826302886,0.00044478243216872215
1773790603969243000,20.999242919921876,-0.00019602611428126693,0.0008465673308819532,-0.0006779097020626068
1773790603989205800,21.019205810546875,-0.0003592410939745605,0.00027523748576641083,-0.0009362632408738136
1773790604009168000,21.03916796875,0.0004462530487217009,0.0016531777800992131,-0.00042476505041122437
1773790604029131000,21.059131103515625,-0.00034283375134691596,0.0001996674109250307,0.0006335931830108166
1773790604049094000,21.079093994140624,-0.0003865655744448304,-0.0002935181837528944,-0.0003334986977279186
1773790604069057000,21.09905712890625,0.000283297267742455,0.0004819585010409355,-0.0000966731458902359
1773790604089019600,21.11901953125,0.0006303730187937617,-0.00010970607399940491,0.0009262417443096638
1773790604111477800,21.141477783203126,0.0006877657724544406,0.0017512073973193765,-0.0001944839023053646
1773790604131441000,21.16144091796875,-0.0003584894584491849,0.0005063323769718409,-0.0007869298569858074
1773790604151403800,21.18140380859375,-0.0001440901542082429,-0.0003777393139898777,0.0009699445217847824
1773790604171367000,21.201366943359375,-0.00041695224354043603,0.0002811616286635399,0.00007896870374679565
1773790604191330000,21.221330078125,0.000739244045689702,0.0018359723035246134,-0.00020546745508909225
1773790604211293000,21.24129296875,0.0013685196172446012,-0.0010328853968530893,0.00043251272290945053
1773790604231254800,21.2612548828125,0.0001672579674050212,0.000556872459128499,-0.0009516277350485325
1773790604251218000,21.281218017578126,-0.0010699345730245113,0.0004770546220242977,-0.0009497343562543392
1773790604271180800,21.301180908203126,0.000326110195601359,0.00069480761885643,0.0010034963488578796
1773790604291144000,21.32114404296875,0.0006434213137254119,-0.0001436916645616293,-0.001243392936885357
1773790604311106800,21.34110693359375,0.0004034305748064071,0.00012092804536223412,-0.0009566843509674072
1773790604331070000,21.361070068359375,-0.0001645968877710402,0.0008599597495049238,-0.00006308266893029213
1773790604351033000,21.381033203125,-0.0005004467675462365,-0.000472379382699728,0.0002423715777695179
1773790604370996000,21.400995849609377,-0.001741734566166997,0.0006820708513259888,-0.0006817691028118134
1773790604390957800,21.420957763671876,-0.00008031976176425815,0.0007256078533828259,0.0004644421860575676
1773790604410921000,21.4409208984375,-0.0005823562969453633,-0.0007095790933817625,0.00044056400656700134
1773790604430883800,21.4608837890625,-0.0007114717736840248,0.0009070441592484713,-0.0008098292164504528
1773790604450847000,21.480846923828125,0.0001312146632699296,-0.00024879840202629566,-0.0006658732891082764
1773790604470809900,21.500809814453124,0.0007588090375065804,-0.00014845514670014381,0.0010178755037486553
1773790604490773000,21.52077294921875,-0.0013519591884687543,0.0007072521839290857,0.0005093617364764214
1773790604510734800,21.54073486328125,0.0006978226010687649,0.0005332385189831257,0.0007268269546329975
1773790604530697700,21.56069775390625,0.0007175438804551959,0.000495408196002245,0.000544058158993721
1773790604550660900,21.580660888671876,-0.0005319332703948021,-0.00020158966071903706,0.0005005775019526482
1773790604570624000,21.6006240234375,0.0009455422987230122,-0.0013269633054733276,0.00007960991933941841
1773790604590587000,21.6205869140625,0.000024863635189831257,0.0010403416818007827,0.0003841412253677845
1773790604610550000,21.640550048828125,-0.0004958597710356116,-0.00024262024089694023,0.0008527101017534733
1773790604630513000,21.660512939453124,-0.0022735227830708027,-0.00012162094935774803,0.0005668881349265575
1773790604650476000,21.68047607421875,-0.0008310128469020128,-0.0009088986553251743,0.00021445704624056816
1773790604670438000,21.70043798828125,-0.0004752327222377062,-0.0004360682796686888,-0.0006974604912102222
1773790604690400800,21.72040087890625,0.0006018059211783111,-0.00013676495291292667,0.0004847305826842785
1773790604710364000,21.740364013671876,-0.00020829250570386648,-0.0012490658555179834,0.0013983221724629402
1773790604730326800,21.760326904296875,0.0011812327429652214,-0.00022438750602304935,-0.00006778817623853683
1773790604750290000,21.7802900390625,0.0007302623125724494,-0.0014746165834367275,0.0000825813040137291
1773790604770253300,21.80025341796875,0.0009289595764130354,-0.0005067021120339632,0.0007452876307070255
1773790604790216200,21.82021630859375,0.0004446097300387919,-0.0007589480374008417,0.000056862831115722656
1773790604810179300,21.840179443359375,0.0008689617388881743,-0.0006663978565484285,0.001029214821755886
1773790604830141200,21.86014111328125,0.0005214777193032205,-0.0003861791919916868,-0.00006575090810656548
1773790604850104300,21.880104248046877,0.00020386958203744143,-0.000028176698833703995,-0.00007233023643493652
1773790604870067500,21.9000673828125,-0.00026004432584159076,0.0007848353125154972,0.000029327813535928726
1773790604890030300,21.9200302734375,-0.001763516920618713,-0.001218138262629509,-0.00016820617020130157
1773790604909993500,21.939993408203126,0.000630875350907445,-0.00006172852590680122,-0.0019801082089543343
1773790604929956000,21.9599560546875,-0.00007474416634067893,-0.0002532978542149067,0.0013103778474032879
1773790604949919200,21.979919189453124,-0.0008273805142380297,-0.00033503537997603416,0.00022913748398423195
1773790604969882400,21.99988232421875,0.00013496157771442086,0.0001027050893753767,-0.0011994410306215286
1773790604989844200,22.01984423828125,0.0002837918873410672,0.0005703475326299667,-0.0005074841901659966
1773790605009807400,22.039807373046877,0.0006570935947820544,0.00009261840023100376,0.00023077940568327904
1773790605029770500,22.0597705078125,0.00024926336482167244,0.0016743596643209457,-0.00039205141365528107
1773790605049733400,22.0797333984375,-0.00017514723003841937,-0.001808074302971363,-0.00037573371082544327
1773790605069696500,22.099696533203126,-0.0010724174790084362,0.00013862107880413532,0.00001962995156645775
1773790605089659100,22.1196591796875,-0.000744482153095305,0.00025586411356925964,0.00016738474369049072
1773790605109622300,22.139622314453124,-0.0009389883489347994,-0.00010505318641662598,0.000005197245627641678
1773790605129585200,22.159585205078123,0.00014609706704504788,0.00035348650999367237,-0.0007423530332744122
1773790605149547300,22.17954736328125,-0.000962211168371141,0.00037643383257091045,-0.0006384714506566525
1773790605169510400,22.199510498046877,-0.000566847447771579,-0.0003638372290879488,0.0003593508154153824
1773790605189473300,22.219473388671876,-0.0014288157690316439,-0.00042685423977673054,-0.0003820289857685566
1773790605209436400,22.2394365234375,-0.00007039401680231094,-0.0005455049686133862,0.000731125008314848
1773790605229399300,22.2593994140625,0.0006315640057437122,-0.000049519119784235954,0.000019920524209737778
1773790605249362200,22.279362060546877,0.0011925706639885902,0.000343977939337492,-0.0016507497057318687
1773790605269325300,22.2993251953125,-0.0006001436267979443,-0.0004597138613462448,0.0008868947625160217
1773790605289287400,22.319287353515627,-0.00007175814243964851,5.939509719610214e-7,-0.001050022430717945
1773790605309250300,22.339250244140626,0.0013007974484935403,0.0011528929462656379,-0.00003892090171575546
1773790605329213400,22.35921337890625,0.00014574138913303614,-0.0004468171391636133,0.00010014185681939125
1773790605349176300,22.37917626953125,0.00014217586431186646,-0.00028797867707908154,0.0011429842561483383
1773790605369139200,22.39913916015625,0.00013195736391935498,0.0005199506413191557,0.0005027959123253822
1773790605389102300,22.419102294921874,0.0003950205282308161,-0.00037160213105380535,-0.0012869276106357574
1773790605409065200,22.439065185546873,0.00092625169781968,-0.0008966280147433281,-0.00045877182856202126
1773790605429028400,22.4590283203125,0.00032881475635804236,-0.0009546214714646339,0.0009219544008374214
1773790605448990500,22.478990478515627,-0.00023466290440410376,0.0006642828229814768,0.0004745852202177048
1773790605468953300,22.498953369140626,0.0005971047794446349,-0.00012000021524727345,-0.0007714387029409409
1773790605488916500,22.51891650390625,-0.00008515958325006068,0.00030430941842496395,-0.0002793227322399616
1773790605508879400,22.53887939453125,-0.0005277213640511036,0.0002689347602427006,0.00022542104125022888
1773790605528842200,22.55884228515625,-0.00026724254712462425,-0.0013743971940129995,0.0004902579821646214
1773790605548805000,22.57880517578125,0.0011776700848713517,-0.00036617997102439404,-0.00022836215794086456
1773790605568768300,22.598768310546873,0.0005338577320799232,-0.0010339287109673023,0.00015894277021288872
1773790605588731400,22.6187314453125,-0.0003220406360924244,-0.00012511294335126877,-0.00032418547198176384
1773790605608693200,22.638693359375,-0.0011307122185826302,0.0010969931026920676,0.001236440148204565
1773790605628656400,22.658656494140626,-0.0007126455311663449,-2.551823854446411e-7,-0.0001535560004413128
