time,seconds_elapsed,z,y,x
1773790582990674400,0.02067431640625,0.00015233281010296196,-0.00256462418474257,-0.006057093385607004
1773790583010637600,0.040637451171875,0.0008287757518701255,-0.0034730283077806234,-0.006340453866869211
1773790583030600400,0.060600341796875,-0.00030866035376675427,-0.0030357372015714645,-0.007297327741980553
1773790583050563600,0.0805634765625,-0.0004021373169962317,-0.003367034485563636,-0.005425125360488892
1773790583070526700,0.100526611328125,-0.0007691209320910275,-0.0043710460886359215,-0.0070914654061198235
1773790583090489600,0.120489501953125,-0.000969923275988549,-0.0029792783316224813,-0.005682120565325022
1773790583110452500,0.140452392578125,-0.00043542683124542236,-0.003899666713550687,-0.00567066902294755
1773790583130415400,0.160415283203125,-0.002522546099498868,-0.003457848448306322,-0.006374009884893894
1773790583150378500,0.18037841796875,-0.0003091930120717734,-0.005066930316388607,-0.006228601094335318
1773790583170341400,0.20034130859375,-0.0011209244839847088,-0.002918291836977005,-0.006568686570972204
1773790583190304500,0.220304443359375,0.001038366463035345,-0.002639725338667631,-0.006352171767503023
1773790583210267600,0.240267578125,0.00025592977181077003,-0.0032264196779578924,-0.006357764359563589
1773790583230230500,0.26023046875,-0.0004577973741106689,-0.0034445326309651136,-0.005981726106256247
1773790583250193700,0.280193603515625,0.00012969593808520585,-0.003311108099296689,-0.00637960247695446
1773790583270156500,0.300156494140625,-0.0008609999786131084,-0.003960919566452503,-0.005919408053159714
1773790583290119400,0.320119384765625,0.0008668589289300144,-0.0025537051260471344,-0.0049026133492589
1773790583310083600,0.34008349609375,-0.0008990831556729972,-0.0029640982393175364,-0.006427006796002388
1773790583330046500,0.36004638671875,0.0005619269795715809,-0.0029976540245115757,-0.00743288267403841
1773790583350009300,0.38000927734375,-0.00034115093876607716,-0.0024311996530741453,-0.0068211546167731285
1773790583369972500,0.399972412109375,0.000027430558475316502,-0.0032139027025550604,-0.005741775035858154
1773790583389935600,0.419935546875,-0.00017443705291952938,-0.0023643544409424067,-0.004443750716745853
1773790583409898500,0.4398984375,-0.0002897519152611494,-0.0036751623265445232,-0.005633650813251734
1773790583429861600,0.459861572265625,0.0002745719102676958,-0.0025715483352541924,-0.00634924229234457
1773790583449824500,0.479824462890625,-0.0006841660942882299,-0.0035950010642409325,-0.0052147358655929565
1773790583469787600,0.49978759765625,0.00010998855577781796,-0.002802178030833602,-0.0067540425807237625
1773790583489750500,0.51975048828125,-0.0012942962348461151,-0.002927879337221384,-0.00695005152374506
1773790583509713400,0.53971337890625,-0.00010492854926269501,-0.0029885992407798767,-0.005789179354906082
1773790583529676500,0.559676513671875,-0.000031957933970261365,-0.0028879318851977587,-0.006964166183024645
1773790583549639400,0.579639404296875,0.00004846953015658073,-0.003029079409316182,-0.005876531358808279
1773790583569602600,0.5996025390625,0.000261788722127676,-0.0041617220267653465,-0.005972937680780888
1773790583589565400,0.6195654296875,0.0005041363765485585,-0.0029262814205139875,-0.006001433357596397
1773790583609528600,0.639528564453125,-0.0006202502408996224,-0.0034349451307207346,-0.0056922403164207935
1773790583629491500,0.659491455078125,0.00008069378236541525,-0.0036019254475831985,-0.005497829522937536
1773790583649454600,0.67945458984375,0.0011254518758505583,-0.0032740901224315166,-0.005818740464746952
1773790583669417700,0.699417724609375,0.0004977448261342943,-0.002912432886660099,-0.006678142584860325
1773790583689380400,0.71938037109375,0.000035420041967881843,-0.002502306131646037,-0.006452572997659445
1773790583709343500,0.739343505859375,-0.000624777574557811,-0.0031201594974845648,-0.005346029531210661
1773790583729307400,0.759307373046875,0.0007584682898595929,-0.001773132593370974,-0.005901298485696316
1773790583749271600,0.779271484375,-0.00040666470886208117,-0.002591255819424987,-0.005397428758442402
1773790583769234700,0.799234619140625,-0.0016817862633615732,-0.0023643544409424067,-0.005298358853906393
1773790583789197600,0.819197509765625,0.0011587414192035794,-0.002728142309933901,-0.005375057924538851
1773790583809160400,0.839160400390625,0.00032676986302249134,-0.003582217963412404,-0.00606268597766757
1773790583829123600,0.85912353515625,-0.00038988678716123104,-0.0032080437522381544,-0.00694978516548872
1773790583849087500,0.87908740234375,-0.00021118867152836174,-0.003450657706707716,-0.005312739871442318
1773790583869050600,0.899050537109375,-0.0014271880500018597,-0.0047055394388735294,-0.004473311826586723
1773790583889013500,0.919013427734375,-0.0012128035305067897,-0.0019718045368790627,-0.006788664031773806
1773790583908976600,0.9389765625,0.0008154599345289171,-0.0029984530992805958,-0.006593720521777868
1773790583928939500,0.958939453125,-0.0002918824611697346,-0.003564374754205346,-0.0062395199202001095
1773790583948902700,0.978902587890625,0.0001203748834086582,-0.0035388083197176456,-0.007382282521575689
1773790583968865500,0.998865478515625,0.0004572647449094802,-0.003335342975333333,-0.006366286426782608
1773790583988828700,1.01882861328125,-0.0010069411946460605,-0.0035270904190838337,-0.0060024987906217575
1773790584008791600,1.03879150390625,-0.00007669904152862728,-0.0026618295814841986,-0.005540973041206598
1773790584028754400,1.05875439453125,0.0001651159836910665,-0.0029904635157436132,-0.00615110294893384
1773790584048717600,1.078717529296875,-0.0012263857061043382,-0.0030567762441933155,-0.005587578285485506
1773790584068680400,1.098680419921875,-0.0013281183782964945,-0.0017584852175787091,-0.0062275356613099575
1773790584088643600,1.1186435546875,-0.0005795038305222988,-0.002329200739040971,-0.006166016682982445
1773790584108605700,1.138605712890625,0.0005989448982290924,-0.0030149647500365973,-0.0062275356613099575
1773790584128568600,1.158568603515625,-0.00045806370326317847,-0.0024503744207322598,-0.005567604675889015
1773790584148531700,1.17853173828125,-0.0016040218761190772,-0.001680720946751535,-0.0059865196235477924
1773790584168494300,1.198494384765625,0.0013009541435167193,-0.003784351982176304,-0.005285841878503561
1773790584188457500,1.21845751953125,-0.0003981425834354013,-0.0030538467690348625,-0.006733802612870932
1773790584208420600,1.238420654296875,-0.00007323692989302799,-0.0033459956757724285,-0.005910353269428015
1773790584228383500,1.258383544921875,-0.0003861583536490798,-0.003753725439310074,-0.005170527379959822
1773790584248346600,1.2783466796875,-0.0008905610884539783,-0.002927080262452364,-0.006449377164244652
1773790584268309500,1.2983095703125,-0.00058323226403445,-0.002692455891519785,-0.006806773599237204
1773790584288272600,1.318272705078125,0.00014540860138367862,-0.0033835461363196373,-0.006716492120176554
1773790584308235500,1.338235595703125,-0.0003528688393998891,-0.003363838652148843,-0.005028847139328718
1773790584328198700,1.35819873046875,-0.0003235740587115288,-0.0029638318810611963,-0.0057220677845180035
1773790584348161500,1.37816162109375,-0.001198688754811883,-0.0016080166678875685,-0.004896221682429314
1773790584368124400,1.39812451171875,0.000316916179144755,-0.002662362065166235,-0.005833387840539217
1773790584388087600,1.418087646484375,-0.0005749764968641102,-0.003025883575901389,-0.0043534692376852036
1773790584408050400,1.438050537109375,-0.00003914846820407547,-0.0038890140131115913,-0.005316734779626131
1773790584428013600,1.458013671875,-0.001528920722194016,-0.0034405377227813005,-0.006916761863976717
1773790584447976700,1.477976806640625,-0.00012064119800925255,-0.0026618295814841986,-0.0049489522352814674
1773790584467939600,1.497939697265625,0.0006410228670574725,-0.0023007048293948174,-0.004824049770832062
1773790584487902700,1.51790283203125,-0.00031851406674832106,-0.0027563716284930706,-0.006514624692499638
1773790584507865600,1.537865478515625,0.0002540655550546944,-0.003022421384230256,-0.004884770140051842
1773790584527828500,1.557828369140625,-0.001371527905575931,-0.0027142937760800123,-0.007141799200326204
1773790584547792600,1.577792724609375,0.00006578007742064074,-0.0022599585354328156,-0.006328203249722719
1773790584567755500,1.597755615234375,-0.0003177151083946228,-0.0033161682076752186,-0.004602208733558655
1773790584587718400,1.617718505859375,0.0007094661123119295,-0.002910302486270666,-0.0064922538585960865
1773790584607681500,1.637681640625,0.00006258428766159341,-0.0035057852510362864,-0.0060142166912555695
1773790584627644400,1.65764453125,-0.0005358280031941831,-0.004418983124196529,-0.006700247060507536
1773790584647607600,1.677607666015625,-0.000023968450477696024,-0.0036005936563014984,-0.005869873333722353
1773790584667570700,1.69757080078125,-0.0019952403381466866,-0.003477289341390133,-0.005101817660033703
1773790584687533600,1.717533447265625,0.0003414172388147563,-0.0035060516092926264,-0.006514624692499638
1773790584707496700,1.73749658203125,0.0006684534018859267,-0.002828543307259679,-0.004802744835615158
1773790584727459600,1.75745947265625,-0.0004546015989035368,-0.002067944500595331,-0.005856025032699108
1773790584747421000,1.7774208984375,-0.000031957933970261365,-0.002680471632629633,-0.006430734880268574
1773790584767384000,1.797384033203125,-0.000016245283404714428,-0.003516171593219042,-0.005906891077756882
1773790584787347200,1.81734716796875,-0.00031372037483379245,-0.003460511565208435,-0.005277586169540882
1773790584807310000,1.83731005859375,-0.0009126652730628848,-0.0034269557800143957,-0.006078398786485195
1773790584827273200,1.857273193359375,-0.0009387642494402826,-0.003622964257374406,-0.0057164751924574375
1773790584847236000,1.877236083984375,-0.0008263788768090308,-0.003881823504343629,-0.005765743553638458
1773790584867199000,1.897198974609375,-0.0008021441171877086,-0.0023702133912593126,-0.0057412427850067616
1773790584887161900,1.917161865234375,-0.0011142665753141046,-0.002662894781678915,-0.005898901727050543
1773790584907125000,1.937125,0.0003352919884491712,-0.0026636936236172915,-0.006317284423857927
1773790584927088000,1.957088134765625,0.000969923275988549,-0.003439738880842924,-0.006381466519087553
1773790584947051000,1.977051025390625,0.0009121326729655266,-0.0037377465050667524,-0.00529676117002964
1773790584967014100,1.99701416015625,0.0010436928132548928,-0.002621349412947893,-0.005562810692936182
1773790584986977000,2.01697705078125,0.0006210491410456598,-0.002901514060795307,-0.005167864263057709
1773790585006940200,2.036940185546875,0.0006567355012521148,-0.0031494542490690947,-0.004877845756709576
1773790585026903000,2.056903076171875,-0.000734766130335629,-0.0018375811632722616,-0.006006493698805571
1773790585046866000,2.076865966796875,0.00004367584188003093,-0.0033806166611611843,-0.006301837973296642
1773790585066829000,2.0968291015625,-0.001151018193922937,-0.0033127060160040855,-0.007166299968957901
1773790585086792000,2.1167919921875,-0.0001310275256400928,-0.002118011936545372,-0.005130846053361893
1773790585106755000,2.136755126953125,-0.0006388923502527177,-0.0031321437563747168,-0.0041398839093744755
1773790585126718000,2.156718017578125,-0.0010508833220228553,-0.0037057886365801096,-0.00452950457111001
1773790585146681000,2.17668115234375,-0.0007313040550798178,-0.0023331954143941402,-0.005568137392401695
1773790585166644200,2.196644287109375,-0.0010980212828144431,-0.00387356779538095,-0.005020058713853359
1773790585186607000,2.216607177734375,0.0014050838071852922,-0.002945722546428442,-0.005769472103565931
1773790585206570200,2.2365703125,0.0007454187725670636,-0.002115082461386919,-0.006608900614082813
1773790585226533000,2.256533203125,-0.0006460828590206802,-0.0027457191608846188,-0.005532450973987579
1773790585246496000,2.27649609375,0.0023728765081614256,-0.0018668759148567915,-0.005690109916031361
1773790585266459000,2.296458984375,0.00022423815971706063,-0.0032378712203353643,-0.0062400526367127895
1773790585286422000,2.316422119140625,0.0001555285998620093,-0.003261040663346648,-0.005685050040483475
1773790585306385200,2.33638525390625,0.000147272803587839,-0.0019883159548044205,-0.006298109423369169
1773790585326348000,2.35634814453125,0.0010615360224619508,-0.0023044333793222904,-0.005835252348333597
1773790585346311200,2.376311279296875,-0.0008412926108576357,-0.00387303507886827,-0.006111155729740858
1773790585366274000,2.396274169921875,0.0005811017472296953,-0.002394448034465313,-0.006374542135745287
1773790585386237200,2.4162373046875,0.0010572749888524413,-0.002292981604114175,-0.005920739844441414
1773790585406200000,2.436199951171875,0.00033928672201000154,-0.004340686369687319,-0.0057345847599208355
1773790585426163000,2.456162841796875,-0.00027616979787126184,-0.0027888622134923935,-0.006147641222923994
1773790585446126000,2.4761259765625,-0.0017438378417864442,-0.003010969841852784,-0.006422212813049555
1773790585466089000,2.4960888671875,0.0003515372518450022,-0.004423776641488075,-0.0049510826356709
1773790585486052000,2.516052001953125,0.0003147856332361698,-0.003994741477072239,-0.00686216726899147
1773790585506015000,2.536014892578125,-0.0013851100811734796,-0.0024469124618917704,-0.006128732580691576
1773790585525978000,2.55597802734375,-0.000319845654303208,-0.003436809405684471,-0.006051234435290098
1773790585545941000,2.57594091796875,-0.0010958907660096884,-0.0023065637797117233,-0.005679723806679249
1773790585565905200,2.5959052734375,-0.000672448193654418,-0.0024549018125981092,-0.004516721237450838
1773790585585868000,2.615867919921875,-0.0005502090789377689,-0.0024381240364164114,-0.005585447885096073
1773790585605831200,2.6358310546875,0.00023196132679004222,-0.003102316288277507,-0.006172408349812031
1773790585625794000,2.6557939453125,-0.0013259878614917397,-0.0030280142091214657,-0.006517820525914431
1773790585645757000,2.6757568359375,-0.002284992253407836,-0.0026666230987757444,-0.006190517917275429
1773790585665720000,2.695719970703125,-0.0007864314829930663,-0.0020698087755590677,-0.006124471314251423
1773790585685683000,2.715682861328125,0.0002748382103163749,-0.0027779433876276016,-0.006088519003242254
1773790585705646000,2.73564599609375,-0.000467118457891047,-0.0028357338160276413,-0.0065564364194869995
1773790585725609000,2.75560888671875,-0.000630902883131057,-0.002971821464598179,-0.005741509143263102
1773790585745572600,2.775572509765625,-0.0002950782363768667,-0.002767557045444846,-0.00643765926361084
1773790585765535500,2.795535400390625,-0.0012072109384462237,-0.002516420790925622,-0.006481601390987635
1773790585785498600,2.81549853515625,-0.0009494169498793781,-0.0035515916533768177,-0.003433879930526018
1773790585805461800,2.835461669921875,-0.0008117315010167658,-0.0034328147303313017,-0.005233111325651407
1773790585825424600,2.855424560546875,-0.0004474110610317439,-0.0030061763245612383,-0.005893841851502657
1773790585845387500,2.875387451171875,0.0005278385360725224,-0.0026847326662391424,-0.006204366218298674
1773790585865350400,2.895350341796875,-0.0006737797521054745,-0.0033936661202460527,-0.00672315014526248
1773790585885313500,2.9153134765625,-0.0006239786162041128,-0.0043308325111866,-0.0049026133492589
1773790585905276400,2.9352763671875,-0.0010807107901200652,-0.000945954816415906,-0.006068811286240816
1773790585925239600,2.955239501953125,0.0004724447790067643,-0.003450657706707716,-0.005200620740652084
1773790585945202700,2.97520263671875,0.0014884406700730324,-0.00330338510684669,-0.004727377090603113
1773790585965165600,2.99516552734375,-0.00010945591930067167,-0.003388073528185487,-0.005021656397730112
1773790585985128700,3.015128662109375,-0.00045673211570829153,-0.003585413796827197,-0.006343916058540344
1773790586005091600,3.035091552734375,0.00037284253630787134,-0.002712429501116276,-0.0068211546167731285
1773790586025054500,3.055054443359375,-0.0012450277572497725,-0.0035167040769010782,-0.005853361915796995
1773790586045017600,3.075017578125,-0.0011590076610445976,-0.003667971817776561,-0.006494118366390467
1773790586064980500,3.09498046875,-0.0005459480453282595,-0.002290584845468402,-0.006284793838858604
1773790586084943600,3.114943603515625,-0.0002820287481881678,-0.00398595305159688,-0.004799016285687685
1773790586104906500,3.134906494140625,-0.0009097357979044318,-0.0018716695485636592,-0.00532472413033247
1773790586124869600,3.15486962890625,0.00038722361205145717,-0.0015670040156692266,-0.006895190104842186
1773790586144832500,3.17483251953125,-0.0005094627267681062,-0.0025920546613633633,-0.004898352082818747
1773790586164795600,3.194795654296875,0.00006657902849838138,-0.002621615771204233,-0.004830707795917988
1773790586184758800,3.2147587890625,0.00022397184511646628,-0.0024738102219998837,-0.005181978922337294
1773790586204721400,3.234721435546875,-0.0008186557097360492,-0.0027214842848479748,-0.006136455573141575
1773790586224684500,3.2546845703125,-0.0012716593919321895,-0.0023129554465413094,-0.00603392394259572
1773790586244647400,3.2746474609375,0.00017710021347738802,-0.003053047927096486,-0.005590507760643959
1773790586264610600,3.294610595703125,0.0009028115891851485,-0.002859169617295265,-0.005854426883161068
1773790586284573400,3.314573486328125,-0.0003709783486556262,-0.0021933794487267733,-0.00629091914743185
1773790586304536600,3.33453662109375,0.00037204360705800354,-0.004298341926187277,-0.006161755882203579
1773790586324499700,3.354499755859375,-0.0014269216917455196,-0.0020969731267541647,-0.004989964887499809
1773790586344462600,3.374462646484375,0.0009198558400385082,-0.003145193215459585,-0.006974552292376757
1773790586364425700,3.39442578125,-0.0012743226252496243,-0.003266899613663554,-0.00418276060372591
1773790586384388400,3.414388427734375,-0.00001704423084447626,-0.0031222901307046413,-0.004596616141498089
1773790586404351500,3.4343515625,0.0008532768115401268,-0.002426938619464636,-0.00694925244897604
1773790586424314600,3.454314697265625,0.00047830372932367027,-0.002502306131646037,-0.00563977612182498
1773790586444277500,3.474277587890625,-0.0003534014686010778,-0.0035902075469493866,-0.005914614535868168
1773790586464240600,3.49424072265625,0.00019707392493728548,-0.0034088462125509977,-0.004162520635873079
1773790586484203500,3.51420361328125,-0.000467118457891047,-0.002469016704708338,-0.006839796435087919
1773790586504166700,3.534166748046875,-0.001395230065099895,-0.004002464935183525,-0.005323126446455717
1773790586524129500,3.554129638671875,0.0003379551344551146,-0.0029941920656710863,-0.004945223685353994
1773790586544092700,3.5740927734375,-0.00026072346372529864,-0.0033047166652977467,-0.005330316722393036
1773790586564055600,3.5940556640625,-0.0002969424531329423,-0.003884486621245742,-0.005486644338816404
1773790586584018400,3.614018310546875,-0.0009552759001962841,-0.002685797866433859,-0.006188387516885996
1773790586603981600,3.633981689453125,-0.0008207862265408039,-0.002284992253407836,-0.006001433357596397
1773790586623944400,3.6539443359375,0.0006434197421185672,-0.0027590349782258272,-0.00441019469872117
1773790586643907600,3.673907470703125,-0.001020257011987269,-0.0028855351265519857,-0.00547386147081852
1773790586663870500,3.693870361328125,-0.00033209618413820863,-0.0036155073903501034,-0.006115949247032404
1773790586683833600,3.71383349609375,0.00021891183860134333,-0.003569967346265912,-0.005942311137914658
1773790586703796700,3.733796630859375,0.00047857005847617984,-0.0017142767319455743,-0.004195810295641422
1773790586723759600,3.753759521484375,-0.0006436860421672463,-0.0024927188642323017,-0.006360960192978382
1773790586743722500,3.773722412109375,-0.00038216362008824944,-0.003590740030631423,-0.00430020596832037
1773790586763685400,3.793685302734375,-0.00043888893560506403,-0.0034495925065129995,-0.005215268116444349
1773790586783648500,3.8136484375,-0.00022903185163158923,-0.002432531211525202,-0.005918076727539301
1773790586803611400,3.833611328125,0.0016207997687160969,-0.0022066952660679817,-0.005152950529009104
1773790586823574500,3.853574462890625,-0.001440237509086728,-0.0032866070978343487,-0.006966829299926758
1773790586843537400,3.873537353515625,0.000571248063351959,-0.0025331987999379635,-0.00726403808221221
1773790586863500300,3.893500244140625,-0.0011169298086315393,-0.0033686324022710323,-0.006028597708791494
1773790586883463400,3.91346337890625,0.0002585929469205439,-0.0014828480780124664,-0.0059958407655358315
1773790586903426300,3.93342626953125,-0.0005376922199502587,-0.0031190942972898483,-0.006928479764610529
1773790586923389400,3.953389404296875,-0.0015579492319375277,-0.0034669029992073774,-0.00444055488333106
1773790586943352600,3.9733525390625,-0.0003685815026983619,-0.004297276493161917,-0.0062701464630663395
1773790586963315500,3.9933154296875,0.00006524744821945205,-0.002055694116279483,-0.006677343975752592
1773790586983278600,4.013278564453125,0.00032410668791271746,-0.0027830032631754875,-0.004399542231112719
1773790587003241500,4.033241455078125,-0.0006135923322290182,-0.003683684393763542,-0.006946056615561247
1773790587023204400,4.053204345703125,0.0003656520275399089,-0.0015270565636456013,-0.005645368713885546
1773790587043167200,4.073167236328125,-0.0006820355774834752,-0.003439472522586584,-0.00566853815689683
1773790587063130400,4.09313037109375,-0.0002479403046891093,-0.0017600831342861056,-0.005281314719468355
1773790587083093500,4.113093505859375,0.001987250754609704,-0.00245143985375762,-0.0063066319562494755
1773790587103056400,4.133056396484375,-0.0009859022684395313,-0.0028727517928928137,-0.005797169171273708
1773790587123019500,4.15301953125,0.0001603222917765379,-0.003763312939554453,-0.006231530569493771
1773790587142982400,4.172982421875,-0.000182959163794294,-0.002763562137261033,-0.005633917171508074
1773790587162945500,4.192945556640625,-0.000035686356568476185,-0.0029166939202696085,-0.005696501582860947
1773790587182908400,4.212908447265625,-0.00011052118497900665,-0.0013518205378204584,-0.00663526589050889
1773790587202871300,4.232871337890625,0.0012122709304094315,-0.0016431703697890043,-0.006711964961141348
1773790587222834400,4.25283447265625,-0.0014410364674404263,-0.0033606430515646935,-0.007069627288728952
1773790587242797300,4.27279736328125,-0.0010197244118899107,-0.0035872780717909336,-0.006428870838135481
1773790587262760400,4.292760498046875,-0.0010189254535362124,-0.003963582683354616,-0.005431250669062138
1773790587282723300,4.312723388671875,0.0003126551164314151,-0.0030192257836461067,-0.0051955608651041985
1773790587302686500,4.3326865234375,-0.0000066579027588886674,-0.0026724820490926504,-0.004977447912096977
1773790587322649600,4.352649658203125,-0.0011712582781910896,-0.002683667466044426,-0.006147907115519047
1773790587342612500,4.372612548828125,0.0008785768295638263,-0.003069559345021844,-0.004441619850695133
1773790587362575600,4.39257568359375,-0.001663144095800817,-0.0029702235478907824,-0.005046157632023096
1773790587382538200,4.412538330078125,-0.00026791400159709156,-0.0028644960839301348,-0.005245894659310579
1773790587402501400,4.43250146484375,0.000051132694352418184,-0.0033811493776738644,-0.0054669370874762535
1773790587422464300,4.45246435546875,-0.0005542038124985993,-0.00392736354842782,-0.00643765926361084
1773790587442427400,4.472427490234375,0.00009667274571256712,-0.002472212305292487,-0.006746852304786444
1773790587462390500,4.492390625,-0.00006364954606397077,-0.003013899317011237,-0.005447229836136103
1773790587482353400,4.512353515625,-0.00170815153978765,-0.003257312346249819,-0.0060054282657802105
1773790587502316500,4.532316650390625,0.00007163903501350433,-0.003251719754189253,-0.006826214492321014
1773790587522279400,4.552279541015625,-0.0006034722900949419,-0.003376888344064355,-0.00484269205480814
1773790587542242600,4.57224267578125,-0.0008780442294664681,-0.0031609057914465666,-0.005638711154460907
1773790587562205400,4.592205322265625,-0.0006625944515690207,-0.0029145635198801756,-0.00577879324555397
1773790587582168300,4.612168212890625,-0.0006343649583868682,-0.002826679265126586,-0.005887450184673071
1773790587602131500,4.63213134765625,-0.00010599380766507238,-0.0026996464002877474,-0.005387841258198023
1773790587622094300,4.65209423828125,-0.001112935016863048,-0.002898318227380514,-0.005560147576034069
1773790587642057500,4.672057373046875,-0.0007608651067130268,-0.0043926178477704525,-0.0060080913826823235
1773790587662020400,4.692020263671875,-0.0014149374328553677,-0.0024743429385125637,-0.0059987702406942844
1773790587681983500,4.7119833984375,-0.001017061178572476,-0.003287405939772725,-0.005588909611105919
1773790587701946600,4.731946533203125,-0.0006199838826432824,-0.0031973912846297026,-0.005828594323247671
1773790587721909500,4.751909423828125,0.0005400890368036926,-0.003239202778786421,-0.005666940473020077
1773790587741873200,4.771873046875,0.0001310275256400928,-0.0031875374261289835,-0.006050968077033758
1773790587761836000,4.7918359375,-0.0007566040731035173,-0.0025923210196197033,-0.006382265593856573
1773790587781799200,4.811799072265625,0.00007723167072981596,-0.001933454885147512,-0.005524993874132633
1773790587801762000,4.831761962890625,0.0007004113867878914,-0.0027047062758356333,-0.005305016878992319
1773790587821725200,4.85172509765625,-0.00004660531703848392,-0.0026133600622415543,-0.005331648513674736
1773790587841688000,4.87168798828125,0.00039468047907575965,-0.0022088258992880583,-0.006278402172029018
1773790587861651200,4.891651123046875,-0.0010812433902174234,-0.002302569104358554,-0.00691995769739151
1773790587881614300,4.9116142578125,-0.001919073867611587,-0.002812031889334321,-0.005315669346600771
1773790587901577200,4.9315771484375,0.0002388855500612408,-0.002679938916116953,-0.006162288598716259
1773790587921540400,4.951540283203125,-0.0010295780375599861,-0.004234159830957651,-0.006222742144018412
1773790587941503000,4.9715029296875,0.00033688987605273724,-0.0020474381744861603,-0.005739910993725061
1773790587961466000,4.991466064453125,-0.000046072687837295234,-0.0036946034524589777,-0.004514590837061405
1773790587981429000,5.011428955078125,-0.0006535397260449827,-0.0034549187403172255,-0.005664010997861624
1773790588001392000,5.03139208984375,0.0003398193512111902,-0.003108974313363433,-0.004764395300298929
1773790588021355300,5.051355224609375,-0.00004820321555598639,-0.0037380128633230925,-0.005426457151770592
1773790588041318100,5.071318115234375,-0.000028495824153651483,-0.0024442493449896574,-0.006262423470616341
1773790588061281300,5.09128125,0.00034221619716845453,-0.0022117553744465113,-0.006195311434566975
1773790588081244200,5.111244140625,-0.002067944500595331,-0.003175020683556795,-0.006715959403663874
1773790588101207300,5.131207275390625,-0.0012306467397138476,-0.002171807922422886,-0.006156695540994406
1773790588121170000,5.151169921875,-0.0004010720585938543,-0.0035204326268285513,-0.005801429972052574
1773790588141133000,5.171133056640625,-0.0014152037911117077,-0.004250138532370329,-0.006479470990598202
1773790588161096200,5.19109619140625,-0.0003251719754189253,-0.0020905814599245787,-0.005636580288410187
1773790588181059000,5.21105908203125,-0.0005619269795715809,-0.003236006945371628,-0.0054573495872318745
1773790588201022200,5.231022216796875,-0.0014093448407948017,-0.0024567660875618458,-0.005565473809838295
1773790588220985000,5.250985107421875,-0.00021225394448265433,-0.0038163098506629467,-0.005935120861977339
1773790588240948200,5.2709482421875,-0.0009422263829037547,-0.0035289546940475702,-0.005065065808594227
1773790588260911000,5.2909111328125,0.00028762139845639467,-0.002284992253407836,-0.006074670236557722
1773790588280874200,5.310874267578125,-0.0011531487107276917,-0.0043896883726119995,-0.006207295693457127
1773790588300837000,5.330837158203125,-0.0006974819116294384,-0.003774498123675585,-0.00683180708438158
1773790588320800000,5.350800048828125,-0.0013640711549669504,-0.0021912488155066967,-0.0052325790748000145
1773790588340763100,5.37076318359375,-0.0001954760227818042,-0.0034679684322327375,-0.004652276169508696
1773790588360726000,5.39072607421875,-0.0008788431296125054,-0.0020394488237798214,-0.006997189484536648
1773790588380689200,5.410689208984375,0.001820803270675242,-0.003922037314623594,-0.0041524008847773075
1773790588400652300,5.43065234375,0.00036432043998502195,-0.002837864449247718,-0.0059843892231583595
1773790588420615200,5.450615234375,-0.0010460896883159876,-0.0025979136116802692,-0.004927380476146936
1773790588440578300,5.470578369140625,0.0020450414158403873,-0.0028152274899184704,-0.006184925325214863
1773790588460541200,5.490541259765625,-0.0001555285998620093,-0.002507898723706603,-0.004848551005125046
1773790588480504000,5.510504150390625,-0.00026791400159709156,-0.001985120354220271,-0.006525010801851749
1773790588500467000,5.530467041015625,-0.0010186590952798724,-0.003501524217426777,-0.005554554983973503
1773790588520430000,5.55043017578125,-0.0024549018125981092,-0.003051982494071126,-0.0043718451634049416
1773790588540393200,5.570393310546875,-0.00029108350281603634,-0.0021406488958746195,-0.005062402691692114
1773790588560355000,5.59035498046875,-0.00008442220860160887,-0.00199337606318295,-0.008105597458779812
1773790588580318200,5.610318115234375,-0.00039414784987457097,-0.0029017801862210035,-0.0057162088342010975
1773790588600281300,5.63028125,-0.00012090751260984689,-0.003038134193047881,-0.0054914383217692375
1773790588620244000,5.650243896484375,0.0002796319022309035,-0.0013068130938336253,-0.00618039770051837
1773790588640207000,5.67020703125,-0.0007621967233717442,-0.0041212416253983974,-0.005651227664202452
1773790588660170000,5.690169921875,-0.0004087952256668359,-0.003792874049395323,-0.005781989078968763
1773790588680133000,5.710133056640625,0.0011326423846185207,-0.002385925967246294,-0.005939115304499865
1773790588700096300,5.73009619140625,-0.0007592672482132912,-0.003282079705968499,-0.006170277949422598
1773790588720059100,5.75005908203125,-0.0007326356135308743,-0.0041614556685090065,-0.0065287393517792225
1773790588740022500,5.7700224609375,0.0005331648280844092,-0.003500991500914097,-0.005423794034868479
1773790588759985400,5.7899853515625,-0.0003126551164314151,-0.002039981307461858,-0.005026184022426605
1773790588779948500,5.809948486328125,-0.00014567491598427296,-0.0009350358741357923,-0.004598746541887522
1773790588799911400,5.829911376953125,0.0006572681595571339,-0.003849599277600646,-0.0059897154569625854
1773790588819874300,5.849874267578125,-0.000185888638952747,-0.002835467690601945,-0.006158826407045126
1773790588839837400,5.86983740234375,0.00024527712957933545,-0.0027276095934212208,-0.006081594619899988
1773790588859800300,5.88980029296875,0.0003510046226438135,-0.003204315435141325,-0.006474144756793976
1773790588879763500,5.909763427734375,-0.0009265137487091124,-0.0032352081034332514,-0.005114068277180195
1773790588899726300,5.929726318359375,0.0005211806274019182,-0.002951048780232668,-0.005603556986898184
1773790588919689500,5.949689453125,-0.0012058793799951673,-0.0034258903469890356,-0.006442719139158726
1773790588939652400,5.96965234375,0.000547279603779316,-0.00282055395655334,-0.007218764163553715
1773790588959615500,5.989615478515625,0.0005797701887786388,-0.002629871480166912,-0.006175604183226824
1773790588979578400,6.009578369140625,-0.00009054747351910919,-0.0037001960445195436,-0.007691209204494953
1773790588999541200,6.029541259765625,0.00006764429417671636,-0.0035960664972662926,-0.005273059010505676
1773790589019504400,6.04950439453125,-0.0006346312584355474,-0.0025129588320851326,-0.00624138442799449
1773790589039467300,6.06946728515625,-0.0011289139511063695,-0.0023457121569663286,-0.004544684197753668
1773790589059430400,6.089430419921875,-0.0007829693495295942,-0.003052515210583806,-0.005688245873898268
1773790589079393300,6.109393310546875,-0.0008277104352600873,-0.002709500025957823,-0.005576126743108034
1773790589099356400,6.1293564453125,0.0001102548703784123,-0.0013712616637349129,-0.0066062374971807
1773790589119319600,6.149319580078125,-0.00045912896166555583,-0.0019923108629882336,-0.006169745232909918
1773790589139282400,6.169282470703125,-0.0019449065439403057,-0.0029443909879773855,-0.0050687943585217
1773790589159245600,6.18924560546875,-0.000996554852463305,-0.002354234457015991,-0.006359096150845289
1773790589179208200,6.209208251953125,-0.000963797967415303,-0.0026192190125584602,-0.00598572101444006
1773790589199171300,6.22917138671875,0.0006242449744604528,-0.001977929612621665,-0.006025401875376701
1773790589219134200,6.24913427734375,-0.00011904330312972888,-0.0031150993891060352,-0.0054142065346241
1773790589239097300,6.269097412109375,-0.0007912251749075949,-0.0033835461363196373,-0.006191316992044449
1773790589259060500,6.289060546875,-0.0001906823308672756,-0.003593403147533536,-0.005648564547300339
1773790589279023400,6.3090234375,-0.0007970841252245009,-0.0016908409306779504,-0.006452572997659445
1773790589298986500,6.328986572265625,-0.002020540414378047,-0.0028597023338079453,-0.005945506971329451
1773790589318949400,6.348949462890625,0.0002956108655780554,-0.0015504923649132252,-0.0054938350804150105
1773790589338912500,6.36891259765625,-0.00003328951424919069,-0.004095409065485001,-0.006293049547821283
1773790589358875400,6.38887548828125,-0.0007174555794335902,-0.0027177559677511454,-0.006327936891466379
1773790589378838300,6.40883837890625,0.00008096009696600959,-0.0022716764360666275,-0.006220079027116299
1773790589398801400,6.428801513671875,-0.002147306688129902,-0.0021046961192041636,-0.005711948033422232
1773790589418764300,6.448764404296875,0.00046099317842163146,-0.002472478663548827,-0.005252019967883825
1773790589438727400,6.4687275390625,-0.0009946906939148903,-0.0036935380194336176,-0.0065287393517792225
1773790589458690300,6.488690185546875,0.0009555422002449632,-0.0032764871139079332,-0.006706638727337122
1773790589478653400,6.5086533203125,-0.0006831008358858526,-0.002873817225918174,-0.007015565410256386
1773790589498616600,6.528616455078125,-0.00024314661277458072,-0.0014567491598427296,-0.0062637547962367535
1773790589518579500,6.548579345703125,0.0009515474666841328,-0.004405933897942305,-0.005810484755784273
1773790589538542600,6.56854248046875,-0.000222373942960985,-0.0025712819769978523,-0.005339105147868395
1773790589558505200,6.588505126953125,-0.000467118457891047,-0.0025326660834252834,-0.005007808096706867
1773790589578468400,6.60846826171875,0.00036964676110073924,-0.0015675366157665849,-0.005940180737525225
1773790589598431200,6.62843115234375,-0.00043835630640387535,-0.0032900692895054817,-0.005822735372930765
1773790589618394400,6.648394287109375,-0.00028069718973711133,-0.002379534300416708,-0.005526059307157993
1773790589638357500,6.668357421875,-0.00027031084755435586,-0.0031531827989965677,-0.006704774219542742
1773790589658320400,6.6883203125,-0.0004423510399647057,-0.00401498144492507,-0.005095958709716797
1773790589678283500,6.708283447265625,-0.0011560781858861446,-0.0032144354190677404,-0.006874950136989355
1773790589698246400,6.728246337890625,-0.0009664611425250769,-0.002825880190357566,-0.006780407857149839
1773790589718209500,6.74820947265625,-0.0011534150689840317,-0.0030663637444376945,-0.0049620019271969795
1773790589738172400,6.76817236328125,0.0002777676854748279,-0.0020985708106309175,-0.005529787857085466
1773790589758135300,6.78813525390625,-0.0005685848882421851,-0.0035270904190838337,-0.005727394018322229
1773790589778097200,6.80809716796875,-0.0010900318156927824,-0.003373692510649562,-0.005216333549469709
1773790589798060300,6.828060302734375,-0.0006913566030561924,-0.0025811356026679277,-0.005074120592325926
1773790589818023200,6.848023193359375,-0.0007129282457754016,-0.0033454629592597485,-0.005358812864869833
1773790589837986300,6.867986328125,-0.000041278995922766626,-0.002371811307966709,-0.005883721634745598
1773790589857949200,6.88794921875,-0.000107858024421148,-0.0027443873696029186,-0.006043245084583759
1773790589877912300,6.907912353515625,-0.0009571401169523597,-0.002211222657933831,-0.005286640953272581
1773790589897875200,6.927875244140625,-0.000734766130335629,-0.0015595471486449242,-0.0062850601971149445
1773790589917838300,6.94783837890625,-0.0005174521938897669,-0.003319896524772048,-0.005121791269630194
1773790589937801500,6.967801513671875,-0.0013435647124424577,-0.003724963404238224,-0.005845372099429369
1773790589957764000,6.98776416015625,-0.0006958839949220419,-0.0025782061275094748,-0.004799815360456705
1773790589977727200,7.007727294921875,0.00011691277177305892,-0.003859186777845025,-0.005600627511739731
1773790589997690000,7.027690185546875,-0.00027537086862139404,-0.002787264296784997,-0.006475742440670729
1773790590017653200,7.0476533203125,0.0013518205378204584,-0.002975283656269312,-0.004647482186555862
1773790590037616000,7.0676162109375,0.0003914846747647971,-0.003254915354773402,-0.005526325665414333
1773790590057579300,7.087579345703125,-0.0012301141396164894,-0.0029377329628914595,-0.004516721237450838
1773790590077542400,7.10754248046875,-0.0019491675775498152,-0.0026557042729109526,-0.006001433357596397
1773790590097505300,7.12750537109375,0.00022450447431765497,-0.0020927118603140116,-0.0055031562224030495
1773790590117468400,7.147468505859375,0.0012996225850656629,-0.0020596887916326523,-0.006700247060507536
1773790590137431300,7.167431396484375,-0.00010199906682828441,-0.0026075011119246483,-0.00555322365835309
1773790590157394200,7.187394287109375,-0.0002961435238830745,-0.0034463966730982065,-0.0047060721553862095
1773790590177357300,7.207357421875,-0.0005576659459620714,-0.003236273303627968,-0.0054216631688177586
1773790590197320200,7.2273203125,0.0002644518972374499,-0.0038863508962094784,-0.005398760084062815
1773790590217283300,7.247283447265625,-0.0010074737947434187,-0.0035513252951204777,-0.004834969062358141
1773790590237246200,7.26724609375,-0.0004966795677319169,-0.0038048583082854748,-0.006791327148675919
1773790590257209300,7.287209228515625,-0.0016144082183018327,-0.0034258903469890356,-0.005277586169540882
1773790590277172200,7.307172119140625,0.0014588796766474843,-0.0015843145083636045,-0.0048916940577328205
1773790590297135400,7.32713525390625,0.00014460964302998036,-0.002305498579517007,-0.005622465629130602
1773790590317098500,7.347098388671875,-0.00001704423084447626,-0.0019600866362452507,-0.006392385344952345
1773790590337061000,7.36706103515625,-0.0007408913807012141,-0.002969158347696066,-0.005101284943521023
1773790590357024300,7.387024169921875,-0.0011582087026908994,-0.003690076060593128,-0.005437375977635384
1773790590376987100,7.406987060546875,-0.0004527373821474612,-0.0035270904190838337,-0.005911152344197035
1773790590396950300,7.4269501953125,-0.000150202278746292,-0.0030565098859369755,-0.005567071959376335
1773790590416913200,7.4469130859375,-0.0012053466634824872,-0.0017134778900071979,-0.005615541245788336
1773790590436876300,7.466876220703125,-0.0005499427788890898,-0.0025710156187415123,-0.005935120861977339
1773790590456839400,7.48683935546875,-0.0007584682898595929,-0.0033598439767956734,-0.005377188324928284
1773790590476802300,7.50680224609375,-0.0003249056462664157,-0.002669286448508501,-0.006256298162043095
1773790590496765400,7.526765380859375,-0.0007036071619950235,-0.0033427998423576355,-0.0058094197884202
1773790590516728000,7.54672802734375,-0.0016764599131420255,-0.0018287927377969027,-0.006138852797448635
1773790590536691200,7.566691162109375,-0.000666589243337512,-0.0022056300658732653,-0.005892776418477297
1773790590556654300,7.586654296875,-0.0008466189028695226,-0.0033750240691006184,-0.005688245873898268
1773790590576617200,7.6066171875,0.001240766723640263,-0.0023257385473698378,-0.005638444796204567
1773790590596579300,7.626579345703125,-0.0011763182701542974,-0.003050118451938033,-0.0057012951001524925
1773790590616542500,7.64654248046875,-0.00056219327962026,-0.0031278827227652073,-0.0068238177336752415
1773790590636505300,7.66650537109375,0.0008261125767603517,-0.0022160164080560207,-0.006143113598227501
1773790590656468200,7.68646826171875,-0.0005731122801080346,-0.004038151353597641,-0.003447994589805603
1773790590676431000,7.70643115234375,-0.0007057376787997782,-0.002103364560753107,-0.006838465109467506
1773790590696394200,7.726394287109375,-0.0004386226355563849,-0.002861566608771682,-0.006839530076831579
1773790590716357000,7.746357177734375,-0.0004261057765688747,-0.0008391620358452201,-0.006185990758240223
1773790590736320300,7.7663203125,-0.00048629322554916143,-0.0026202842127531767,-0.006959904916584492
1773790590756283100,7.786283203125,0.0011574097443372011,-0.003192597534507513,-0.006364688742905855
1773790590776246000,7.80624609375,-0.0006711165769957006,-0.002270611235871911,-0.006372678093612194
1773790590796209200,7.826209228515625,0.000511593243572861,-0.0017768610268831253,-0.005118329077959061
1773790590816172000,7.846172119140625,0.00012676646292675287,-0.003603257006034255,-0.005322061013430357
1773790590836135200,7.86613525390625,-0.0018903117161244154,-0.0038543930277228355,-0.005988916382193565
1773790590856098000,7.88609814453125,-0.0007925567333586514,-0.0021819279063493013,-0.005172657780349255
1773790590876061200,7.906061279296875,0.0006681871018372476,-0.0031281490810215473,-0.006163886282593012
1773790590896024300,7.9260244140625,0.000050600061513250694,-0.0024799355305731297,-0.005526858381927013
1773790590915987200,7.9459873046875,0.000143544384627603,-0.0035332157276570797,-0.0059742690064013
1773790590935950000,7.9659501953125,0.00017656758427619934,-0.0022149509750306606,-0.005472263321280479
1773790590955913000,7.985912841796875,-0.0014466290595009923,-0.0030711572617292404,-0.005805957596749067
1773790590975876000,8.0058759765625,-0.0003312972257845104,-0.003041330026462674,-0.005757754202932119
1773790590995839200,8.025839111328125,-0.0005291700945235789,-0.0015901734586805105,-0.0054642739705741405
1773790591015802000,8.045802001953126,0.0004338289436418563,-0.0034501252230256796,-0.004986502695828676
1773790591035765200,8.06576513671875,0.00032916670897975564,-0.003397660795599222,-0.006477872841060162
1773790591055728000,8.08572802734375,0.000027963191314483993,-0.00250470289029181,-0.00455773388966918
1773790591075691300,8.105691162109375,-0.00021678130724467337,-0.0032772859558463097,-0.007003581151366234
1773790591095654100,8.125654052734374,-0.00007669904152862728,-0.004174238536506891,-0.006333795841783285
1773790591115617000,8.145616943359375,-0.0018034926615655422,-0.002823217073455453,-0.005822469014674425
1773790591135580200,8.165580078125,0.0008921589469537139,-0.0027659591287374496,-0.004346012603491545
1773790591155543000,8.18554296875,0.000818123109638691,-0.0046120621263980865,-0.005191300064325333
1773790591175506200,8.205506103515624,-0.00011398329661460593,-0.004207794554531574,-0.006445648614317179
1773790591195469000,8.225468994140625,-0.00010120012302650139,-0.002555303042754531,-0.004589691758155823
1773790591215432200,8.24543212890625,-0.00011132013605674729,-0.003314303932711482,-0.00649731419980526
1773790591235394300,8.265394287109375,-0.001202150946483016,-0.0041398839093744755,-0.006188920233398676
1773790591255357000,8.28535693359375,-0.0006711165769957006,-0.003451456781476736,-0.006284793838858604
1773790591275320000,8.305320068359375,0.0020453077740967274,-0.0013797837309539318,-0.0057103498838841915
1773790591295283200,8.325283203125,-0.001648230361752212,-0.0033726270776242018,-0.005959089379757643
1773790591315246000,8.34524609375,-0.001636246219277382,-0.0022447784431278706,-0.005976399872452021
1773790591335209200,8.365209228515624,-0.0008205199264921248,-0.0016828514635562897,-0.0046876962296664715
1773790591355172000,8.385172119140625,0.00034168356796726584,-0.0031462584156543016,-0.006055762059986591
1773790591375135200,8.40513525390625,-0.0009853695519268513,-0.0021675468888133764,-0.006505303550511599
1773790591395098000,8.42509814453125,-0.0027779433876276016,-0.004294081125408411,-0.005501025356352329
1773790591415061200,8.445061279296874,-0.0009110674145631492,-0.003756921272724867,-0.0057377805933356285
1773790591435024100,8.465024169921875,-0.0012245214311406016,-0.00264798104763031,-0.006301305256783962
1773790591454987000,8.484987060546874,-0.0010996191995218396,-0.0023390543647110462,-0.005136971361935139
1773790591474950100,8.5049501953125,-0.001213602488860488,-0.0031342741567641497,-0.006110889371484518
1773790591494913000,8.5249130859375,-0.0009203884401358664,-0.002380866091698408,-0.005766009911894798
1773790591514876200,8.544876220703125,-0.0010673949727788568,-0.00253532943315804,-0.00526799913495779
1773790591534839000,8.564839111328125,-0.0008689894457347691,-0.002944657113403082,-0.005576126743108034
1773790591554802200,8.58480224609375,0.0006199838826432824,-0.0007866977830417454,-0.0065079666674137115
1773790591574765300,8.604765380859375,-0.0005187837523408234,-0.0034645062405616045,-0.0054626758210361
1773790591594728200,8.624728271484376,-0.0019006980583071709,-0.003212837502360344,-0.005120193585753441
1773790591614691300,8.64469140625,-0.0005568669876083732,-0.0035145736765116453,-0.0051894355565309525
1773790591634654000,8.664654052734376,0.00028628981090150774,-0.0041585261933505535,-0.005648564547300339
1773790591654617000,8.6846171875,0.0008484831196255982,-0.0035156388767063618,-0.004728442523628473
1773790591674580200,8.704580322265626,0.0005906891310587525,-0.003011502558365464,-0.0049585397355258465
1773790591694543000,8.724543212890625,-0.0005286374944262207,-0.003375822911038995,-0.006672549992799759
1773790591714506200,8.74450634765625,0.0004849616379942745,-0.0028445222415030003,-0.004719654098153114
1773790591734469000,8.76446923828125,0.001139566651545465,-0.0032802154310047626,-0.0059694754891097546
1773790591754432800,8.784432861328124,0.000004261057711119065,-0.002413356676697731,-0.005662412848323584
1773790591774395600,8.804395751953125,-0.00025832661776803434,-0.0031292142812162638,-0.005113801918923855
1773790591794358800,8.82435888671875,0.0001549959706608206,-0.0036104475148022175,-0.005828061606734991
1773790591814321700,8.84432177734375,-0.000027963191314483993,-0.002201901515945792,-0.005889047868549824
1773790591834284500,8.864284423828124,0.0003049319493584335,-0.003215766977518797,-0.004649346694350243
1773790591854247700,8.88424755859375,0.0006612628931179643,-0.0012516856659203768,-0.005037102848291397
1773790591874210600,8.90421044921875,-0.0002735066518653184,-0.002682868391275406,-0.004674113821238279
1773790591894173700,8.924173583984375,-0.0011054781498387456,-0.0035329493694007397,-0.006725546903908253
1773790591914136600,8.944136474609374,-0.0011254518758505583,-0.0026317357551306486,-0.007044061087071896
1773790591934098700,8.9640986328125,-0.0015536881983280182,-0.002478870330378413,-0.005572930909693241
1773790591954061800,8.984061767578124,-0.0008562062866985798,-0.002641589380800724,-0.005391835700720549
1773790591974024400,9.0040244140625,-0.0012634035665541887,-0.002636529505252838,-0.006397179327905178
1773790591993987600,9.023987548828124,0.00032384038786403835,-0.0020967067684978247,-0.007749532349407673
1773790592013950500,9.043950439453125,0.0008037420338951051,-0.0034887411165982485,-0.005200620740652084
1773790592033913600,9.06391357421875,-0.0010135991033166647,-0.002960103563964367,-0.006716492120176554
1773790592053876700,9.083876708984375,0.00039867521263659,-0.0030306773260235786,-0.004935902543365955
1773790592073839600,9.103839599609374,-0.0012146678054705262,-0.0035025894176214933,-0.005687979515641928
1773790592093802800,9.123802734375,-0.00008735168376006186,-0.003958788700401783,-0.005321794655174017
1773790592113764600,9.1437646484375,0.000800279900431633,-0.0034850125666707754,-0.005511678289622068
1773790592133727500,9.1637275390625,-0.0003304982965346426,-0.0026873957831412554,-0.004486893769353628
1773790592153690600,9.183690673828124,-0.00022663500567432493,-0.0031092404387891293,-0.006712763570249081
1773790592173653500,9.203653564453125,0.0002836266648955643,-0.0036876790691167116,-0.005673864856362343
1773790592193616600,9.22361669921875,-0.0003115898580290377,-0.0026724820490926504,-0.006591323763132095
1773790592213579800,9.243579833984375,-0.0013313142117112875,-0.004315652418881655,-0.005950567312538624
1773790592233542700,9.263542724609374,-0.00007616640505148098,-0.0030386666767299175,-0.005275189410895109
1773790592253505800,9.283505859375,-0.000642354425508529,-0.00310524576343596,-0.004759867675602436
1773790592273468700,9.30346875,-0.0009723200928419828,-0.001853826455771923,-0.006082926411181688
1773790592293431800,9.323431884765625,-0.0011249192757532,-0.0016295883106067777,-0.005568936001509428
1773790592313394400,9.34339453125,-0.0013590110465884209,-0.002787264296784997,-0.003677825443446636
1773790592333357600,9.363357666015625,0.0008420915110036731,-0.00355798308737576,-0.005456816870719194
1773790592353320700,9.38332080078125,0.0003909520455636084,-0.0030517163686454296,-0.006308495998382568
1773790592373283600,9.40328369140625,-0.001121989800594747,-0.0026581010315567255,-0.0041374871507287025
1773790592393246700,9.423246826171875,-0.0009805759182199836,-0.0032205607276409864,-0.005683718249201775
1773790592413208800,9.443208740234375,-0.00077631144085899,-0.0027603665366768837,-0.007309045642614365
1773790592433171700,9.463171630859375,-0.0005145227187313139,-0.003817375050857663,-0.00595482811331749
1773790592453134600,9.483134521484375,-0.0012929646763950586,-0.003225354477763176,-0.0054419031366705894
1773790592473097500,9.503097412109375,-0.000642620783764869,-0.0026879284996539354,-0.0046243127435445786
1773790592493060600,9.523060546875,-0.000597879639826715,-0.0033127060160040855,-0.005135640036314726
1773790592513023500,9.5430234375,-0.00025992453447543085,-0.003748132847249508,-0.00532685499638319
1773790592532986600,9.562986572265626,0.0000428768944402691,-0.002380067016929388,-0.006677077617496252
1773790592552949800,9.58294970703125,0.0005014732014387846,-0.003008306724950671,-0.005903695244342089
1773790592572912600,9.60291259765625,-0.002046639332547784,-0.001702026231214404,-0.006616889964789152
1773790592592875800,9.622875732421875,0.0007555388147011399,-0.0020682108588516712,-0.006184925325214863
1773790592612838700,9.642838623046876,0.000358461489668116,-0.002161954063922167,-0.005727660376578569
1773790592632801500,9.662801513671875,-0.0004426173691172153,-0.0026937874499708414,-0.006400641519576311
1773790592652764700,9.6827646484375,-0.0013281183782964945,-0.003157177474349737,-0.00520674604922533
1773790592672727600,9.7027275390625,0.000669518718495965,-0.0020037624053657055,-0.006691991351544857
1773790592692690700,9.722690673828126,-0.0012325108982622623,-0.0041404166258871555,-0.006594253238290548
1773790592712653600,9.742653564453125,-0.0009041432058438659,-0.003221093211323023,-0.005418733693659306
1773790592732616700,9.76261669921875,0.00020932445477228612,-0.0033747577108442783,-0.00603339122608304
1773790592752579300,9.782579345703125,-0.0008069378091022372,-0.0026264095213264227,-0.006503705866634846
1773790592772542200,9.802542236328126,0.0003070624661631882,-0.0020423782989382744,-0.004727643448859453
1773790592792505300,9.82250537109375,0.0007536745979450643,-0.002353435382246971,-0.0057351174764335155
1773790592812467500,9.842467529296876,-0.0017409083666279912,-0.0017534252256155014,-0.005875465925782919
1773790592832430300,9.862430419921875,-0.0007661914569325745,-0.003191798459738493,-0.005366535857319832
1773790592852393200,9.882393310546876,-0.0016053534345701337,-0.0037734329234808683,-0.0049398974515497684
1773790592872356000,9.902356201171875,-0.0015433018561452627,-0.0037494644057005644,-0.0044408212415874004
1773790592892319200,9.9223193359375,-0.0009315737406723201,-0.003224555402994156,-0.004619519226253033
1773790592912282000,9.9422822265625,0.0008876316132955253,-0.003698065411299467,-0.00506799528375268
1773790592932245200,9.962245361328126,0.00007483482477255166,-0.002858903491869569,-0.0065106297843158245
1773790592952208400,9.98220849609375,-0.0016421051695942879,-0.0032565132714807987,-0.0065590995363891125
1773790592972171300,10.002171142578124,-0.0014895059866830707,-0.0024533038958907127,-0.006432599388062954
1773790592992134400,10.022134521484375,-0.0007281082216650248,-0.0028013791888952255,-0.006243781186640263
1773790593012097300,10.04209716796875,-0.0004889564006589353,-0.003019758267328143,-0.006591856479644775
1773790593032060400,10.062060302734375,-0.0008937568636611104,-0.0031398669816553593,-0.004914597608149052
1773790593052023300,10.082023193359374,0.00011158645065734163,-0.0028690234757959843,-0.004996889270842075
1773790593071986200,10.101986083984375,-0.0005214469274505973,-0.002746251644566655,-0.0070520504377782345
1773790593091949300,10.12194921875,-0.0015552861150354147,-0.003929493948817253,-0.0059963734820485115
1773790593111912200,10.141912109375,0.0001680454588495195,-0.003739344421774149,-0.005663211923092604
1773790593131875300,10.161875244140624,-0.0005691175465472043,-0.001755289500579238,-0.004976915195584297
1773790593151838200,10.181838134765625,0.0005997438565827906,-0.0021427792962640524,-0.006156961899250746
1773790593171801300,10.20180126953125,-0.0009374326909892261,-0.003373426152393222,-0.00752103328704834
1773790593191764500,10.221764404296875,0.0007483482477255166,-0.0035145736765116453,-0.00561181316152215
1773790593211726000,10.24172607421875,0.0008045409340411425,-0.003923102747648954,-0.0043473439291119576
1773790593231689200,10.261689208984375,-0.0014628743520006537,-0.0029084382113069296,-0.006470948923379183
1773790593251652400,10.28165234375,-0.00041305628838017583,-0.0037798245903104544,-0.0046722497791051865
1773790593271615200,10.301615234375,-0.001577123999595642,-0.0029060414526611567,-0.006922620814293623
1773790593291578400,10.321578369140624,-0.0006135923322290182,-0.002171807922422886,-0.0052176653407514095
1773790593311541200,10.341541259765625,-0.00033103092573583126,-0.0026314693968743086,-0.005618204362690449
1773790593331504400,10.36150439453125,0.001455151243135333,-0.0037119139451533556,-0.006226204335689545
1773790593351467300,10.38146728515625,0.0011622034944593906,-0.003963582683354616,-0.0041404166258871555
1773790593371430100,10.40143017578125,-0.0009345032158307731,-0.0018676748732104897,-0.0057068876922130585
1773790593391393300,10.421393310546875,-0.0006213154993019998,-0.0022945795208215714,-0.0067878649570047855
1773790593411356200,10.441356201171875,-0.00096086849225685,-0.0028575719334185123,-0.003917243797332048
1773790593431319300,10.4613193359375,-0.0010996191995218396,-0.0029379993211477995,-0.006904511246830225
1773790593451282200,10.4812822265625,0.0010301107540726662,-0.003665308468043804,-0.007017962168902159
1773790593471245300,10.501245361328126,-0.00019627496658358723,-0.002560895634815097,-0.005660016089677811
1773790593491208200,10.521208251953125,-0.0006287723081186414,-0.0019955066964030266,-0.006199572701007128
1773790593511171300,10.54117138671875,-0.00044314999831840396,-0.0020777983590960503,-0.006445115897804499
1773790593531134500,10.561134521484375,0.0011137339752167463,-0.004218180663883686,-0.004357464145869017
1773790593551097000,10.58109716796875,0.0010540791554376483,-0.003052515210583806,-0.0065436530858278275
1773790593571059200,10.60105908203125,-0.0007600661483593285,-0.002822950715199113,-0.005514607764780521
1773790593591022300,10.621022216796876,-0.000853809411637485,-0.0024596955627202988,-0.005626460537314415
1773790593610985200,10.640985107421875,-0.0002210423699580133,-0.002382996492087841,-0.005075985100120306
1773790593630948400,10.6609482421875,-0.0010974886827170849,-0.003058374160900712,-0.006314887665212154
1773790593650911200,10.6809111328125,-0.00007856325100874528,-0.002986735198646784,-0.006460828706622124
1773790593670874400,10.700874267578126,0.00000852211542223813,-0.0016045545926317573,-0.0043955473229289055
1773790593690837500,10.72083740234375,-0.0012191950809210539,-0.003564641112461686,-0.00609251344576478
1773790593710800100,10.740800048828126,-0.0007046724203974009,-0.0023917849175632,-0.0049071405082941055
1773790593730763300,10.76076318359375,0.0003249056462664157,-0.0028581044171005487,-0.005480519030243158
1773790593750726100,10.78072607421875,0.00015472965606022626,-0.0029739518649876118,-0.004857605788856745
1773790593770689300,10.800689208984375,0.00024048343766480684,-0.0026818031910806894,-0.005230714567005634
1773790593790652200,10.820652099609376,0.0006756439688615501,-0.0034434671979397535,-0.004939631093293428
1773790593810615300,10.840615234375,-0.0015763250412419438,-0.0024804682470858097,-0.00723500968888402
1773790593830578400,10.860578369140624,-0.002156361471861601,-0.002812031889334321,-0.005337241105735302
1773790593850541300,10.880541259765625,0.0003904194163624197,-0.0027209515683352947,-0.005527656991034746
1773790593870504400,10.90050439453125,-0.0011030812747776508,-0.0025957829784601927,-0.005286374595016241
1773790593890467000,10.920467041015625,-0.000031158982892520726,-0.003186472225934267,-0.004807538352906704
1773790593910430200,10.94043017578125,0.0004801679460797459,-0.002281530061736703,-0.005702626891434193
1773790593930392300,10.960392333984375,-0.000865793670527637,-0.0030072415247559547,-0.007327155210077763
1773790593950355200,10.980355224609376,0.00009906959166983142,-0.002313754288479686,-0.005393700208514929
1773790593970318300,11.000318359375,-0.0008173241512849927,-0.0023425165563821793,-0.007098922040313482
1773790593990281200,11.02028125,-0.001344630029052496,-0.002880208659917116,-0.005528988782316446
1773790594010244400,11.040244384765625,-0.00034967303508892655,-0.003320695599541068,-0.004849350079894066
1773790594030207200,11.060207275390624,-0.00019361180602572858,-0.0036248285323381424,-0.006731672212481499
1773790594050170000,11.080170166015625,-0.0009318400407209992,-0.0017097494564950466,-0.0052112736739218235
1773790594070133200,11.10013330078125,-0.0010029464028775692,-0.0036567864008247852,-0.0064373929053545
1773790594090096000,11.12009619140625,-0.0014972290955483913,-0.0032000544015318155,-0.004110589157789946
1773790594110059300,11.140059326171874,-0.0006660565850324929,-0.003953462466597557,-0.006481068674474955
1773790594130022400,11.1600224609375,0.0012037487467750907,-0.003257312346249819,-0.0057345847599208355
1773790594149985300,11.1799853515625,-0.0006777744856663048,-0.0031907332595437765,-0.004470914602279663
1773790594169948400,11.199948486328125,-0.0006482133758254349,-0.003276220755651593,-0.00660463934764266
1773790594189911300,11.219911376953124,-0.0008135957177728415,-0.002189651131629944,-0.005875465925782919
1773790594209874200,11.239874267578125,-0.0008122641011141241,-0.0020058928057551384,-0.00529569573700428
1773790594229837000,11.259837158203124,-0.00041092574247159064,-0.0030133668333292007,-0.006352970842272043
1773790594249800200,11.27980029296875,0.000002663161012605997,-0.0018157431622967124,-0.005911685060709715
1773790594269762300,11.29976220703125,-0.00019734023953787982,-0.0032674323301762342,-0.004626443609595299
1773790594289725200,11.31972509765625,0.00032384038786403835,-0.003792874049395323,-0.005636313930153847
1773790594309688300,11.339688232421874,-0.0004316983977332711,-0.003282346064224839,-0.006370014976710081
1773790594329651500,11.3596513671875,0.0006402239087037742,-0.0028506475500762463,-0.006049636751413345
1773790594349614300,11.3796142578125,-0.00015765913121867925,-0.0032061797101050615,-0.004899417515844107
1773790594369577200,11.3995771484375,-0.0005305017111822963,-0.002704173792153597,-0.007114102132618427
1773790594389540000,11.4195400390625,-0.0007038734620437026,-0.003625893732532859,-0.00618039770051837
1773790594409503200,11.439503173828125,-0.00005246427463134751,-0.0044165863655507565,-0.00574896577745676
1773790594429466400,11.45946630859375,-0.00015046859334688634,-0.003891677362844348,-0.005820604972541332
1773790594449429200,11.47942919921875,0.0007054713787510991,-0.002162753138691187,-0.0051934304647147655
1773790594469392400,11.499392333984375,-0.002281530061736703,-0.003019491909071803,-0.005331648513674736
1773790594489355300,11.519355224609376,0.00008548746700398624,-0.002832271857187152,-0.0070698936469852924
1773790594509318400,11.539318359375,-0.00019121496006846428,-0.003224821761250496,-0.004987035412341356
1773790594529281300,11.55928125,-0.00007643271965207532,-0.0031281490810215473,-0.0065284729935228825
1773790594549244200,11.579244140625,0.0001395496365148574,-0.003177417442202568,-0.006087719928473234
1773790594569207300,11.599207275390626,-0.0010037453612312675,-0.0032586439047008753,-0.006514624692499638
1773790594589170200,11.619170166015625,-0.0013622068800032139,-0.0031137678306549788,-0.00649651512503624
1773790594609132300,11.63913232421875,-0.0005078648100607097,-0.0034935346338897943,-0.006911701988428831
1773790594629095400,11.659095458984375,0.0001371527905575931,-0.0024948492646217346,-0.00640889722853899
1773790594649058300,11.679058349609376,-0.001743305241689086,-0.0021965752821415663,-0.005707953125238419
1773790594669021400,11.699021484375,-0.0006591323763132095,-0.0024405207950621843,-0.00538544449955225
1773790594688984000,11.718984130859376,-0.0003802994033321738,-0.0038088529836386442,-0.006743656471371651
1773790594708947200,11.738947265625,-0.0009422263829037547,-0.002799248555675149,-0.005426723510026932
1773790594728910000,11.75891015625,-0.0012974920682609081,-0.003448527306318283,-0.006169478874653578
1773790594748874000,11.7788740234375,-0.0005787048721686006,-0.003923369105905294,-0.005922603886574507
1773790594768836900,11.7988369140625,-0.000597879639826715,-0.0035385421942919493,-0.005979329347610474
1773790594788800000,11.818800048828125,-0.0010668623726814985,-0.0037531929556280375,-0.005615807604044676
1773790594808763100,11.83876318359375,-0.0010298443958163261,-0.0023361248895525932,-0.006907973438501358
1773790594828726000,11.85872607421875,0.0010290454374626279,-0.0033366745337843895,-0.003920971881598234
1773790594848689200,11.878689208984374,-0.0008285093936137855,-0.002519882982596755,-0.006472280248999596
1773790594868652000,11.898652099609375,-0.0006375607335940003,-0.0028735508676618338,-0.005274123977869749
1773790594888615200,11.918615234375,0.0013741911388933659,-0.0011731224367395043,-0.005081844050437212
1773790594908577800,11.938577880859375,-0.0011795139871537685,-0.0033124396577477455,-0.006188920233398676
1773790594928541000,11.958541015625,-0.0015965650090947747,-0.004254932515323162,-0.0054664043709635735
1773790594948503000,11.9785029296875,0.0008647284121252596,-0.005278917960822582,-0.006171342916786671
1773790594968466000,11.9984658203125,0.0003379551344551146,-0.0032732912804931402,-0.004592621233314276
1773790594988429000,12.018428955078125,0.00031904669594950974,-0.003704989794641733,-0.006207828409969807
1773790595008392200,12.03839208984375,0.000621848099399358,-0.003082076320424676,-0.006424875929951668
1773790595028355000,12.05835498046875,-0.0009211873984895647,-0.0023180153220891953,-0.005261341109871864
1773790595048318000,12.07831787109375,-0.00043542683124542236,-0.002968891989439726,-0.005221926141530275
1773790595068280800,12.09828076171875,-0.0010966897243633866,-0.0038181741256266832,-0.0047260457649827
1773790595088244000,12.118243896484374,-0.0012088088551536202,-0.0018761969404295087,-0.005409146659076214
1773790595108207000,12.13820703125,-0.0008820389630272985,-0.002775546396151185,-0.005897836294025183
1773790595128170000,12.158169921875,0.00015100123709999025,-0.004511927254498005,-0.004488757811486721
1773790595148133000,12.178133056640625,-0.0002735066518653184,-0.003373159794136882,-0.005224322900176048
1773790595168096000,12.198095947265625,-0.0011747203534469008,-0.0028967203106731176,-0.005446164403110743
1773790595188059100,12.21805908203125,-0.0002511360798962414,-0.0038040592335164547,-0.00555135915055871
1773790595208022000,12.23802197265625,0.0014016216155141592,-0.004001932218670845,-0.0062879896722733974
1773790595227985000,12.25798486328125,-0.0005691175465472043,-0.0031878037843853235,-0.006616357248276472
1773790595247947000,12.277947021484374,-0.0010700580896809697,-0.0030032468494027853,-0.007191600278019905
1773790595267910000,12.297909912109375,-0.0006740460521541536,-0.0031047132797539234,-0.006877879612147808
1773790595287873000,12.317873046875,-0.0018165421206504107,-0.00398621940985322,-0.0062762717716395855
1773790595307836200,12.337836181640625,0.00017550231132190675,-0.0035694348625838757,-0.006490656174719334
1773790595327799000,12.357799072265625,0.00003834952076431364,-0.0025182850658893585,-0.007199855986982584
1773790595347762200,12.37776220703125,-0.001748897833749652,-0.002590723102912307,-0.005212338641285896
1773790595367725000,12.39772509765625,0.0005067995516583323,-0.0027153589762747288,-0.0073535204865038395
1773790595387688000,12.41768798828125,0.0003278351214248687,-0.002641589380800724,-0.006129798013716936
1773790595407651000,12.437651123046875,-0.0004021373169962317,-0.0038717035204172134,-0.005744970869272947
1773790595427614000,12.457614013671876,0.000028229507734067738,-0.0044046021066606045,-0.004700479097664356
1773790595447577000,12.4775771484375,-0.001433845958672464,-0.00270657055079937,-0.006428870838135481
1773790595467540000,12.4975400390625,0.0006585997180081904,-0.0025662221014499664,-0.0057071540504693985
1773790595487503000,12.517503173828125,0.002522812457755208,-0.00304638990201056,-0.006644054315984249
1773790595507466000,12.537466064453126,-0.0021550299134105444,-0.003450924064964056,-0.005386243108659983
1773790595527429000,12.55742919921875,-0.0011121360585093498,-0.00213585514575243,-0.004670652095228434
1773790595547392300,12.577392333984376,-0.0016309198690578341,-0.003599528456106782,-0.005087969359010458
1773790595567353900,12.597353759765625,0.0004362257895991206,-0.0025928535033017397,-0.005465605296194553
1773790595587317000,12.61731689453125,0.0008250473183579743,-0.0031308121979236603,-0.005571599118411541
1773790595607280000,12.637280029296875,-0.00016671388584654778,-0.0033806166611611843,-0.00700730923563242
1773790595627243000,12.657242919921876,-0.0005012069013901055,-0.004102333448827267,-0.006601976230740547
1773790595647206100,12.6772060546875,-0.0011909656459465623,-0.003624029690399766,-0.005281048361212015
1773790595667169000,12.6971689453125,-0.0004988100845366716,-0.0028823392931371927,-0.005107143893837929
1773790595687132200,12.717132080078125,0.0009092031978070736,-0.003224555402994156,-0.0049255164340138435
1773790595707094800,12.7370947265625,-0.0004791026876773685,-0.0021789984311908484,-0.006388390902429819
1773790595730802200,12.76080224609375,-0.000041545314161339775,-0.0020596887916326523,-0.004578506574034691
1773790595750768600,12.7807685546875,0.00020426444825716317,-0.002980609890073538,-0.006021406967192888
1773790595770731800,12.800731689453125,-0.00130920996889472,-0.0025928535033017397,-0.0063007730059325695
1773790595790694700,12.820694580078126,0.0006609965930692852,-0.002907639369368553,-0.005964415613561869
1773790595810657800,12.84065771484375,-0.000291616132017225,-0.0023760723415762186,-0.006247509736567736
1773790595830620700,12.86062060546875,-0.0014381069922819734,-0.0015872439835220575,-0.00552312983199954
1773790595850582800,12.880582763671875,-0.0014479606179520488,-0.0029350698459893465,-0.006524212192744017
1773790595870546000,12.9005458984375,-0.0011222560424357653,-0.0032794165890663862,-0.005407814867794514
1773790595890508500,12.920508544921875,-0.0003557983145583421,-0.002898051869124174,-0.006170810665935278
1773790595910471700,12.9404716796875,0.0006143912323750556,-0.0021142836194485426,-0.006214752793312073
1773790595930434800,12.960434814453125,-0.0015896408585831523,-0.0033518546260893345,-0.006656837183982134
1773790595950397700,12.980397705078126,-0.0010301107540726662,-0.0034163030795753,-0.004771052859723568
1773790595970360800,13.00036083984375,-0.000627973407972604,-0.0030929953791201115,-0.006798783782869577
1773790595990323700,13.02032373046875,-0.00019414443522691727,-0.0031348068732768297,-0.005637645721435547
1773790596010286800,13.040286865234375,0.0007590008899569511,-0.0021494373213499784,-0.005927930120378733
1773790596030249700,13.060249755859376,-0.00029081720276735723,-0.0018916432745754719,-0.005034706089645624
1773790596050212900,13.080212890625,-0.002115082461386919,-0.0020061591640114784,-0.005528722424060106
1773790596070176000,13.100176025390626,-0.00042796999332495034,-0.00347409350797534,-0.006001433357596397
1773790596090138600,13.120138671875,-0.00011211907985853031,-0.002614957746118307,-0.005646700505167246
1773790596110100700,13.140100830078126,0.00024980452144518495,-0.002972087822854519,-0.005994243081659079
1773790596130064000,13.16006396484375,-0.0002817624481394887,-0.0013622068800032139,-0.0054512242786586285
1773790596150026800,13.18002685546875,0.0006841660942882299,-0.00413509039208293,-0.006307164207100868
1773790596169990000,13.199989990234375,-0.00018642126815393567,-0.0020599551498889923,-0.006600644905120134
1773790596189952800,13.219952880859376,0.0009374326909892261,-0.004539357963949442,-0.005305016878992319
1773790596209916000,13.239916015625,0.00041784998029470444,-0.003358246060088277,-0.006041381042450666
1773790596229878800,13.259878662109376,-0.0018383801216259599,-0.0030216225422918797,-0.0070547135546803474
1773790596249841700,13.279841552734375,-0.00048709215479902923,-0.0031465247739106417,-0.005504753906279802
1773790596269804800,13.2998046875,-0.0014303837670013309,-0.0024719461798667908,-0.004832305945456028
1773790596289767700,13.319767578125,-0.0012282498646527529,-0.00279099284671247,-0.0062818643637001514
1773790596309730800,13.339730712890624,0.0001395496365148574,-0.0017933726776391268,-0.005431783385574818
1773790596329693000,13.35969287109375,-0.0014732606941834092,-0.002921221312135458,-0.006406234111636877
1773790596349655800,13.37965576171875,-0.0000015978966985130683,-0.0026381274219602346,-0.006007825024425983
1773790596369618700,13.39961865234375,-0.0005909554311074317,-0.0030860709957778454,-0.005404352676123381
1773790596389581600,13.41958154296875,-0.0006687197601422668,-0.002867691917344928,-0.00782489962875843
1773790596409544700,13.439544677734375,0.000990429543890059,-0.002909769769757986,-0.0070368703454732895
1773790596429507800,13.4595078125,-0.0002388855500612408,-0.0029768813401460648,-0.00577959232032299
1773790596449470700,13.479470703125,-0.0021398498211055994,-0.0029553098138421774,-0.005271460860967636
1773790596469433900,13.499433837890624,-0.0000780306218075566,-0.002435460686683655,-0.005405151750892401
1773790596489396700,13.519396728515625,0.0010751180816441774,-0.002234392100945115,-0.004968659486621618
1773790596509359900,13.53935986328125,0.0007241134881041944,-0.002871420234441757,-0.005342034623026848
1773790596529322800,13.55932275390625,-0.0010090717114508152,-0.0033787523861974478,-0.006325540132820606
1773790596549285600,13.57928564453125,-0.0010040117194876075,-0.00233266269788146,-0.00629012007266283
1773790596569248800,13.599248779296875,-0.0008146609761752188,-0.0037001960445195436,-0.007292267866432667
1773790596589211600,13.619211669921874,0.000179230744834058,-0.004042145796120167,-0.0062520368956029415
1773790596609173800,13.639173828125,-0.0005036037764512002,-0.003282079705968499,-0.0054698665626347065
1773790596629137000,13.659136962890624,-0.0003837615076918155,-0.0032320122700184584,-0.005803028121590614
1773790596649099800,13.679099853515625,-0.0004652542411349714,-0.003655987558886409,-0.004683434963226318
1773790596669063000,13.69906298828125,-0.0002926813904196024,-0.0037851508241146803,-0.005262140184640884
1773790596689025800,13.71902587890625,0.0005089300684630871,-0.0034615767654031515,-0.004309260752052069
1773790596708988700,13.73898876953125,0.001264468883164227,-0.003704457078129053,-0.005688778590410948
1773790596728951800,13.758951904296875,0.0013283847365528345,-0.0033252229914069176,-0.005516738165169954
1773790596748913400,13.778913330078124,-0.000330231967382133,-0.0034349451307207346,-0.00612234091386199
1773790596768876300,13.798876220703125,-0.00017869810108095407,-0.002287655370309949,-0.006585198454558849
1773790596788839400,13.81883935546875,-0.0013044163351878524,-0.002502572489902377,-0.0041763694025576115
1773790596808802300,13.83880224609375,0.0005850964807905257,-0.003090864745900035,-0.0057564228773117065
1773790596828765200,13.85876513671875,0.0008327704854309559,-0.0027300063520669937,-0.0060262009501457214
1773790596848728000,13.87872802734375,-0.0006215817993506789,-0.0025270734913647175,-0.004277835600078106
1773790596868690200,13.898690185546876,-0.0011504855938255787,-0.0032293491531163454,-0.005690376274287701
1773790596888653300,13.9186533203125,-0.0006053365068510175,-0.002751844236627221,-0.0065223476849496365
1773790596908616200,13.9386162109375,-0.0012085424968972802,-0.0019150790758430958,-0.0062608253210783005
1773790596928579300,13.958579345703125,0.0016335829859599471,-0.0028706213925033808,-0.005258677992969751
1773790596948542500,13.97854248046875,-0.000483363721286878,-0.0020503676496446133,-0.0075668394565582275
1773790596968505300,13.99850537109375,-0.000437291048001498,-0.002400839701294899,-0.006584665738046169
1773790596988468200,14.01846826171875,0.0004316983977332711,-0.0020876519847661257,-0.004307929426431656
1773790597008431000,14.03843115234375,-0.0011238539591431618,-0.0014895059866830707,-0.00743261631578207
1773790597028394200,14.058394287109374,-0.0007102650706656277,-0.00284958234988153,-0.005733252968639135
1773790597048357400,14.078357421875,-0.0006761765689589083,-0.0029531794134527445,-0.006370547693222761
1773790597068320300,14.0983203125,-0.00047590688336640596,-0.00352868833579123,-0.004786765668541193
1773790597088283400,14.118283447265625,-0.0003307645965833217,-0.003311108099296689,-0.0060059609822928905
1773790597108246300,14.138246337890624,-0.00006338323146337643,-0.002784601179882884,-0.005693305749446154
1773790597128209400,14.15820947265625,-0.000666589243337512,-0.0029462550301104784,-0.004424309358000755
1773790597148171300,14.178171142578124,-0.00025832661776803434,-0.0038011297583580017,-0.0048861014656722546
1773790597168134100,14.198134033203125,-0.0003920173039659858,-0.0028160265646874905,-0.005622465629130602
1773790597188097300,14.21809716796875,-0.0013174657942727208,-0.003043993143364787,-0.005671733990311623
1773790597208060200,14.23806005859375,-0.0008285093936137855,-0.002055427758023143,-0.0051652006804943085
1773790597228023300,14.258023193359374,-0.000910268456209451,-0.0025827335193753242,-0.005146292503923178
1773790597247986400,14.277986328125,-0.00035926041891798377,-0.003811516100540757,-0.00589570589363575
1773790597267949300,14.29794921875,0.001651426195167005,-0.003082342678681016,-0.006971889175474644
1773790597287912400,14.317912353515625,0.0011323761427775025,-0.0032381375785917044,-0.00592659879475832
1773790597307875000,14.337875,0.0005246427026577294,-0.003181145992130041,-0.005006742663681507
1773790597327838200,14.357838134765625,-0.00007270430069183931,-0.0036013927310705185,-0.005403553601354361
1773790597347801000,14.377801025390625,-0.00010120012302650139,-0.002484729280695319,-0.0044195158407092094
1773790597367764200,14.39776416015625,0.0008468852029182017,-0.0034115093294531107,-0.005322593729943037
1773790597387726300,14.417726318359374,-0.0017566210590302944,-0.002115082461386919,-0.005023254547268152
1773790597407689200,14.437689208984375,-0.0002849582233466208,-0.003090598387643695,-0.004579039290547371
1773790597427652400,14.45765234375,-0.000675111310556531,-0.0024802018888294697,-0.005906092468649149
1773790597447615500,14.477615478515625,0.00011291803093627095,-0.0028242822736501694,-0.005957757588475943
1773790597467578000,14.497578125,0.001192829804494977,-0.004676776938140392,-0.00503976596519351
1773790597487541200,14.517541259765625,-0.0002724413643591106,-0.0035332157276570797,-0.0044133905321359634
1773790597507504000,14.537504150390625,-0.0008764463127590716,-0.0035774242132902145,-0.0054456316865980625
1773790597527467300,14.55746728515625,-0.001303351018577814,-0.0023696806747466326,-0.006506102625280619
1773790597547430400,14.577430419921875,-0.00014540860138367862,-0.0033957967534661293,-0.006387591827660799
1773790597567393300,14.597393310546876,-0.0004647216119337827,-0.003183276392519474,-0.005197425372898579
1773790597587356400,14.6173564453125,-0.0007536745979450643,-0.0026162895374000072,-0.005222192499786615
1773790597607319300,14.6373193359375,0.0007701861904934049,-0.002918025478720665,-0.007266434840857983
1773790597627282400,14.657282470703125,-0.00005512743518920615,-0.003032541600987315,-0.005042695440351963
1773790597647244300,14.677244384765626,-0.0017486315919086337,-0.0020013656467199326,-0.006112487055361271
1773790597667207200,14.697207275390625,-0.001401355373673141,-0.0021371867042034864,-0.004777178168296814
1773790597687170300,14.71717041015625,-0.0011195929255336523,-0.002338521648198366,-0.004253600724041462
1773790597707133200,14.73713330078125,-0.0001877528557088226,-0.0024173513520509005,-0.005514874123036861
1773790597727096300,14.757096435546876,-0.0015363775892183185,-0.0036099147982895374,-0.005887183826416731
1773790597747056000,14.77705615234375,-0.00012650014832615852,-0.002880475018173456,-0.005622199270874262
1773790597767019300,14.797019287109375,-0.001186970854178071,-0.003352387109771371,-0.006695719435811043
1773790597786982400,14.816982421875,-0.0004194478678982705,-0.004062385763972998,-0.005884254351258278
1773790597806945300,14.8369453125,-0.00036964676110073924,-0.0032597091048955917,-0.005315136630088091
1773790597826908400,14.856908447265624,-0.0011062771081924438,-0.0017132115317508578,-0.006086121778935194
1773790597846871300,14.876871337890625,-0.0015480954898521304,-0.0030146983917802572,-0.005260275676846504
1773790597866834200,14.896834228515624,-0.0009661948424763978,-0.0036400086246430874,-0.005636846646666527
1773790597886796300,14.91679638671875,0.0008018778171390295,-0.0018224010709673166,-0.005616340320557356
1773790597906759200,14.93675927734375,0.000004793690095539205,-0.0024282701779156923,-0.0037702370900660753
1773790597926722300,14.956722412109375,-0.001312139444053173,-0.0035752938129007816,-0.0051801144145429134
1773790597946685400,14.976685546875,-0.001511343871243298,-0.0035806200467050076,-0.005003280472010374
1773790597966648300,14.9966484375,-0.0008665926288813353,-0.0031577101908624172,-0.006951649207621813
1773790597986611500,15.016611572265624,-0.0007749798824079335,-0.003293264890089631,-0.0049135321751236916
1773790598006574000,15.036573974609375,-0.0005632585380226374,-0.0027630296535789967,-0.005382781382650137
1773790598026537200,15.056537109375,-0.00043010051012970507,-0.0014386395923793316,-0.005640575196594
1773790598046500000,15.0765,0.000794420950114727,-0.0030368026345968246,-0.005061604082584381
1773790598066463200,15.096463134765624,0.00038695731200277805,-0.0029824741650372744,-0.005148422904312611
1773790598086426400,15.11642626953125,0.0000476705827168189,-0.003141997382044792,-0.005852829199284315
1773790598106389200,15.13638916015625,-0.0009568737586960196,-0.0005992112564854324,-0.004820321686565876
1773790598126351400,15.156351318359375,-0.0012199940392747521,-0.0026932547334581614,-0.0068120998330414295
1773790598146314500,15.176314453125,-0.0015704660909250379,-0.002977680414915085,-0.006103166379034519
1773790598166277000,15.196277099609375,0.00017949705943465233,-0.003677559085190296,-0.004809136036783457
1773790598186240300,15.216240234375,0.00020373181905597448,-0.003635481232777238,-0.004412058740854263
1773790598206203100,15.236203125,-0.00039228363311849535,-0.0030751521699130535,-0.005151352379471064
1773790598226166300,15.256166259765624,0.0007653924985788763,-0.0034266894217580557,-0.00643819198012352
1773790598246129200,15.276129150390625,0.0004522047529462725,-0.003279150230810046,-0.006167348474264145
1773790598266092300,15.29609228515625,0.00023329291434492916,-0.001636246219277382,-0.005528189707547426
1773790598286055400,15.316055419921875,0.0010700580896809697,-0.0018274611793458462,-0.00555322365835309
1773790598306018300,15.336018310546875,-0.0002609897928778082,-0.002382730133831501,-0.005304217804223299
1773790598325981400,15.3559814453125,0.00040027310024015605,-0.005598230753093958,-0.005944442003965378
1773790598345944000,15.375944091796875,-0.00002663161103555467,-0.0037997981999069452,-0.005089300684630871
1773790598365906200,15.39590625,-0.0009475527331233025,-0.002246909076347947,-0.0051745218224823475
1773790598385869300,15.415869384765625,-0.0015579492319375277,-0.0032003207597881556,-0.0054941014386713505
1773790598405832200,15.435832275390625,-0.0001704423048067838,-0.0017960357945412397,-0.006729541812092066
1773790598425795300,15.45579541015625,-0.00011984224693151191,-0.0026913906913250685,-0.006968959700316191
1773790598445758500,15.475758544921876,0.0002561961009632796,-0.0028333370573818684,-0.006060289219021797
1773790598465721300,15.495721435546875,0.0011773834703490138,-0.003907123580574989,-0.005687713157385588
1773790598485684200,15.515684326171876,0.0001310275256400928,-0.0021406488958746195,-0.006087719928473234
1773790598505647000,15.535647216796875,-0.0010359697043895721,-0.0026522420812398195,-0.006168946158140898
1773790598525610200,15.5556103515625,-0.0009914948605000973,-0.0026498453225940466,-0.00507092522457242
1773790598545573000,15.575572998046875,0.0003731088654603809,-0.004001399502158165,-0.005404885392636061
1773790598565536300,15.595536376953126,-0.0006916229031048715,-0.0033686324022710323,-0.00461685610935092
1773790598585499400,15.61549951171875,0.0009536779834888875,-0.003363838652148843,-0.00558145297691226
1773790598605461200,15.635461181640625,-0.0009560748003423214,-0.004461593925952911,-0.007081078831106424
1773790598625424400,15.65542431640625,0.00006125270738266408,-0.0021345235873013735,-0.005571066867560148
1773790598645387300,15.67538720703125,0.00041092574247159064,-0.0031252196058630943,-0.007426224648952484
1773790598665350100,15.69535009765625,-0.001589108258485794,-0.0033246902748942375,-0.005341502372175455
1773790598685313300,15.715313232421876,0.00042876892257481813,-0.0031015174463391304,-0.005014732480049133
1773790598705276200,15.735276123046875,-0.001163002452813089,-0.004862132947891951,-0.005518602207303047
1773790598725239300,15.7552392578125,-0.00007057376933516935,-0.004520183429121971,-0.006933539640158415
1773790598745202200,15.7752021484375,-0.0008809737046249211,-0.0032858080230653286,-0.004068244714289904
1773790598765165000,15.7951650390625,0.0006327670416794717,-0.0032088428270071745,-0.005967611446976662
1773790598785128200,15.815128173828125,0.00030067088664509356,-0.0028328043408691883,-0.005560147576034069
1773790598805091000,15.835091064453126,-0.0008958873804658651,-0.0039265644736588,-0.006227003410458565
1773790598825054200,15.85505419921875,-0.0003225088003091514,-0.0034756914246827364,-0.0062485747039318085
1773790598845016300,15.875016357421876,0.00010359696898376569,-0.0032831449061632156,-0.005257612559944391
1773790598864979000,15.89497900390625,-0.0013283847365528345,-0.003032008884474635,-0.005694371182471514
1773790598884942000,15.914942138671876,-0.0009233179152943194,-0.0038211036007851362,-0.005336974747478962
1773790598904905000,15.934905029296875,-0.00010759170982055366,-0.003338006092235446,-0.007066431455314159
1773790598924868000,15.9548681640625,0.0003683151735458523,-0.004072239622473717,-0.004852812271565199
1773790598944831200,15.974831298828125,-0.00010626012954162434,-0.0024349282030016184,-0.005805424880236387
1773790598964794000,15.994794189453126,-0.0016476977616548538,-0.004343083128333092,-0.004032292403280735
1773790598984757200,16.01475732421875,0.000761664065066725,-0.0027409254107624292,-0.005876531358808279
1773790599004720000,16.03472021484375,0.0002980077115353197,-0.0037324202712625265,-0.00609277980402112
1773790599024683300,16.054683349609373,-0.0010753844399005175,-0.0028610338922590017,-0.007033142261207104
1773790599044646100,16.074646240234376,-0.0005163869354873896,-0.003561711637303233,-0.006409695837646723
1773790599064608000,16.09460791015625,-0.0006415555253624916,-0.0023574302904307842,-0.0054541537538170815
1773790599084571100,16.114571044921874,-0.0015073491958901286,-0.0030959248542785645,-0.004370513837784529
1773790599104534300,16.1345341796875,-0.001353152096271515,-0.002264219569042325,-0.005498894955962896
1773790599124497200,16.1544970703125,-0.0011297129094600677,-0.0024522386956959963,-0.005479986313730478
1773790599144460300,16.174460205078127,0.00013209278404247016,-0.003471430391073227,-0.0033939324785023928
1773790599164423200,16.194423095703126,0.0007691209320910275,-0.002971821464598179,-0.005238703917711973
1773790599184386300,16.21438623046875,0.000985103310085833,-0.0028575719334185123,-0.005421929527074099
1773790599204349000,16.234348876953124,0.000568052229937166,-0.0036756948102265596,-0.005124720744788647
1773790599224312000,16.25431201171875,0.0008772452711127698,-0.003743072971701622,-0.004738030023872852
1773790599244275200,16.274275146484374,-0.0006942860782146454,-0.0025856629945337772,-0.006858971435576677
1773790599264238000,16.294238037109373,-0.0004087952256668359,-0.003062102710828185,-0.006163353566080332
1773790599284200200,16.3142001953125,0.000007989483492565341,-0.0041705104522407055,-0.00541447289288044
1773790599304163300,16.334163330078123,-0.0004924184759147465,-0.0032983249984681606,-0.0059662796556949615
1773790599324126200,16.354126220703126,0.000003994741746282671,-0.004327103961259127,-0.004459995776414871
1773790599344089000,16.374089111328125,-0.0004857605672441423,-0.001895105466246605,-0.006434996146708727
1773790599364052000,16.394052001953124,0.000035952674807049334,-0.0036658411845564842,-0.003540406236425042
1773790599384015000,16.41401513671875,-0.0010546117555350065,-0.0018524948973208666,-0.005982791539281607
1773790599403978000,16.43397802734375,-0.001540638622827828,-0.004367584362626076,-0.006336991675198078
1773790599423941000,16.453941162109373,0.00007856325100874528,-0.0024732777383178473,-0.005452822428196669
1773790599443904300,16.473904296875,0.0016138756182044744,-0.004336158744990826,-0.005279184319078922
1773790599463867100,16.4938671875,0.000957939017098397,-0.0028607675340026617,-0.0051659997552633286
1773790599483830300,16.513830322265626,0.00004900216299574822,-0.0020959076937288046,-0.006080262828618288
1773790599503792000,16.533792236328125,-0.0021339908707886934,-0.00227806787006557,-0.007381749805063009
1773790599523755000,16.553755126953124,-0.00025486451340839267,-0.0019832560792565346,-0.006041381042450666
1773790599543718100,16.57371826171875,0.00019094864546786994,-0.003063966752961278,-0.006885603070259094
1773790599563681000,16.593680908203126,-0.0011456918437033892,-0.003052248852327466,-0.005792375188320875
1773790599583644200,16.61364404296875,-0.00003728425508597866,-0.003919374197721481,-0.00621075788512826
1773790599603607300,16.633607177734376,-0.000570981705095619,-0.0026791400741785765,-0.006431533955037594
1773790599623570200,16.653570068359375,-0.0006226470577530563,-0.0020530307665467262,-0.004998486954718828
1773790599643533300,16.673533203125,-0.001253017340786755,-0.0026823359075933695,-0.006068811286240816
1773790599663496200,16.69349609375,0.00038242992013692856,-0.0038045919500291348,-0.0060416474007070065
1773790599683459000,16.713458984375,-0.0012010856298729777,-0.0028487835079431534,-0.005591839086264372
1773790599703421200,16.733421142578123,-0.0015701997326686978,-0.004231496714055538,-0.006080795545130968
1773790599723384000,16.753384033203126,-0.0005874933558516204,-0.0037260286044329405,-0.005449892953038216
1773790599743348200,16.77334814453125,0.00036432043998502195,-0.0023494407068938017,-0.006225405260920525
1773790599763311900,16.793311767578125,-0.001207743538543582,-0.0022570290602743626,-0.0027334685437381268
1773790599783274000,16.81327392578125,-0.0011014834744855762,-0.0035633095540106297,-0.00520647969096899
1773790599803236900,16.83323681640625,-0.0003760383406188339,-0.0016178702935576439,-0.004643487744033337
1773790599823200000,16.853199951171874,-0.000261788722127676,-0.0034674357157200575,-0.005906092468649149
1773790599843163000,16.873162841796876,-0.001300155185163021,-0.0023132218047976494,-0.005366535857319832
1773790599863125800,16.893125732421876,0.0009872338268905878,-0.002975283656269312,-0.007501591928303242
1773790599883089000,16.9130888671875,0.00031372037483379245,-0.0036557212006300688,-0.005085838492959738
1773790599903051800,16.9330517578125,-0.00036218989407643676,-0.003153715282678604,-0.0052048820070922375
1773790599923015000,16.953014892578125,-0.00015686018741689622,-0.003437075763940811,-0.004817125853151083
1773790599942977800,16.972977783203124,-0.000322775129461661,-0.0036511938087642193,-0.007860586047172546
1773790599962941000,16.99294091796875,0.000218645524000749,-0.003290868131443858,-0.006589991971850395
1773790599982903000,17.012903076171874,0.0005986785981804132,-0.0035049861762672663,-0.005513275973498821
1773790600002865700,17.03286572265625,2.6631610694494157e-7,-0.0022117553744465113,-0.005827528890222311
1773790600022828800,17.052828857421876,-0.00022264027211349458,-0.0037230991292744875,-0.004317250568419695
1773790600042792000,17.0727919921875,-0.0012069445801898837,-0.0022386531345546246,-0.006966030225157738
1773790600062754800,17.0927548828125,0.00015632755821570754,-0.0017885789275169373,-0.006158027332276106
1773790600082718000,17.112718017578125,-0.0002748382103163749,-0.0032354744616895914,-0.005588377360254526
1773790600102680800,17.132680908203124,0.0002820287481881678,-0.0019502328941598535,-0.004644020460546017
1773790600122643000,17.152642822265626,-0.0015752597246319056,-0.0038131140172481537,-0.004008856136351824
1773790600142605800,17.172605712890626,0.0005507417372427881,-0.0027830032631754875,-0.006356698926538229
1773790600162568700,17.192568603515625,-0.0009416937828063965,-0.0019885823130607605,-0.00418409239500761
1773790600182531800,17.21253173828125,0.0007584682898595929,-0.0024650217965245247,-0.006421680096536875
1773790600202494000,17.232493896484375,-0.0009345032158307731,-0.0013757890556007624,-0.006067479960620403
1773790600222456800,17.252456787109374,-0.0010575412306934595,-0.0017004283145070076,-0.004802478477358818
1773790600242420000,17.272419921875,0.000636495475191623,-0.003260241821408272,-0.005986253265291452
1773790600262383000,17.292383056640624,-0.0003837615076918155,-0.003141731023788452,-0.0049494849517941475
1773790600282346000,17.312345947265626,-0.000046072687837295234,-0.003454119898378849,-0.006219279952347279
1773790600302308900,17.332308837890626,0.000666589243337512,-0.001856223214417696,-0.006169478874653578
1773790600322271700,17.352271728515625,-0.0016389093361794949,-0.002665291540324688,-0.006174538750201464
1773790600342235000,17.37223486328125,-0.00029055087361484766,-0.002998985582962632,-0.004845621529966593
1773790600362197800,17.39219775390625,0.0008439557277597487,-0.0026253440883010626,-0.004730839282274246
1773790600382161000,17.412160888671874,0.00007297061529243365,-0.002359560690820217,-0.006619553081691265
1773790600402124000,17.4321240234375,-0.0018943065078929067,-0.0035870117135345936,-0.006561496295034885
1773790600422086000,17.4520859375,-0.000877511571161449,-0.003168096300214529,-0.005244562868028879
1773790600442048800,17.472048828125,0.0007800398743711412,-0.0034293525386601686,-0.006451507564634085
1773790600462012000,17.492011962890626,-0.0010194580536335707,-0.0032354744616895914,-0.005570001434534788
1773790600481974800,17.511974853515625,-0.0005014732014387846,-0.00330231967382133,-0.005408081226050854
1773790600501938000,17.53193798828125,0.00043223105603829026,-0.0012154667638242245,-0.00621208967640996
1773790600521900800,17.55190087890625,-0.0012508867075666785,-0.00222027744166553,-0.00564004248008132
1773790600541864000,17.571864013671874,0.000428502622526139,-0.0031880701426416636,-0.005507683381438255
1773790600561827000,17.5918271484375,-0.0014178669080138206,-0.002448510378599167,-0.004760400392115116
1773790600581790000,17.6117900390625,-0.0008375641773454845,-0.0029696908313781023,-0.005313272587954998
1773790600601751800,17.631751708984375,-0.0016434367280453444,-0.0019883159548044205,-0.00680144689977169
1773790600621715000,17.65171484375,-0.00025246766745112836,-0.0021579593885689974,-0.006355900317430496
1773790600641677800,17.671677734375,-0.0007888282998465002,-0.003931624814867973,-0.0062736086547374725
1773790600661641000,17.691640869140624,-0.0003834952076431364,-0.00347435986623168,-0.0054456316865980625
1773790600681603800,17.711603759765627,0.0006799050024710596,-0.0033185649663209915,-0.005693039391189814
1773790600701567000,17.73156689453125,-0.000835966260638088,-0.003501257859170437,-0.006147641222923994
1773790600721529900,17.75152978515625,-0.000919323181733489,-0.003817108692601323,-0.007227553054690361
1773790600741493000,17.771492919921876,0.0015302523970603943,-0.002969424705952406,-0.0056983656249940395
1773790600761455400,17.791455322265627,0.00010173275222769007,-0.002621349412947893,-0.006686931010335684
1773790600781418200,17.811418212890626,-0.0010194580536335707,-0.002663161139935255,-0.006389722228050232
1773790600801380000,17.831380126953125,0.00014887070574332029,-0.003281813347712159,-0.005590507760643959
1773790600821343200,17.85134326171875,-0.0010732539230957627,-0.0025750105269253254,-0.0049734534695744514
1773790600841306000,17.87130615234375,0.0005336974863894284,-0.0026008430868387222,-0.0057556238025426865
1773790600861269200,17.891269287109374,-0.001329982653260231,-0.00213532242923975,-0.005634183529764414
1773790600881232400,17.911232421875,-0.0008487494196742773,-0.004222175572067499,-0.005465338937938213
1773790600901195300,17.9311953125,-0.0006740460521541536,-0.004710865672677755,-0.005577458068728447
1773790600921158400,17.951158447265627,0.0006402239087037742,-0.0036493295338004827,-0.0068083712831139565
1773790600941121300,17.971121337890626,0.000737695605494082,-0.0024173513520509005,-0.006459763273596764
1773790600961084400,17.99108447265625,-0.0007443535141646862,-0.0032655680552124977,-0.006194246467202902
1773790600981047000,18.011047119140624,-0.0010602044640108943,-0.0031886028591543436,-0.004561728797852993
1773790601001009200,18.031009033203127,0.0014351775171235204,-0.003239202778786421,-0.0060933125205338
1773790601020972300,18.05097216796875,-0.0005438174703158438,-0.003495398908853531,-0.006491455249488354
1773790601040935200,18.07093505859375,-0.0010407633380964398,-0.002266616327688098,-0.00509995361790061
1773790601060898300,18.090898193359376,-0.001972869737073779,-0.0017387778498232365,-0.0067902617156505585
1773790601080861400,18.110861328125,-0.0010311759542673826,-0.002103364560753107,-0.00532685499638319
1773790601100824300,18.13082421875,-0.0004316983977332711,-0.002728142309933901,-0.007193464320152998
1773790601120787500,18.150787353515625,0.0000673779723001644,-0.0034647725988179445,-0.004910869058221579
1773790601140750000,18.17075,-0.001686579897068441,-0.0021435783710330725,-0.005080512259155512
1773790601160713200,18.190713134765623,-0.0007025419035926461,-0.0016562198288738728,-0.006405168678611517
1773790601180676000,18.210676025390626,-0.0014008227735757828,-0.0026322684716433287,-0.005575594026595354
1773790601200638200,18.23063818359375,-0.0011502192355692387,-0.0025648903101682663,-0.004956675227731466
1773790601220601300,18.250601318359376,-0.000494016392622143,-0.002770486520603299,-0.005735383834689856
1773790601240564200,18.270564208984375,-0.0013313142117112875,-0.001648230361752212,-0.005657086614519358
1773790601260527400,18.29052734375,-0.0016594156622886658,-0.002549710450693965,-0.0054581486620008945
1773790601280490200,18.310490234375,0.0015662050573155284,-0.0033273533917963505,-0.00729493098333478
1773790601300453000,18.330453125,-0.0001304948964389041,-0.0033742249943315983,-0.0057468353770673275
1773790601320416300,18.350416259765623,0.0010189254535362124,-0.0034759577829390764,-0.0065678879618644714
1773790601340379100,18.370379150390626,-0.0014761901693418622,-0.0029579729307442904,-0.0052323127165436745
1773790601360342300,18.39034228515625,0.0001613875647308305,-0.0013438310706987977,-0.005801962688565254
1773790601380304400,18.410304443359376,-0.0006578007596544921,-0.0033659692853689194,-0.005049886181950569
1773790601400267300,18.430267333984375,-0.0015044197207316756,-0.00307675008662045,-0.005531385540962219
1773790601420230100,18.450230224609374,-0.00044368262751959264,-0.002926813904196024,-0.004773982334882021
1773790601440193300,18.470193359375,-0.0008729841792955995,-0.0025659557431936264,-0.00552233075723052
1773790601460156200,18.49015625,0.00032570460462011397,-0.0038954056799411774,-0.004348409362137318
1773790601480119300,18.510119384765623,-0.00013502225920092314,-0.0030924626626074314,-0.005963616538792849
1773790601500082200,18.530082275390626,0.00008868326403899118,-0.0034237599465996027,-0.00612180819734931
1773790601520045300,18.55004541015625,-0.0007307713967747986,-0.000803209375590086,-0.006323143374174833
1773790601540008200,18.57000830078125,0.0009092031978070736,-0.0037148434203118086,-0.005076251458376646
1773790601559971300,18.589971435546875,0.0003755057114176452,-0.002398176584392786,-0.006448045372962952
1773790601579933200,18.60993310546875,-0.0012679309584200382,-0.0030634342692792416,-0.005558283533900976
1773790601599896300,18.629896240234373,-0.0008080030675046146,-0.0026964505668729544,-0.00592633243650198
1773790601619859200,18.649859130859376,-0.0004106594424229115,-0.0032770195975899696,-0.006648315116763115
1773790601639822300,18.669822265625,-0.0006495449924841523,-0.002335592173039913,-0.004880242515355349
1773790601659785200,18.68978515625,-0.0012980246683582664,-0.0023608922492712736,-0.00640836451202631
1773790601679748400,18.709748291015625,-0.000580036488827318,-0.0022650184109807014,-0.007078682072460651
1773790601699711200,18.729711181640624,0.00045912896166555583,-0.003712446428835392,-0.00697774812579155
1773790601719674400,18.74967431640625,-0.0008791094878688455,-0.004055728204548359,-0.006339388433843851
1773790601739637200,18.76963720703125,-0.001526523963548243,-0.0038655782118439674,-0.005249090492725372
1773790601759599400,18.789599365234373,-0.0008908273885026574,-0.0024594292044639587,-0.0065710837952792645
1773790601779562500,18.8095625,-0.0007233145297504961,-0.0022213426418602467,-0.004245345015078783
1773790601799525400,18.829525390625,-0.0007600661483593285,-0.003352919826284051,-0.005617405753582716
1773790601819488500,18.849488525390626,-0.0002950782363768667,-0.0021643510553985834,-0.007529821712523699
1773790601839451600,18.86945166015625,-0.0005813680472783744,-0.0010540791554376483,-0.005091697443276644
1773790601859414500,18.88941455078125,-0.0000018642127770363004,-0.003817375050857663,-0.005376123357564211
1773790601879377700,18.909377685546875,-0.002232261700555682,-0.0032810145057737827,-0.0058094197884202
1773790601899340500,18.929340576171874,-0.00037683729897253215,-0.002267415402457118,-0.006318083498626947
1773790601919303400,18.949303466796874,-0.00024474450037814677,-0.0028003137558698654,-0.004240285139530897
1773790601939265500,18.969265625,-0.0019467707024887204,-0.002286856295540929,-0.004918059334158897
1773790601959228400,18.989228515625,-0.0010034791193902493,-0.0031435952987521887,-0.004905276466161013
1773790601979191600,19.009191650390626,0.00043888893560506403,-0.0036160401068627834,-0.0068389978259801865
1773790601999154700,19.02915478515625,0.0007712514488957822,-0.002834668615832925,-0.005025384947657585
1773790602019117600,19.04911767578125,-0.0008194546680897474,-0.002481799805536866,-0.006105563137680292
1773790602039080700,19.069080810546875,0.00042024682625196874,-0.0024176177103072405,-0.004933505784720182
1773790602059043300,19.089043212890626,-0.0014735270524397492,-0.003340669209137559,-0.0046847667545080185
1773790602079006500,19.10900634765625,-0.0004548678989522159,-0.0033545177429914474,-0.004619785584509373
1773790602098969300,19.12896923828125,-0.0006972155533730984,-0.00199364242143929,-0.005280515644699335
1773790602118932500,19.148932373046875,-0.00034434671397320926,-0.0031337416730821133,-0.005983323790132999
1773790602138894600,19.16889453125,-0.0014599448768422008,-0.0020506340079009533,-0.0046362970024347305
1773790602158857500,19.188857421875,-0.001446096459403634,-0.003596598980948329,-0.0062826634384691715
1773790602178820600,19.208820556640624,-0.002243979601189494,-0.002082591876387596,-0.006315154023468494
1773790602198783700,19.22878369140625,-0.00007350324449362233,-0.003979827743023634,-0.007078682072460651
1773790602218746400,19.248746337890626,-0.0007427555974572897,-0.004070907831192017,-0.006081328261643648
1773790602238709500,19.26870947265625,-0.0012426309986039996,-0.004008590243756771,-0.0056925066746771336
1773790602258672400,19.28867236328125,-0.00063383235828951,-0.002965962514281273,-0.0059958407655358315
1773790602278635500,19.308635498046876,-0.0009265137487091124,-0.002633333671838045,-0.005619269795715809
1773790602298598400,19.328598388671875,-0.0006775081856176257,-0.0041492050513625145,-0.006689860485494137
1773790602318560500,19.348560546875,-0.002270611235871911,-0.0022892532870173454,-0.0054299188777804375
1773790602338523600,19.368523681640625,-0.00022556974727194756,-0.003320162883028388,-0.006070675794035196
1773790602358486500,19.388486572265624,-0.00022556974727194756,-0.002813895931467414,-0.00555242458358407
1773790602378449400,19.408449462890626,-0.0005605954211205244,-0.0015792545164003968,-0.005304484162479639
1773790602398412500,19.42841259765625,-0.002120675053447485,-0.002329200739040971,-0.005526858381927013
1773790602418375400,19.44837548828125,-0.0012069445801898837,-0.0027712853625416756,-0.005810484755784273
1773790602438338600,19.468338623046876,-0.000254331884207204,-0.003579288488253951,-0.006060289219021797
1773790602458301400,19.488301513671875,-0.001297225710004568,-0.0023454460315406322,-0.005733785685151815
1773790602478264600,19.5082646484375,-0.00009400958515470847,-0.0027387947775423527,-0.005795837379992008
1773790602498226400,19.528226318359376,0.0002061286650132388,-0.0021606225054711103,-0.005603291094303131
1773790602518189300,19.548189208984375,0.0001150485550169833,-0.0029145635198801756,-0.005290635861456394
1773790602538152400,19.56815234375,-0.0007608651067130268,-0.0038477350026369095,-0.005215800832957029
1773790602558115600,19.588115478515626,-0.0013640711549669504,-0.0033342777751386166,-0.0055151404812932014
1773790602578078500,19.608078369140625,-0.0006197175825946033,-0.0029499835800379515,-0.005219529382884502
1773790602598041600,19.62804150390625,-0.0012855078093707561,-0.0031784826423972845,-0.005861617624759674
1773790602618004500,19.64800439453125,-0.00027031084755435586,-0.0031904669012874365,-0.00504003232344985
1773790602637967600,19.667967529296874,-0.00038988678716123104,-0.0032288164366036654,-0.0065385932102799416
1773790602657930500,19.687930419921877,0.0005097290268167853,-0.002576075727120042,-0.006884537637233734
1773790602677892400,19.707892333984375,-0.0001882854849100113,-0.0020658141002058983,-0.004739361349493265
1773790602697855500,19.72785546875,-0.00047084689140319824,-0.0025603631511330605,-0.004800613969564438
1773790602717818600,19.747818603515626,-0.0010250506456941366,-0.003596332622691989,-0.008227037265896797
1773790602737781500,19.767781494140625,-0.00018961707246489823,-0.002397643867880106,-0.006120210513472557
1773790602757744600,19.78774462890625,-0.0011238539591431618,-0.0035481294617056847,-0.007384679280221462
1773790602777707500,19.80770751953125,-0.0009294432238675654,-0.0028338697738945484,-0.005587578285485506
1773790602797670700,19.827670654296874,-0.00011158645065734163,-0.002428004052489996,-0.006777478381991386
1773790602817633500,19.847633544921877,-0.0015632755821570754,-0.0029401297215372324,-0.004483697935938835
1773790602837596400,19.867596435546876,-0.00005725796290789731,-0.002064748667180538,-0.006235525477677584
1773790602857559600,19.8875595703125,0.0006053365068510175,-0.003328951308503747,-0.0054815844632685184
1773790602877521400,19.907521484375,0.0012956279097124934,-0.002414954360574484,-0.0049071405082941055
1773790602897484500,19.927484619140625,-0.00039468047907575965,-0.004481301177293062,-0.0062341936863958836
1773790602917447700,19.94744775390625,-0.0007456850726157427,-0.004021373111754656,-0.005250155925750732
1773790602937410600,19.96741064453125,0.0004207794554531574,-0.0012277172645553946,-0.004963333252817392
1773790602957373700,19.987373779296874,-0.001112935016863048,-0.0026146916206926107,-0.005364671815186739
1773790602977336300,20.00733642578125,0.0008317052270285785,-0.0033039175905287266,-0.006853378843516111
1773790602997299500,20.027299560546876,-0.0007262440049089491,-0.004031226970255375,-0.006018743850290775
1773790603017262300,20.047262451171875,0.0008652610122226179,-0.002266882685944438,-0.004447212442755699
1773790603037224400,20.067224365234374,0.000523843802511692,-0.003605920122936368,-0.005559881217777729
1773790603057187600,20.0871875,-0.00020932445477228612,-0.002159557305276394,-0.00631914846599102
1773790603077150500,20.107150390625,-0.0005688511882908642,-0.0024487765040248632,-0.0058067562058568
1773790603097113600,20.127113525390627,-0.00030839405371807516,-0.002417883835732937,-0.006060555577278137
1773790603117076700,20.14707666015625,0.000035420041967881843,-0.0031169636640697718,-0.0047026099637150764
1773790603137039400,20.167039306640625,-0.0007344998302869499,-0.002739860210567713,-0.005045891273766756
1773790603157002500,20.18700244140625,0.0006407565670087934,-0.0008466189028695226,-0.006395314820110798
1773790603176965400,20.20696533203125,-0.00034647725988179445,-0.003427488263696432,-0.005164934787899256
1773790603196928500,20.226928466796874,-0.0008993495139293373,-0.003564907470718026,-0.006788664031773806
1773790603216890600,20.246890625,-0.0016583503456786275,-0.0019520970527082682,-0.005318865180015564
1773790603236853500,20.266853515625,-0.0011757856700569391,-0.0037832865491509438,-0.006134058814495802
1773790603256816600,20.286816650390627,-0.001017327536828816,-0.003614974906668067,-0.005970807280391455
1773790603276779500,20.306779541015626,0.0008870989549905062,-0.0020210728980600834,-0.005577458068728447
1773790603296742400,20.326742431640625,-0.0005965480813756585,-0.004070907831192017,-0.006316218990832567
1773790603316705500,20.34670556640625,-0.0018572885310277343,-0.0035547874867916107,-0.006184392608702183
1773790603336668400,20.36666845703125,-0.00028282770654186606,-0.0026612968649715185,-0.003840544493868947
1773790603356631600,20.386631591796874,0.00027297402266412973,-0.0036506610922515392,-0.005969741847366095
1773790603376594400,20.406594482421873,-0.0001877528557088226,-0.0031502533238381147,-0.0054696002043783665
1773790603396556500,20.426556640625,-0.0017201356822624803,-0.003591272747144103,-0.0037140443455427885
1773790603416519400,20.44651953125,-0.0002335592289455235,-0.002909237053245306,-0.004571049474179745
1773790603436482300,20.466482421875,-0.0007464840309694409,-0.0031185615807771683,-0.00583764910697937
1773790603456445400,20.486445556640625,0.0008189220097847283,-0.003147856332361698,-0.005827262531965971
1773790603476408600,20.50640869140625,-0.0007912251749075949,-0.0027172232512384653,-0.0067828050814569
1773790603496371500,20.526371337890627,-0.00016937704640440643,-0.0038983351550996304,-0.005765743553638458
1773790603516334600,20.54633447265625,-0.001520665013231337,-0.0029585056472569704,-0.006542587652802467
1773790603536297500,20.56629736328125,-0.0019313243683427572,-0.001455151243135333,-0.006589459255337715
1773790603556260600,20.586260498046876,-0.0008261125767603517,-0.0030242856591939926,-0.004454935900866985
1773790603576222500,20.606222412109375,-0.0005347627447918057,-0.0020034960471093655,-0.005519401282072067
1773790603596185300,20.626185302734374,-0.0004977448261342943,-0.002703374717384577,-0.006459231022745371
1773790603616148500,20.6461484375,-0.0011299792677164078,-0.002602973720058799,-0.005407015793025494
1773790603636111600,20.666111572265624,-0.0007182545377872884,-0.0022178804501891136,-0.006607835181057453
1773790603656074500,20.686074462890623,-0.0007105313707143068,-0.002416286151856184,-0.0054850466549396515
1773790603676037600,20.70603759765625,-0.000743554555810988,-0.0023529028985649347,-0.005119394510984421
1773790603696000500,20.72600048828125,-0.0012175972806289792,-0.002688460983335972,-0.005776662845164537
1773790603715963600,20.745963623046876,-0.000624777574557811,-0.003094326937571168,-0.0062187472358345985
1773790603735926500,20.765926513671875,0.0005901564727537334,-0.00364666641689837,-0.00566907087340951
1773790603755889000,20.785888916015626,0.0002798982313834131,-0.0036282907240092754,-0.006386526394635439
1773790603775852000,20.80585205078125,-0.0007880293414928019,-0.003834951901808381,-0.0067753479816019535
1773790603795815000,20.82581494140625,-0.0006143912323750556,-0.0028421254828572273,-0.004691424313932657
1773790603815777800,20.84577783203125,0.0005209143273532391,-0.0031915323343127966,-0.005234709475189447
1773790603835741000,20.865740966796874,-0.0006029396899975836,-0.0028125643730163574,-0.006195577792823315
1773790603855703800,20.885703857421873,-0.0001512675517005846,-0.0037894118577241898,-0.005425391718745232
1773790603875667000,20.9056669921875,-0.0002993392990902066,-0.004028830211609602,-0.005675728898495436
1773790603895629800,20.9256298828125,0.0006378270918503404,-0.003512975759804249,-0.005982258822768927
1773790603915592000,20.945592041015626,-0.0008498146780766547,-0.0028943235520273447,-0.007162305526435375
1773790603935555000,20.96555517578125,0.00005193164179218002,-0.0034639735240489244,-0.0065111625008285046
1773790603955518000,20.98551806640625,0.00022264027211349458,-0.0021704763639718294,-0.005275189410895109
1773790603975480800,21.005480712890623,0.00033396040089428425,-0.0027683558873832226,-0.0062523032538592815
1773790603995443700,21.025443603515626,-0.0018927085911855102,-0.002290318487212062,-0.005909820552915335
1773790604015406800,21.04540673828125,0.0002759034978225827,-0.003138801548629999,-0.006098905112594366
1773790604035370000,21.065369873046876,0.0003115898580290377,-0.002922286745160818,-0.007216367404907942
1773790604055332900,21.085332763671875,-0.0006213154993019998,-0.0015310513554140925,-0.006852579768747091
1773790604075295000,21.105294921875,-0.00035233621019870043,-0.0026221484877169132,-0.0054970309138298035
1773790604095258000,21.125258056640625,0.0004732437082566321,-0.0021944446489214897,-0.005156146362423897
1773790604115220700,21.145220703125,-0.000150202278746292,-0.0027869981713593006,-0.004502606578171253
1773790604135184000,21.165183837890623,0.00042557314736768603,-0.0038075214251875877,-0.005747634451836348
1773790604155146800,21.185146728515626,0.00037284253630787134,-0.0026200178544968367,-0.005056011490523815
1773790604175110000,21.20510986328125,-0.0006490123341791332,-0.004089017398655415,-0.005198223982006311
1773790604195072800,21.22507275390625,-0.0015720640076324344,-0.0025712819769978523,-0.006716758478432894
1773790604215036000,21.245035888671875,0.00007110639853635803,-0.0035864789970219135,-0.004878378473222256
1773790604234998000,21.264998046875,0.00009986854274757206,-0.0029169602785259485,-0.00598492193967104
1773790604254961000,21.2849609375,-0.0008649947121739388,-0.002941727638244629,-0.005588643718510866
1773790604274923800,21.304923828125,-0.0009265137487091124,-0.0034373418893665075,-0.004971322603523731
1773790604294887000,21.324886962890623,-0.000025566347176209092,-0.003391801845282316,-0.005245095584541559
1773790604314849800,21.344849853515626,0.0003408846096135676,-0.0034141724463552237,-0.006889065261930227
1773790604334813000,21.36481298828125,-0.0012897689593955874,-0.00219524372369051,-0.007324757985770702
1773790604354775800,21.38477587890625,-0.00015952334797475487,-0.0026056368369609118,-0.004248008131980896
1773790604374739000,21.404739013671875,-0.00036671728594228625,-0.0016591493040323257,-0.005452556069940329
1773790604394701000,21.424701171875,-0.00010759170982055366,-0.0032810145057737827,-0.004814994987100363
1773790604414663700,21.44466357421875,-0.001190166687592864,-0.0021017666440457106,-0.005883455276489258
1773790604434626800,21.464626708984376,-0.0003028014034498483,-0.0028099012561142445,-0.006291984114795923
1773790604454590000,21.48458984375,-0.0003355582884978503,-0.0020042951218783855,-0.0062578958459198475
1773790604474551800,21.5045517578125,-0.00021731393644586205,-0.00370072852820158,-0.004514590837061405
1773790604494515000,21.524514892578125,-0.0015281217638403177,-0.00185063062235713,-0.006756439805030823
1773790604514478000,21.54447802734375,0.0002234392159152776,-0.003656520042568445,-0.005072256550192833
1773790604534441000,21.56444091796875,-0.001074052881449461,-0.0036397422663867474,-0.005654157139360905
1773790604554403800,21.58440380859375,-0.0006870955694466829,-0.003019491909071803,-0.006040049251168966
1773790604574366700,21.60436669921875,-0.00005725796290789731,-0.002636529505252838,-0.006120743229985237
1773790604594329900,21.624329833984376,-0.0008383630774915218,-0.0011622034944593906,-0.005739111918956041
1773790604614292700,21.644292724609375,-0.0017417073249816895,-0.0032293491531163454,-0.005449360236525536
1773790604634254800,21.6642548828125,0.00028309403569437563,-0.002996056107804179,-0.00580755528062582
1773790604654218000,21.684218017578125,-0.0007070692372508347,-0.0029947245493531227,-0.0054240599274635315
1773790604674180900,21.704180908203124,-0.0001917476038215682,-0.0031321437563747168,-0.005889314226806164
1773790604694144000,21.72414404296875,-0.0005733785801567137,-0.004132426809519529,-0.004622715059667826
1773790604714107000,21.74410693359375,0.00044661210267804563,-0.003925499506294727,-0.004372910596430302
1773790604734069800,21.76406982421875,0.0007576693315058947,-0.0023462448734790087,-0.0049215215258300304
1773790604754033400,21.784033447265625,0.0007033408619463444,-0.0029025792609900236,-0.006667223758995533
1773790604773995500,21.80399560546875,0.00034940673504024744,-0.0020181434229016304,-0.005511678289622068
1773790604793958400,21.82395849609375,-0.0008950884221121669,-0.003370496677234769,-0.005146825220435858
1773790604813921300,21.84392138671875,0.00008309062832267955,-0.004066114313900471,-0.006274939980357885
1773790604833884200,21.86388427734375,-0.0004391552647575736,-0.00415319949388504,-0.0046605318784713745
1773790604853847300,21.883847412109375,0.00011238539445912465,-0.003424825146794319,-0.007111439015716314
1773790604873810200,21.90381005859375,-0.000532365869730711,-0.001880191732198,-0.005212072748690844
1773790604893773300,21.923773193359374,-0.0007800398743711412,-0.003855724586173892,-0.005339105147868395
1773790604913736400,21.943736328125,0.0012444951571524143,-0.004010187927633524,-0.005644303746521473
1773790604933699300,21.96369921875,-0.0001304948964389041,-0.002953445538878441,-0.007158310618251562
1773790604953661200,21.9836611328125,0.000604004948399961,-0.003004844533279538,-0.0049068741500377655
1773790604973624300,22.003624267578125,-0.0016626114957034588,-0.0033755565527826548,-0.007153250742703676
1773790604993587200,22.023587158203124,-0.00043063313933089375,-0.002659166231751442,-0.005928729195147753
1773790605013550300,22.04355029296875,0.00021758026559837162,-0.0035393410362303257,-0.0057260626927018166
1773790605033513200,22.06351318359375,0.0017595505341887474,-0.0011054781498387456,-0.005720736458897591
1773790605053476400,22.083476318359374,0.0005925533478148282,-0.002600576728582382,-0.005546565633267164
1773790605073439200,22.103439208984376,-0.0010538127971813083,-0.0038546593859791756,-0.0043742419220507145
1773790605093401000,22.123401123046875,0.0008173241512849927,-0.0017829863354563713,-0.00564164062961936
1773790605113364200,22.1433642578125,-0.0013187973527237773,-0.0022564963437616825,-0.005016596522182226
1773790605133327400,22.163327392578125,-0.0012740562669932842,-0.003906058380380273,-0.006131129339337349
1773790605153290200,22.183290283203124,-0.0004391552647575736,-0.0023907197173684835,-0.005453887395560741
1773790605173253400,22.20325341796875,-0.0004985437262803316,-0.0035244273021817207,-0.005781989078968763
1773790605193216300,22.22321630859375,-0.0012572783743962646,-0.0036525253672152758,-0.006217149551957846
1773790605213179400,22.243179443359374,0.0004247741890139878,-0.002554770326241851,-0.004220843780785799
1773790605233142300,22.263142333984376,0.0003379551344551146,-0.0024506407789885998,-0.006828344892710447
1773790605253104000,22.283104248046875,0.0012655340833589435,-0.003216566052287817,-0.0051992894150316715
1773790605273067300,22.3030673828125,-0.0002263686910737306,-0.002183259464800358,-0.00691969133913517
1773790605293030100,22.323030029296874,0.0003147856332361698,-0.0022916500456631184,-0.004426972474902868
1773790605312993300,22.3429931640625,-0.00034115093876607716,-0.0020823257509618998,-0.004276237916201353
1773790605332956400,22.362956298828124,-0.0003400856803636998,-0.002671416848897934,-0.004133225884288549
1773790605352919300,22.382919189453126,0.000770452490542084,-0.0031182952225208282,-0.004797152243554592
1773790605372882400,22.40288232421875,-0.0012855078093707561,-0.0041699777357280254,-0.007139668334275484
1773790605392845300,22.42284521484375,-0.001041295938193798,-0.0031699605751782656,-0.004985171370208263
1773790605412807200,22.44280712890625,0.001287904684431851,-0.0036037894897162914,-0.0054485611617565155
1773790605432770300,22.462770263671874,0.00043302998528815806,-0.004174504894763231,-0.0061535001732409
1773790605452733200,22.482733154296874,-0.0014144048327580094,-0.0026013758033514023,-0.006130862981081009
1773790605472696300,22.5026962890625,0.0012998889433220029,-0.0027747475542128086,-0.005086637567728758
1773790605492659500,22.522659423828124,0.0003424825263209641,-0.003126284806057811,-0.0046911584213376045
1773790605512622300,22.542622314453126,-0.0013382384786382318,-0.003294330323114991,-0.005273325368762016
1773790605532585500,22.56258544921875,0.00022503710351884365,-0.003044259501621127,-0.005948170088231564
1773790605552548400,22.58254833984375,-0.00009161273919744417,-0.0026786073576658964,-0.006245112512260675
1773790605572510200,22.60251025390625,-0.0008143946761265397,-0.0035329493694007397,-0.00509995361790061
1773790605592473300,22.622473388671875,-0.0011776498286053538,-0.002722283359616995,-0.005089300684630871
1773790605612436200,22.642436279296874,-0.00018082863243762404,-0.00279046013019979,-0.006780407857149839
1773790605632399400,22.6623994140625,-0.0007174555794335902,-0.0029912625905126333,-0.006134325172752142
1773790605652362200,22.6823623046875,-0.0002463423879817128,-0.004095941781997681,-0.005988384131342173
1773790605672325400,22.702325439453126,-0.0003499393642414361,-0.005052549298852682,-0.006704241503030062
1773790605692288500,22.72228857421875,-0.0006953513366170228,-0.003786748740822077,-0.005257612559944391
1773790605712250000,22.74225,0.0001715075777610764,-0.002040514023974538,-0.004868790972977877
1773790605732213200,22.762213134765624,0.00036671728594228625,-0.002621349412947893,-0.0060270000249147415
1773790605752179700,22.7821796875,0.0007507451227866113,-0.0024399880785495043,-0.006333795841783285
1773790605772142600,22.802142578125,-0.0008524778531864285,-0.0024027039762586355,-0.005817409139126539
1773790605792105700,22.822105712890625,-0.001680987305007875,-0.002005093963816762,-0.00517691858112812
