time,seconds_elapsed,z,y,x
1773789887950215700,0.071215576171875,0.036682255709171295,-0.00411319491440081,-0.008111264132708311
1773789887970180600,0.0911806640625,0.024710662886500357,-0.0024785543337173294,-0.0002963160654529929
1773789887990145800,0.111145751953125,0.04760463173985481,0.002490944599476643,0.00018865443989634514
1773789888010109700,0.131109619140625,0.036381226935982704,0.00021983959602657705,0.010116959665622562
1773789888030074600,0.15107470703125,0.030392800176143646,0.011215688429941655,0.002777063497900963
1773789888050039600,0.17103955078125,0.03338672129511833,-0.0005606558152649086,-0.003418265744578093
1773789888070004700,0.191004638671875,0.044010406640172,-0.0010051356216659768,-0.010722725272737443
1773789888089968600,0.21096875,0.03009235592484474,0.002175520833110204,0.0013358517136424779
1773789888109933600,0.23093359375,0.0359282224714756,0.0022512723583960905,-0.0006099303255788981
1773789888129898800,0.250898681640625,0.03787058871090412,-0.004617520857480122,-0.0012152210086584091
1773789888149862700,0.270862548828125,0.03712181617021561,-0.011069239438755903,-0.010440236803237348
1773789888169827600,0.29082763671875,0.04490238704383373,0.0010905956902133767,-0.0006724193688482045
1773789888189792500,0.31079248046875,0.04250760086178779,-0.008329141242156038,0.004155274782236666
1773789888209757700,0.3307578125,0.034576807862520216,-0.0030906766163825523,-0.0048306898257695135
1773789888229721900,0.350721923828125,0.04819499884843826,0.002620594294555485,0.001993274442758411
1773789888249686800,0.370686767578125,0.028594226321578025,0.000303590623033233,-0.0028757380994036794
1773789888269651700,0.390651611328125,0.029492636466026304,-0.009878421077347592,0.010862480803299695
1773789888289615600,0.41061572265625,0.04191080401241779,0.0032862277295906094,0.0001853665042668581
1773789888309580800,0.430580810546875,0.03083703681230545,-0.01344882234344841,0.0027511984042823314
1773789888329545700,0.450545654296875,0.04789806172847748,0.01151651513208635,-0.001845280806813389
1773789888349509600,0.470509521484375,0.04430909732580185,-0.012786909527238457,-0.007645820311736315
1773789888369474600,0.490474609375,0.036975101175904274,0.005692569635401014,-0.012062175449263303
1773789888389439700,0.510439697265625,0.048648003312945366,0.011923708835133584,-0.010613931136019527
1773789888409404700,0.53040478515625,0.05179097751379013,0.0036290395430929492,-0.00645297553166747
1773789888429368800,0.550368896484375,0.03682546357214451,-0.004084622982109431,-0.009372991164214908
1773789888449333800,0.570333740234375,0.0734820003181696,-0.0021335813875251915,0.016936905346158892
1773789888469299000,0.590298828125,0.057762453138828274,-0.010368035791773582,0.04563459204221144
1773789888489262800,0.610262939453125,0.21275778453946112,-0.0005371322341379709,0.05457717416621744
1773789888509227800,0.630227783203125,-0.03328852161765098,-0.1690841355729848,0.11926381881134585
1773789888529192700,0.650192626953125,0.036027591192722315,0.021538595021911897,-0.16117842221604659
1773789888549156600,0.670156494140625,0.43421734645068644,0.12706195274111814,-0.32169556751176714
1773789888569121800,0.690121826171875,0.08600421276092529,0.10613729293304495,-0.12938152739563957
1773789888589086700,0.710086669921875,0.21064473790824412,0.050917984938388686,0.14321045678909866
1773789888609051600,0.7300517578125,-0.08324410039782523,-0.005200721293871174,0.2035527338206768
1773789888629015800,0.750015869140625,0.06774433344900607,-0.14984469803865066,0.13200855143098159
1773789888648980700,0.769980712890625,0.10453764831721782,-0.14706694955416022,0.14368273220965638
1773789888668945700,0.789945556640625,-0.09688041156232356,0.08086737959543243,-0.05352961960835382
1773789888688909800,0.809909912109375,0.06352934610247611,0.04227591556434054,0.05850351729709655
1773789888708874800,0.829874755859375,0.02297814000546932,-0.008283672973990906,-0.038181243828963485
1773789888728839700,0.849839599609375,0.11530103439390658,-0.022647099686507133,-0.13062210204126312
1773789888748804900,0.869804931640625,0.012490063738822936,-0.05426452802047133,-0.31086532674394546
1773789888768768800,0.889768798828125,0.03672375676333904,0.0122672056352254,-0.24301218089191243
1773789888788733700,0.909733642578125,0.028784195935726165,0.07715925492565147,0.052681240884400904
1773789888808698600,0.92969873046875,0.04045183737576007,0.08795831510392017,0.25791136986538765
1773789888828662500,0.94966259765625,0.04044716120064258,-0.030597862328146583,0.32820020016543566
1773789888848627700,0.969627685546875,0.06962590941190719,-0.06386355562605894,0.1320581444600597
1773789888868592600,0.989592529296875,0.03026712796986103,-0.08489406869509257,-0.06674405209897086
1773789888888556800,1.009556884765625,0.04851940849721431,-0.03450040445833001,-0.16097721882183103
1773789888908521700,1.029521728515625,-0.0013140052080154417,0.039779988829069766,-0.11841337599446997
1773789888928487000,1.04948681640625,0.06496551638543606,0.11695258272690698,-0.07931129099354148
1773789888948451800,1.069451904296875,0.005706102687120437,0.037082785634347235,-0.05384232055302709
1773789888968415700,1.089415771484375,0.06226502525508403,-0.05061657713928725,-0.014719850351195782
1773789888988380700,1.109380615234375,0.038918051937222475,-0.08449402739368378,0.09244027369040995
1773789889008345900,1.129345947265625,0.044452889710664745,-0.022785905368998646,0.10765077536907046
1773789889028309800,1.149309814453125,0.05178279420733452,0.005684640344805666,0.10162260112073272
1773789889048274700,1.169274658203125,0.034573300731182095,0.0703554475291632,0.05589726205514744
1773789889068239600,1.189239501953125,0.04130523933470249,0.0642729127450846,-0.05399617767417803
1773789889088204500,1.20920458984375,0.03142974200844764,-0.008984035229112487,-0.11671499284505843
1773789889108169000,1.2291689453125,0.04415010737180709,-0.035093294600851366,-0.11138208911819383
1773789889128134000,1.2491337890625,0.03547171087563038,-0.012025761562166734,0.008313399108685553
1773789889148098800,1.269098876953125,0.03666705814003944,-0.02004417347938288,0.049536604449432343
1773789889168062700,1.289062744140625,0.026040450185537335,0.019377647278492803,0.037699250731989736
1773789889188027600,1.309027587890625,0.03666238196492195,0.01936243372634053,0.02313645410602912
1773789889207992800,1.328992919921875,0.037412908071279526,-0.021782587245083414,0.044423188692145045
1773789889227957800,1.348957763671875,0.03562017943561077,0.00007904802324774209,0.0008743716817349195
1773789889247921700,1.368921630859375,0.041458968591690064,0.008477511620725272,-0.0263500641239807
1773789889267886600,1.388886474609375,0.05702127938270569,0.01589033260240685,-0.05148656947342679
1773789889287851800,1.408851806640625,0.029490298378467557,0.039646101350290695,-0.05025423293318599
1773789889307815700,1.428815673828125,0.03308335443437099,0.016043467062705895,0.0015881825068965554
1773789889327780600,1.448780517578125,0.03203647572994232,-0.013407177442096872,0.04015300055965781
1773789889347745500,1.46874560546875,0.055227966225147244,-0.027166705135954542,0.03670684216115624
1773789889367710700,1.488710693359375,0.021707389417290685,-0.025253925750614144,0.0084949844869785
1773789889387675000,1.5086748046875,0.046398763081431385,-0.03211231516184052,0.0030668584910221396
1773789889407639800,1.528639892578125,0.05702595555782318,-0.008361418951896484,0.003660312605835497
1773789889427604700,1.548604736328125,0.04266191464066505,0.05366172612200025,-0.027519875088334082
1773789889447570000,1.56856982421875,0.03997194490432739,-0.003372597974068776,-0.03367551164124161
1773789889467533800,1.588533935546875,0.04102057717442512,-0.005033377928417758,-0.026853355737309903
1773789889487498800,1.608498779296875,0.05029693956375122,0.03015505274737952,-0.004218604075722396
1773789889507463700,1.628463623046875,0.045209845557808874,0.01596700086807832,0.003698799719009548
1773789889527427600,1.648427490234375,0.030692659905552862,-0.00002110672011040151,-0.002613854026515037
1773789889547392800,1.668392822265625,0.04101590099930763,-0.0008646879692372749,0.009451956418249755
1773789889567357700,1.688357666015625,0.04475742561519146,-0.012096182750142178,0.018243293503299354
1773789889587322600,1.708322509765625,0.03323357656002045,-0.010446438215160742,0.007259341744799167
1773789889607286800,1.728286865234375,0.058523500639200206,0.007148117047332926,-0.0007282412093132733
1773789889627251700,1.748251708984375,0.041165538603067396,-0.006204482946603093,-0.017778562068380414
1773789889647217000,1.768216796875,0.023960136780142784,0.004930447276905761,-0.028111758300568907
1773789889667181800,1.788181884765625,0.03698036187291145,0.0060869723555340895,-0.0196828978523612
1773789889687145700,1.808145751953125,0.04835574236810207,0.015718635005532996,0.0211923890998587
1773789889707110700,1.828110595703125,0.05194529129266739,0.006362052695068996,0.024127784964628515
1773789889727075800,1.848075927734375,0.038326515784859655,0.002593878105099429,0.010882993868365883
1773789889747039700,1.868039794921875,0.03563420796096325,0.007412195931418682,0.0033562881579622624
1773789889767004700,1.888004638671875,0.030695582515001294,-0.004952460462602903,0.02446393985012546
1773789889786969600,1.907969482421875,0.0420715475320816,0.007180792620117426,0.020104447732679543
1773789889806934800,1.927934814453125,0.03878068929314613,-0.004382139486560481,-0.009124331899080424
1773789889826898700,1.947898681640625,0.029952655193209648,0.008576707953680306,-0.024876100847590715
1773789889846864000,1.96786376953125,0.04371639212965965,-0.005779791831949842,-0.039698151197936384
1773789889866828800,1.987828857421875,0.04551145885288715,-0.001632881877615,-0.02993329290561378
1773789889886793700,2.007793701171875,0.05688391673862934,0.012630515672417823,-0.018862156054005024
1773789889906758000,2.0277578125,0.042515784168243406,0.001927772029317566,0.0037321722656488416
1773789889926722800,2.047722900390625,0.041615620458126064,0.00806865682519856,0.025401385097019374
1773789889946687700,2.067687744140625,0.029944471886754035,0.0020712083638594774,0.026422343908902256
1773789889966652700,2.087652587890625,0.05732698433101177,0.002955774215806741,0.018844729995168744
1773789889986616600,2.107616455078125,0.047600540086627,0.004526282927050488,0.002533190005738288
1773789890006581800,2.127581787109375,0.04715454988479614,0.003972829460362846,-0.014817173245828598
1773789890026546700,2.147546630859375,0.04939969846308231,-0.002586443717314978,-0.030697007287107406
1773789890046511600,2.16751171875,0.04595861809849739,-0.009759776833473005,-0.024289259136654435
1773789890066476000,2.18747607421875,0.03892448167800903,-0.002335925284412224,-0.00987986297411844
1773789890086441000,2.20744091796875,0.03443243095576763,0.0034305566872819323,-0.008087737126648425
1773789890106406000,2.227406005859375,0.0324859730631113,0.0011698896664584025,0.023411234193108976
1773789890126370800,2.247370849609375,0.036973932132124895,0.013139725569880101,0.029595859378483146
1773789890146335200,2.267335205078125,0.035028643283247944,0.008389488560688914,0.01970501835262403
1773789890166300200,2.287300048828125,0.03921908071041107,-0.0037917381286475572,0.00905132146179676
1773789890186265000,2.30726513671875,0.03278466374874115,0.01835149056004011,-0.004849851183965802
1773789890206230000,2.32722998046875,0.04819675241410732,0.019622493451612533,-0.026071941302344203
1773789890226194000,2.34719384765625,0.040864509829878805,-0.003090689174470026,-0.01858087316090241
1773789890246159000,2.3671591796875,0.023655016353726386,0.0014871932215435662,-0.01598501144880429
1773789890266124000,2.3871240234375,0.035624855610728264,-0.002357472393817443,-0.0014007519097067416
1773789890286089000,2.4070888671875,0.04220774113237857,-0.0164791744741844,0.01016474433010444
1773789890306052900,2.427052978515625,0.040409167277812956,0.00017147354917688062,0.0010477189546450971
1773789890326018000,2.44701806640625,0.030080665487051007,0.0018248011348434374,0.01197789469929412
1773789890345983000,2.46698291015625,0.03561550326049328,0.0036991033963975494,-0.014873250814620405
1773789890365948000,2.486947998046875,0.03666647361814976,0.005259684939493308,-0.006066770959366113
1773789890385912000,2.506912109375,0.03442307860553264,0.015582104620162863,0.002423628684040159
1773789890405877000,2.526876953125,0.030083003574609756,0.013266468638530931,-0.008468845398724079
1773789890425842000,2.546842041015625,0.0374140771150589,0.01198458245169604,-0.0021268376945517958
1773789890445807000,2.56680712890625,0.05222878440916538,0.009523032339240307,-0.004410363788157701
1773789890465771000,2.58677099609375,0.034570378121733664,-0.005067779096585582,0.008660404181759803
1773789890485736200,2.606736083984375,0.03906125980019569,-0.0070182116239273454,-0.0072702832639217375
1773789890505701000,2.626701171875,0.032326398587226864,-0.006297544083005049,-0.007684508354309946
1773789890525666000,2.646666015625,0.04743979656696319,0.008411844239680794,-0.007969718503858894
1773789890545631000,2.666630859375,0.03861234698891639,0.015944154282030647,0.010980243697762489
1773789890565595000,2.686594970703125,0.054772039151191707,-0.00037081146090404217,0.0171567038429901
1773789890585560000,2.70656005859375,0.022452070304751395,0.004487532950272725,0.0035998328565619883
1773789890605525000,2.72652490234375,0.03786357444822788,0.014995132761774584,-0.011596439367346464
1773789890625490000,2.746489990234375,0.04489654182493687,-0.003576253905685735,0.005009389127232134
1773789890645453800,2.766453857421875,0.04968552966713905,0.004100075423334783,-0.00010050123240798711
1773789890665419000,2.7864189453125,0.03636719841063022,0.0061547192416997855,-0.013076156531088054
1773789890685384000,2.806384033203125,0.03232873667478561,-0.007307204041094519,0.01361241883225739
1773789890705348900,2.826348876953125,0.03996025446653366,0.0017419542901348903,0.007478665317595005
1773789890725313000,2.84631298828125,0.036517420536279675,0.007615422890183981,0.00993805943476036
1773789890745278200,2.8662783203125,0.040105800417065615,0.00581218028118892,-0.0035329781654290853
1773789890765243100,2.8862431640625,0.0377145213663578,0.007118009032614645,-0.00008722162572667002
1773789890785208000,2.9062080078125,0.03741583068072796,0.01859739047086332,0.003770896840840578
1773789890805172000,2.926171875,0.05193243181109428,-0.004560674676652707,0.0027693003165535626
1773789890825137200,2.94613720703125,0.035472295397520066,0.009182438740643556,-0.0053068742364645
1773789890845102000,2.96610205078125,0.03966273282468319,0.006052860594200319,-0.005321286354307085
1773789890865067000,2.98606689453125,0.028590719190239904,-0.005374274633580353,-0.001056358918827027
1773789890885031000,3.006031005859375,0.041758243799209595,-0.00018613604388847306,-0.00941728696366772
1773789890904995800,3.025995849609375,0.03771802849769592,-0.0036769808982571703,-0.0023805201946757735
1773789890924961000,3.0459609375,0.030984920850396155,0.005049966591148404,-0.0037373964300379155
1773789890944926000,3.065926025390625,0.04819266076087951,0.020502303926867898,-0.011358959083352237
1773789890964890000,3.08589013671875,0.032331074762344356,0.00938397321171069,0.00046911534909158944
1773789890984855000,3.10585498046875,0.048942017823457716,0.022466936797031666,0.00564198794234544
1773789891004820200,3.1258203125,0.0315799641340971,-0.014473056532873306,0.012282120076566934
1773789891024785200,3.14578515625,0.04998422035276889,0.0068771671769325615,-0.004856847180332988
1773789891044749000,3.1657490234375,0.02274550029337406,0.005566713624383555,-0.0017937698152847587
1773789891064714200,3.18571435546875,0.030974399456381797,-0.0042298678239531,0.00380547496387735
1773789891084679200,3.20567919921875,0.04055062157511711,0.007204465185827575,0.0029379714143462476
1773789891104644400,3.225644287109375,0.03695815004110336,0.005814365388409351,-0.010015563384070992
1773789891124608300,3.245608154296875,0.05222001658082008,0.000477896805815908,-0.005459361384436488
1773789891144573200,3.2655732421875,0.03426116604208946,0.005494817431952105,0.0006314297713339328
1773789891164538000,3.2855380859375,0.042192543563246726,0.011324007642624201,0.00824100972590968
1773789891184503300,3.30550341796875,0.02872515922486782,0.017856012360408204,0.0032861820638179777
1773789891204467200,3.32546728515625,0.038002690657973286,0.008129964266601019,0.0003084631609730422
1773789891224432000,3.34543212890625,0.04922317285239696,0.0014145526770182185,-0.0022682737255468963
1773789891244397000,3.36539697265625,0.03590425707399845,-0.0028919177680581925,-0.008058785026799888
1773789891264362200,3.3853623046875,0.03814882113039493,0.000266066558192324,-0.0026660226051695643
1773789891284326400,3.405326416015625,0.04473521378338337,0.003619124933032435,0.002150456032156944
1773789891304291300,3.425291259765625,0.04637947385907173,0.00991698810562375,0.020046981924399732
1773789891324256300,3.44525634765625,0.028273908326029776,-0.0018165861477580619,0.0034231976480223235
1773789891344221200,3.46522119140625,0.04398702576458454,0.0065781288606085574,0.01040447137011215
1773789891364185300,3.485185302734375,0.03785363757610321,0.0035745528556552016,-0.0016527173767797649
1773789891384150300,3.505150390625,0.04787994154989719,0.005300692232494475,-0.006919405733328312
1773789891404115200,3.525115234375,0.030370588344335554,-0.0018983599895153018,-0.014488087421935051
1773789891424080100,3.545080078125,0.02468786653280258,-0.0025244609932997264,-0.0029944325756281615
1773789891444044000,3.5650439453125,0.032920272827148434,0.018958120391902047,-0.013865370680019258
1773789891464009200,3.58500927734375,0.046241526693105696,0.006235207449251902,0.016775047581642864
1773789891483974100,3.60497412109375,0.04219838878214359,-0.024892321330029516,-0.0020729155502282083
1773789891503939000,3.62493896484375,0.029479192462563513,0.004028740919906704,-0.005234923245105892
1773789891523903200,3.6449033203125,0.042048751178383824,-0.0006641478703691973,0.002253167487960309
1773789891543868400,3.664868408203125,0.019903554865717887,0.014599089498759711,-0.004087031851615757
1773789891563833300,3.684833251953125,0.04504442586302757,0.025864107237942514,-0.0014771781467832624
1773789891583798300,3.70479833984375,0.03696341073811054,0.018714978693745797,-0.0018998422719538211
1773789891603762200,3.72476220703125,0.04863280574381351,-0.009350334091123659,0.012891283217165619
1773789891623727400,3.744727294921875,0.05327040241658687,-0.03212929141281638,-0.017288860588986425
1773789891643692300,3.7646923828125,0.053417117410898204,-0.008337895941591705,-0.020723620810639113
1773789891663657200,3.7846572265625,0.04922726450562477,0.002619389288980164,-0.0038193390924483534
1773789891683621000,3.80462109375,0.026630817294120788,0.009310622564420919,0.018980028546322136
1773789891703586300,3.82458642578125,0.030222119784355163,0.005307075736686238,-0.004053476641885936
1773789891723551200,3.84455126953125,0.04114332677125931,-0.0003646216438057308,-0.010831592474691568
1773789891743516200,3.86451611328125,0.05161620546877384,-0.017993924135400446,0.008572470169980079
1773789891763480000,3.88447998046875,0.03605038754642009,0.013326162936515173,-0.010577033191733061
1773789891783445000,3.904445068359375,0.0116594581335783,-0.002467952739189786,0.0014116751625202594
1773789891803410200,3.92441015625,0.01794306844770908,0.016847410706599474,-0.0006187894854694604
1773789891823375000,3.944375,0.040241409495472905,0.0348017871412565,-0.00031198855862021445
1773789891843339300,3.96433935546875,0.055205169871449467,0.02476460786371026,0.009138890147395431
1773789891863304200,3.98430419921875,0.031710312515497205,0.007115991176286479,0.021639183019287883
1773789891883269400,4.004269287109375,0.043831542941927905,-0.005544591411654255,-0.003079991967231035
1773789891903234300,4.024234375,0.049966684696078296,-0.001983460011986608,0.0030462906270287927
1773789891923198200,4.0441982421875,0.045478141105175014,0.005724078447694773,0.0078041344122961155
1773789891943163100,4.0641630859375,0.03664659987390041,0.006014034983486636,-0.0025365692729130388
1773789891963128300,4.08412841796875,0.03634849371016025,0.0005890887523608398,-0.010817107291612773
1773789891983093200,4.10409326171875,0.02138181072473526,0.004075063994253287,-0.011124931131768972
1773789892003057200,4.12405712890625,0.03918985461592674,0.004908650432806462,0.0007898900023661554
1773789892023022000,4.14402197265625,0.04233165977299213,0.01704168431981816,0.004701875814329832
1773789892042987300,4.1639873046875,0.04981295543909073,0.00006846697831788333,0.005649257933348417
1773789892062951700,4.18395166015625,0.04053250139653682,-0.009071353894606,-0.014852445488609372
1773789892082915600,4.20391552734375,0.034844518887996674,0.01297175658334163,-0.022101850361283867
1773789892102880800,4.223880859375,0.03229834153652191,0.01763592731085373,0.010184088351391255
1773789892122845700,4.243845703125,0.027358547046780583,0.016798455856693907,0.009957366923429072
1773789892142810600,4.263810546875,0.04635784654915333,0.006069185537094017,0.0010593728598207236
1773789892162774500,4.2837744140625,0.04949497553110122,-0.015531552609859499,-0.014523980719223617
1773789892182739500,4.303739501953125,0.038565585237741465,-0.0016392725170837365,-0.011253014490846544
1773789892202704600,4.32370458984375,0.03960954133272171,-0.01481994972480461,-0.005541925101354718
1773789892222669600,4.343669677734375,0.03436930259168148,-0.0016360182599615654,-0.01153975901035592
1773789892242633500,4.363633544921875,0.030180618730187413,0.058471528423367995,-0.00784081316087395
1773789892262598400,4.383598388671875,0.05726560953259468,0.07156020194273442,0.06140466383239254
1773789892282563600,4.4035634765625,0.029582652837038037,0.00409174313229596,0.03819866988779977
1773789892302528500,4.423528564453125,0.04260229340791702,0.0008191474920691689,-0.007196816168911754
1773789892322492700,4.44349267578125,0.030334932509064674,-0.037060818114422724,-0.033362883761804546
1773789892342457600,4.46345751953125,0.06400339335501194,-0.007488175785567728,-0.009417031235340982
1773789892362422800,4.4834228515625,0.05054010066986084,0.03619299033790594,-0.01216495997030288
1773789892382386700,4.50338671875,0.044103930142521855,0.0030935153149737743,-0.01329290455430746
1773789892402351600,4.5233515625,0.035574586728215216,-0.018853448732808465,-0.015365509577281772
1773789892422316500,4.543316650390625,0.05592471631765365,-0.010675825382600306,-0.0009814122527837753
1773789892442281700,4.56328173828125,0.05173310984671116,-0.0019824316758691564,0.01675720139769837
1773789892462245600,4.58324560546875,0.04978314482271671,0.009784271953912684,0.023439802700467405
1773789892482210600,4.60321044921875,0.03601356266736984,0.008614234943984774,-0.005612579184770584
1773789892502175500,4.623175537109375,0.029576223096251485,0.012901997549069346,-0.011606120511144399
1773789892522140400,4.643140380859375,0.03017418898940086,0.016939517428353427,-0.00797711635902524
1773789892542104800,4.663104736328125,0.03945347398817539,0.02290976236081915,0.0016634762328118086
1773789892562069800,4.68306982421875,0.05097381591200828,0.010962372397643048,0.0030908421548083423
1773789892582034700,4.70303466796875,0.04678454752862453,-0.010405829926847946,-0.00246434428691864
1773789892601998600,4.72299853515625,0.03855506384372711,-0.011699100590799934,-0.014172902259230612
1773789892621963500,4.742963623046875,0.05231996982395649,0.0006865420798567356,-0.008266564292274415
1773789892641928700,4.7629287109375,0.03227086900770664,0.005793332875179476,-0.0044866621610708535
1773789892661893600,4.7828935546875,0.03915536782443523,0.0077623787714459465,-0.0069199537225998935
1773789892681857500,4.802857421875,0.035112814435362814,0.007089920586691004,0.0051417833352461455
1773789892701822500,4.822822509765625,0.04543722457289696,0.0018190615180457826,0.012378310460038483
1773789892721787600,4.84278759765625,0.048878304937481874,0.01106901795975864,0.014647479234728962
1773789892741752600,4.862752685546875,0.0342114816814661,0.006196580484649166,-0.013828143942169845
1773789892761716500,4.882716552734375,0.03137012077569962,-0.006940435963269555,-0.02662672564089298
1773789892781681700,4.902681640625,0.03167231859266758,-0.0015265813774938577,0.00001112418221309781
1773789892801646600,4.922646484375,0.03990238679945469,0.006650186595710692,0.007640011625457554
1773789892821611500,4.942611572265625,0.04244505701959133,0.012276573968480807,0.008155304203834384
1773789892841575700,4.96257568359375,0.03361585387587547,0.001590224337755353,0.0021974187127314507
1773789892861540600,4.98254052734375,0.024040216279029844,-0.0007784966775056091,-0.002807714364491403
1773789892881505500,5.002505615234375,0.04244505701959133,0.012504903973283944,0.0002104096139781177
1773789892901469700,5.0224697265625,0.04349252024590969,0.004950600153190317,-0.007716364797297865
1773789892921434600,5.0424345703125,0.03840601076185703,0.014380834505043457,-0.013610920994915067
1773789892941399600,5.062399658203125,0.03825695767998695,0.015605349640076746,-0.009299834596458821
1773789892961364500,5.082364501953125,0.04528875601291656,0.013676878353615756,-0.0023669300607405603
1773789892981328400,5.102328369140625,0.035113983479142186,0.004479302836400165,0.01391532903527841
1773789893001293600,5.12229345703125,0.037058103284239766,0.002239648135972675,0.0018556012714281676
1773789893021258500,5.142258544921875,0.03391571360528469,-0.010353059701638995,-0.0075675857100635764
1773789893041223400,5.162223388671875,0.03660977499485016,0.003294267188862432,-0.008334752423968165
1773789893061188000,5.18218798828125,0.0479839864462614,0.0054140957581374095,-0.012161489371582864
1773789893081153300,5.2021533203125,0.03601473171114921,-0.00449375291391625,-0.00043135888827964663
1773789893101118200,5.2221181640625,0.03930675899386406,0.008488543900570949,-0.00013489669235423207
1773789893121082000,5.24208203125,0.0521755929172039,0.008015773006380187,-0.016003551752492785
1773789893141047300,5.26204736328125,0.04170037613213062,0.0011625860683008795,-0.007580134664382785
1773789893161012200,5.28201220703125,0.03661269760429859,-0.004929109840589808,-0.001453979934286326
1773789893180977200,5.30197705078125,0.043944940188527105,0.006414039752277312,0.0013811886927112937
1773789893200941000,5.321941162109375,0.04184884469211101,0.005285980433018994,-0.005594203277863562
1773789893220906200,5.34190625,0.029430677145719526,-0.011856854144000681,-0.005983549655321985
1773789893240871200,5.36187109375,0.03406885834038258,0.0038534417206275975,0.003935348421242088
1773789893260835000,5.3818349609375,0.03885959974825382,-0.0027653482293433624,0.004710351381730288
1773789893280800000,5.401800048828125,0.03885667713880539,0.016010958740813656,0.002755089128110558
1773789893300765000,5.421764892578125,0.03301964154839516,0.01845148376072757,0.004784055938757956
1773789893320730000,5.441730224609375,0.0436444959372282,0.0006069865957106231,-0.00005288096470758319
1773789893340694300,5.4616943359375,0.03107844435274601,-0.0016608921209030085,-0.003360909534152597
1773789893360659200,5.4816591796875,0.028086276799440382,0.0034326467526130727,0.012034209730103612
1773789893380624100,5.5016240234375,0.03332300840914249,0.0017396159171650652,0.013546915847994386
1773789893400588000,5.521588134765625,0.05142798942029476,0.009620653773861704,0.005522782009467482
1773789893420553200,5.54155322265625,0.036165538358688354,0.005463188747005188,-0.011419292702153324
1773789893440518100,5.56151806640625,0.033623452660441394,0.004685671314911451,0.002104406667035073
1773789893460483000,5.581483154296875,0.055173021167516705,0.00020571174761862494,-0.0029208010838367043
1773789893480447000,5.601447021484375,0.04843874447643757,-0.0019746185475829404,-0.00842922577438876
1773789893500412200,5.621412109375,0.04679156179130077,0.005269818745262455,-0.014193981579877436
1773789893520377000,5.641377197265625,0.03631751405000686,0.015602342548948945,0.0034272345023229718
1773789893540341200,5.66134130859375,0.0369172335088253,0.012469536974024958,0.012653291476517914
1773789893560306200,5.68130615234375,0.04454875130057335,0.02872603600770235,0.02477738971346989
1773789893580271400,5.701271240234375,0.04215396511852741,0.009614722931641154,0.006685889238398522
1773789893600236300,5.721236328125,0.041105332848429675,-0.005728089614998316,-0.012407116429414599
1773789893620200200,5.7412001953125,0.04768821837007999,0.003854623322494444,-0.005022139010950923
1773789893640165000,5.7611650390625,0.021952304089069365,0.008035819138921214,-0.010179576573055236
1773789893660130300,5.78113037109375,0.0457446830868721,0.006648503811989212,-0.0034565884609706696
1773789893680094200,5.80109423828125,0.03272621155977249,0.007278850162867456,0.00507491037780419
1773789893700059100,5.82105908203125,0.031079028874635695,0.011795937144954222,-0.015523074759170412
1773789893720024000,5.841024169921875,0.046640170621871944,0.001819191380086704,-0.005742397843208164
1773789893739989000,5.860989013671875,0.04424363087415695,0.0028673647091694873,0.0027644962772727013
1773789893759953200,5.880953125,0.04289630791842937,0.004550889643222035,-0.005303476702980697
1773789893779918000,5.90091796875,0.04858019877374172,0.012350970361963845,-0.0035230412933044135
1773789893799883000,5.920883056640625,0.03615852409601211,0.00977425973326317,0.0011973930910229682
1773789893819847200,5.94084716796875,0.026731939581036566,0.009414010444481391,0.008347429242450743
1773789893839812000,5.96081201171875,0.04528583340346813,-0.00402110103614541,0.00135267498428002
1773789893859777300,5.98077734375,0.04483750511407852,0.0019959824230754747,-0.0055401167367585
1773789893879742200,6.0007421875,0.04438742325901985,0.009724099306960124,0.002445657852757722
1773789893899706000,6.0207060546875,0.027629180681705473,-0.0016726519135889246,0.0013562369145452976
1773789893919671000,6.040671142578125,0.03331657866835594,0.011846567928715376,-0.007985445795953273
1773789893939636200,6.06063623046875,0.04573533073663711,0.021036947376397438,-0.011096271292865275
1773789893959600000,6.08060009765625,0.039897710624337196,0.012967130640574032,0.010090528316423297
1773789893979565000,6.10056494140625,0.0427425786614418,0.006471242982364492,-0.004487338014505803
1773789893999530000,6.120530029296875,0.04019757035374641,-0.0017128220958955351,-0.0003925795141607523
1773789894019495200,6.1404951171875,0.052017772006988525,0.00009996922615682706,-0.0034855405608192084
1773789894039459300,6.160459228515625,0.03615618600845337,0.004528020224288047,-0.005283840420749038
1773789894059424300,6.18042431640625,0.03525836038589477,0.016637481724878306,-0.007521993002668022
1773789894079389000,6.200388916015625,0.05246668481826782,-0.002784564386466809,0.010423340467363595
1773789894099352800,6.220352783203125,0.04289163174331188,0.005865986548614455,0.003025741029344499
1773789894119318000,6.240318115234375,0.03600888649225235,0.01703719651601277,0.009282627733331173
1773789894139283000,6.260282958984375,0.0639876112639904,0.012022884618490933,0.0021087175159715116
1773789894159246800,6.280246826171875,0.042291327762603755,-0.001404569853709836,-0.01604253205601126
1773789894179211800,6.300211669921875,0.026277181550860403,0.006333868921844987,-0.012921696621738374
1773789894199176700,6.3201767578125,0.03540565990209579,0.015381684393947943,-0.008884604859072715
1773789894219142000,6.340141845703125,0.05021978267431259,0.015661282220040446,0.00755943893622607
1773789894239106000,6.36010595703125,0.04528057270646095,-0.0002400384234948433,0.014645908332150428
1773789894259071000,6.380071044921875,0.045131519624590874,-0.004470738220743078,0.0025184490943327546
1773789894279036000,6.400035888671875,0.039893034449219704,-0.0012528758631262461,-0.0005732150443829596
1773789894298999800,6.419999755859375,0.04228665158748626,0.010394823333999374,-0.019108769492525605
1773789894318965000,6.439965087890625,0.03719780401587486,0.007011084338463843,-0.006464611170534044
1773789894338930000,6.459929931640625,0.04258417322933673,0.013362954707880272,0.00940344110140577
1773789894358893800,6.479893798828125,0.03584814297258854,0.0006930594418445253,-0.004543360784370452
1773789894378858800,6.499858642578125,0.04138473431169987,0.004030360627779737,-0.0060326494940556585
1773789894398824000,6.519823974609375,0.03764145613014698,0.01407058923729346,0.0054622291949577625
1773789894418788900,6.539788818359375,0.05260463198423385,0.017259031706303357,0.006525364914443344
1773789894438752800,6.559752685546875,0.04691723399758339,0.014883572420879499,0.006596786182839423
1773789894458717700,6.5797177734375,0.031799744364619256,0.0013742463536269495,-0.011757219419628382
1773789894478683000,6.599682861328125,0.021476503270864485,-0.008832781057001556,-0.002880889198556542
1773789894498647000,6.61964697265625,0.04317570938169956,0.021293803647719323,0.015442410738393664
1773789894518612000,6.639612060546875,0.042133506852388376,0.004438197076576762,0.02086962341889739
1773789894538577000,6.659576904296875,0.06098959849178791,0.015130667633301344,0.018081161744147537
1773789894558540800,6.679540771484375,0.057695817643404,-0.007037156069703633,-0.018041852647066117
1773789894578506000,6.699506103515625,0.04093582150042057,-0.013602688597753876,-0.02922406692402437
1773789894598471000,6.719470947265625,0.028814591073989867,-0.00029085757856810233,-0.01618734735418111
1773789894618434800,6.739434814453125,0.03734393448829651,0.008667491509672253,0.008353694586455821
1773789894638399700,6.759399658203125,0.03988952731788158,0.007585971891769441,0.014571692318469285
1773789894658365000,6.779364990234375,0.039589083066582674,0.017421858726843494,-0.005574987120740115
1773789894678329900,6.799329833984375,0.039139585733413695,0.012075418523326515,0.0017690554991364477
1773789894698294000,6.8192939453125,0.045724809342622755,0.017975355290604057,0.0059208414163440465
1773789894718259000,6.839259033203125,0.04722293894588947,0.006164775986477616,-0.0004592515422031283
1773789894738223900,6.859223876953125,0.05740004956722259,-0.0032847413086914455,-0.012822620161436498
1773789894758188000,6.87918798828125,0.03974281232357025,-0.007403163812414277,-0.00891361175784841
1773789894778153000,6.899153076171875,0.04647475092709064,0.002889966412511421,-0.016328600722085685
1773789894798118000,6.919117919921875,0.02941664862036705,0.007806078632565913,0.012696290368027984
1773789894818081800,6.939081787109375,0.03615150983333587,0.001229903696203837,0.020709044296015052
1773789894838046700,6.959046630859375,0.029567455267906186,-0.003211234826952568,0.004852280603069812
1773789894858012000,6.979011962890625,0.03345627939999103,0.0023597856506123206,-0.013335592918563633
1773789894877976000,6.99897607421875,0.041237434795498844,-0.010309755991096608,-0.009730097506195306
1773789894897941000,7.01894091796875,0.044832828938961025,0.013977331738069186,0.005479344726540148
1773789894917906000,7.038906005859375,0.03660276073217392,0.022270021418866234,0.004111362575273961
1773789894937871000,7.05887109375,0.03061901014745235,0.010398601035040337,0.011507427643332629
1773789894957835000,7.0788349609375,0.02837444609105587,0.012471494894026545,0.008238598573114722
1773789894977800000,7.098800048828125,0.0496224013030529,0.00030836726285051553,0.008704626915976404
1773789894997764900,7.118764892578125,0.041243280014395714,-0.019513722147780934,-0.007645016594137996
1773789895017728800,7.138728759765625,0.03421265072524547,-0.001069417331922159,-0.02120797026148066
1773789895037694000,7.15869384765625,0.030472879675030706,0.007022493931755889,-0.022029186983872205
1773789895057659000,7.178658935546875,0.03780629130303859,0.01160469231410534,0.002770889485441148
1773789895077622500,7.19862255859375,0.047531566503643985,0.00479134305442567,0.019291523914597927
1773789895097587700,7.218587646484375,0.04693184704482555,0.022397164063027594,0.017836210539750753
1773789895117552600,7.238552734375,0.0336146848320961,0.0033677545480590193,-0.003429883117135614
1773789895137516500,7.2585166015625,0.05456453388035297,-0.005282682793412823,0.0013238324822857975
1773789895157481500,7.2784814453125,0.04214461276829243,0.015668884429539322,0.004318173726368695
1773789895177446400,7.2984462890625,0.05605974087417125,0.0007531989811119273,-0.0105891072220169
1773789895197410600,7.31841064453125,0.030471710631251335,0.00012560627632337854,-0.006855327521171421
1773789895217375500,7.33837548828125,0.04633446567356586,-0.00830496920705773,-0.0054118507145904
1773789895237340400,7.35834033203125,0.04334054455459117,0.013892595472018,0.019941000799275934
1773789895257304300,7.37830419921875,0.03690495854914188,0.013752355884265852,0.0033879436715506016
1773789895277269200,7.398269287109375,0.031218729606270788,-0.005891372151620453,0.0005373034807853401
1773789895297234400,7.418234375,0.0325642989963293,0.017939777087146648,0.0013470489610917864
1773789895317198600,7.438198486328125,0.043639819762110704,0.005595081202342408,0.006611947219353168
1773789895337163500,7.45816357421875,0.03750350896418094,0.01084118228694424,0.012364172336831689
1773789895357128400,7.47812841796875,0.03600830197036266,0.011854340243217302,0.005255984299443662
1773789895377093600,7.49809375,0.036005963882803915,0.009506421414445503,-0.002399115297291428
1773789895397057500,7.5180576171875,0.03750175539851188,0.001515956379257841,0.007812025457806885
1773789895417022500,7.5380224609375,0.031216976040601727,0.009078309933422133,-0.004604607718624174
1773789895436987400,7.5579873046875,0.029420740273594856,0.0042165191477906774,-0.007419135416392236
1773789895456951300,7.577951416015625,0.05426175154149532,0.009774531444610329,-0.0027012583153322336
1773789895476916500,7.59791650390625,0.048126025265455244,0.0007298651983524905,-0.0026737127212807534
1773789895496881400,7.61788134765625,0.04079144459366798,0.01244524849120644,0.0023948409809730945
1773789895516845600,7.637845458984375,0.029719430959224698,0.0028820399760268625,0.0036879677977412935
1773789895536810500,7.657810546875,0.041239188361167904,0.007797814269363879,0.0033568544135428964
1773789895556775700,7.677775634765625,0.04692483278214931,-0.0003124189585272688,0.00907190759209916
1773789895576739600,7.697739501953125,0.04752338319718837,-0.0009323478050238918,-0.01308262280449271
1773789895596704500,7.71770458984375,0.04168634760677814,-0.001991705538057431,-0.010770272475201636
1773789895616669400,7.73766943359375,0.0436316364556551,0.0020521244947711236,-0.000009772475343197584
1773789895636633300,7.75763330078125,0.041834231644868845,0.013355991819198243,0.000987878526188433
1773789895656598500,7.7775986328125,0.03599661153256893,0.01841498539195163,-0.0028261268040165304
1773789895676563500,7.7975634765625,0.034500235494971276,0.009357217064703582,-0.008949322392046452
1773789895696527400,7.81752734375,0.03838730606138706,-0.00483800890747807,-0.009840608675964176
1773789895716492300,7.8374921875,0.032252748829126356,-0.001518013622314902,0.008090696268714963
1773789895736457500,7.85745751953125,0.04871230072081089,0.005051845166870043,0.007817980274558068
1773789895756421600,7.877421630859375,0.0527507624566555,-0.0033934618093509924,-0.00644959626449272
1773789895776386600,7.897386474609375,0.04092880723774433,0.0031228004895514456,-0.0016488266529515385
1773789895796351500,7.9173515625,0.01953179894387722,-0.003207247348768578,-0.004401285432558507
1773789895816315400,7.9373154296875,0.04616963050067425,-0.0032792482870660023,-0.001212919453717768
1773789895836280600,7.957280517578125,0.04257891253232956,0.004005147127654345,0.004733914920408279
1773789895856245500,7.97724560546875,0.047215340161323546,-0.005709148594154976,-0.002488181820232421
1773789895876209400,7.99720947265625,0.041079613885283466,-0.0036899496922735125,-0.014726773282326758
1773789895896174300,8.01717431640625,0.039433015722036356,-0.002831606125910184,0.0053531975962221616
1773789895916139300,8.03713916015625,0.036442601734399796,0.014237583259586245,-0.0010293247814290225
1773789895936103700,8.057103759765624,0.044373979255557056,0.005036174386169295,0.010149930353462696
1773789895956068600,8.077068603515626,0.04527355844378471,0.008775056095462058,0.005293064906820654
1773789895976033500,8.097033447265625,0.042431613016128536,-0.0018860209550446596,-0.007189984569326043
1773789895995997400,8.11699755859375,0.0455745872169733,-0.004382705171318957,0.000710888215713203
1773789896015962400,8.13696240234375,0.04542378056943416,0.002510394508273748,0.0012053389354608952
1773789896035927600,8.156927490234375,0.046321606191992756,0.0014793193006975344,0.0039139585733413695
1773789896055891500,8.176891357421875,0.04033727108538151,-0.002008978901966475,-0.009930204921867698
1773789896075857400,8.196857421875,0.052907414323091505,-0.006557249327717,0.005026157598942518
1773789896095822300,8.216822265625,0.04258183514177799,-0.0027688405193053768,0.006528232724964618
1773789896115786200,8.2367861328125,0.03569967441260814,-0.0008853294692889903,-0.0011555997759103774
1773789896135751200,8.256751220703125,0.030911855614185333,0.013984679360885637,-0.0043214981946162875
1773789896155716400,8.27671630859375,0.03944061450660229,0.0007645109638149733,-0.016405794144142418
1773789896175680500,8.296680419921875,0.030012860947847365,0.0009795034234877675,0.005013316383678466
1773789896195645400,8.3166455078125,0.0422808063685894,0.01561687111451174,0.00976765303760767
1773789896215610400,8.3366103515625,0.04108487458229065,0.008235044063537497,0.01046427526595071
1773789896235574300,8.35657421875,0.03599661153256893,0.0025985348722635535,-0.0026927644816227255
1773789896255539500,8.37653955078125,0.0328565599411726,0.012770419616741127,0.005124412075337022
1773789896275504400,8.39650439453125,0.034656887361407276,0.011273830091656417,0.007012235115934163
1773789896295468300,8.41646826171875,0.04707739299535751,0.002546979356606607,0.0008263860878534614
1773789896315433200,8.43643310546875,0.032415830436348915,0.009634192533802707,-0.002148775531724095
1773789896335398400,8.4563984375,0.041244449058175085,-0.003693239340369473,0.0030869879635982214
1773789896355362300,8.4763623046875,0.04394026401340961,0.006275524618264171,-0.005855466296244412
1773789896375327200,8.4963271484375,0.033467969837784765,-0.0034802079402201343,-0.0004210018910467624
1773789896395292200,8.516292236328125,0.024938626423478126,0.008996335304970852,0.0028613990467973053
1773789896415256300,8.53625634765625,0.04154781591892242,-0.001452964727078506,0.010075001953728496
1773789896435221500,8.556221435546876,0.034516602107882495,0.008802833443309645,0.003267806156910956
1773789896455186400,8.5761865234375,0.035711949372291565,-0.0033128246172156647,-0.005644033768959343
1773789896475150300,8.596150390625,0.035411505120992656,0.009161929100510315,-0.004688504876103252
1773789896495115300,8.616115234375,0.027779402807354924,0.005871958490030374,-0.0049660066432319575
1773789896515080400,8.63608056640625,0.0541144520252943,0.0024675697175218373,-0.01566166124595329
1773789896535044400,8.65604443359375,0.05186696535944938,0.003907732901476265,-0.0027984350794926284
1773789896555009300,8.67600927734375,0.032115386185050006,-0.003885438015044201,-0.012251323079504071
1773789896574974200,8.69597412109375,0.03465805640518665,0.024580232306709512,0.007103036938235163
1773789896594938400,8.7159384765625,0.056952305799722665,0.009932520176540128,-0.00838109405003488
1773789896614903600,8.735903564453125,0.0377975234746933,0.003920956852997187,0.007681457880698144
1773789896634868500,8.755868408203124,0.03540215277075767,-0.00041170919172727735,-0.003022014702297747
1773789896654832400,8.775832275390625,0.04752162963151931,0.002848983950274123,0.004819236849993467
1773789896674797300,8.79579736328125,0.03898761004209518,-0.004353289278467128,0.0006983392613939941
1773789896694762500,8.815762451171874,0.052903907191753384,-0.003136389767253422,0.007123440405447035
1773789896714726400,8.835726318359375,0.029409634357690808,-0.0024112053105956872,0.003144691233895719
1773789896734691300,8.85569140625,0.04063420820534229,-0.012279583342897239,-0.0008324870350770652
1773789896754656300,8.87565625,0.05395078589618206,0.021793145171715878,-0.005413439883477985
1773789896774620400,8.895620361328126,0.03779050921201706,0.016015644049085676,-0.004097242718376219
1773789896794585300,8.91558544921875,0.03210486479103565,-0.0007453339080093428,0.009343692004494369
1773789896814550300,8.93555029296875,0.06098258422911167,0.0009404711751529248,0.003483385136350989
1773789896834514400,8.955514404296874,0.048860184758901595,0.004243092631707259,-0.000019179624505341053
1773789896854479400,8.975479248046875,0.06860942584574223,0.0009058459592881263,-0.0019861871148459612
1773789896874444300,8.9954443359375,0.027606968849897384,0.0007069669528995291,-0.008027567904628812
1773789896894408400,9.015408447265624,0.03523731759786606,-0.008101053265947847,-0.009602635201625525
1773789896914373400,9.035373291015626,0.04182078764140606,0.022670345848065335,0.011509930127672851
1773789896934338300,9.05533837890625,0.044213235735893246,0.005677203102910425,0.012493479538615793
1773789896954302200,9.07530224609375,0.027902736926078794,-0.002214904707894311,0.03344531961455941
1773789896974267100,9.09526708984375,0.028056466183066366,0.0022944462068975554,0.033260793360508974
1773789896994232300,9.115232421875,0.05080138195455074,0.0037283449030801417,0.003913447116687893
1773789897014196500,9.135196533203125,0.04541442821919918,0.00815109496124205,-0.025258597359154374
1773789897034161400,9.155161376953124,0.0319458748370409,0.017268662617751396,-0.03432876965189353
1773789897054126300,9.175126220703126,0.057983402413129805,-0.00835895300017437,-0.013262363285571337
1773789897074089700,9.19508984375,0.03718202192485332,0.0003390064275867189,-0.005538417970016599
1773789897094055000,9.215054931640625,0.04660743739604949,-0.0077731798683176746,0.00965133318156004
1773789897114019800,9.235019775390626,0.04840075055360794,0.0014075900737472692,0.00917931348932907
1773789897133983700,9.254983642578125,0.03822656254172325,0.01389937341432087,0.012114928549807518
1773789897153948700,9.27494873046875,0.035681554234027864,0.004501364827391808,-0.005784940076991915
1773789897173913900,9.294913818359374,0.02670388253033161,0.019196968365786597,-0.0064166803755797445
1773789897193878000,9.3148779296875,0.04510930779278278,0.009560889835574198,-0.010622224040329456
1773789897213843000,9.334843017578125,0.04511106135845184,0.015682559045153904,-0.0130876095068641
1773789897233808000,9.354807861328124,0.05124386502504349,0.008556564781372435,-0.004735905948095023
1773789897253771800,9.374771728515626,0.051091304811835284,0.006337393177847843,0.005729593160562217
1773789897273737000,9.394737060546875,0.024603110858798027,-0.00120173019777867,-0.005232292896602302
1773789897293702000,9.414701904296875,0.03776946642398834,-0.0036048375398313507,-0.00724343178961426
1773789897313665800,9.434665771484376,0.04450315859317779,-0.004983155282499502,0.014439480773545801
1773789897333630700,9.454630615234375,0.025946342161297795,-0.0072603503875521705,-0.0029769699841737745
1773789897353596000,9.474595947265625,0.03193067726790905,0.011356245394813594,-0.003968428706936538
1773789897373560000,9.49456005859375,0.04195464315414429,0.011999229748267679,0.00436100822109729
1773789897393525000,9.51452490234375,0.037167408877611156,0.023513936515757814,0.0028054310758598147
1773789897413490000,9.534489990234375,0.02549392221868038,0.006052774400054477,0.010207158699724822
1773789897433453800,9.554453857421874,0.04434416863918304,0.00901584714797209,0.008468735800869763
1773789897453419000,9.5744189453125,0.03701192605495453,-0.0028414710744429613,-0.0020102621101774276
1773789897473384000,9.594384033203125,0.04943301621079445,0.005449839500020607,-0.004741732900682837
1773789897493347800,9.614347900390625,0.050632455128431314,0.017263742130750322,0.0009532821368426084
1773789897513312800,9.634312744140624,0.023252280771732328,0.009761547523806802,0.0027393801023252308
1773789897533277700,9.654277587890626,0.05048983178734779,0.0028688656860336777,0.011984908961970358
1773789897553241900,9.674241943359375,0.04824526773095131,-0.0076115390162216495,0.010495327991340309
1773789897573206800,9.694206787109374,0.04615151032209396,0.0024169917348102897,-0.006613353725150227
1773789897593171000,9.7141708984375,0.0430085361212492,0.008133521059466875,-0.009570157704129814
1773789897613136000,9.734135986328125,0.030139702197909353,0.0013892181625953526,-0.002697458923049271
1773789897633100800,9.754100830078125,0.026251462587714193,0.020208675292134284,-0.003996978947985917
1773789897653065000,9.77406494140625,0.04734978019595146,0.009641011575300944,-0.003074274612497538
1773789897673030000,9.79402978515625,0.043459202498197555,0.002000334371207282,0.015179412420652806
1773789897692994800,9.813994873046875,0.041812019813060756,-0.0024780046319792743,0.0034079270136542616
1773789897712958700,9.833958740234374,0.032683541461825366,0.0028616901660978326,0.0034354178087785837
1773789897732923600,9.853923583984376,0.052284313988685605,0.006703739418098121,0.005317669625114649
1773789897752888800,9.873888916015625,0.04165478342473507,0.009210327398811932,0.007372738991398364
1773789897772853000,9.89385302734375,0.024442951861023902,0.0047828252461855295,-0.005491053430642932
1773789897792818000,9.91381787109375,0.041352585607767105,-0.00007091980113036698,-0.022130254471860823
1773789897812782800,9.933782958984375,0.031627894929051395,0.014986924339144024,0.012525317715294658
1773789897832746800,9.953746826171875,0.036864626538753505,0.009164759807591325,0.02435518224602565
1773789897852712000,9.9737119140625,0.04718962119817734,0.006257190381374675,-0.006013305472768843
1773789897872676900,9.9936767578125,0.04703823002874851,0.004004313156481657,0.005284023083839565
1773789897892640800,10.013640869140625,0.03641396016180515,0.0026073874676993,-0.011449815704580396
1773789897912605700,10.033605712890624,0.05167641122341156,0.007307897019194206,-0.019219262395985422
1773789897932571000,10.05357080078125,0.03760813838243484,-0.003433327172625286,0.011557641726918517
1773789897952535000,10.07353515625,0.03192307848334312,0.015507534696743822,-0.0077798219549469645
1773789897972500000,10.0935,0.04404138630032539,0.018015899646835167,0.0008641973475925624
1773789897992465000,10.11346484375,0.05481295568346977,0.011167351209610933,0.001272412822302431
1773789898012428800,10.1334287109375,0.02787818700671196,-0.0011622912386563256,0.01832887116121128
1773789898032394000,10.15339404296875,0.05167173504829407,-0.00028264801429322685,0.020528500097338108
1773789898052359000,10.17335888671875,0.057504094463586806,-0.0027005490688010465,0.006628953153081238
1773789898072323000,10.193322998046876,0.022189035454392433,-0.003560665894197882,-0.018482600418198852
1773789898092288000,10.2132880859375,0.03835106570422649,0.01533026359232026,-0.013163250292651354
1773789898112253000,10.2332529296875,0.049423079338669774,0.004128386489900004,0.003055168053228408
1773789898132216800,10.253216796875,0.03595394143462181,0.004605489638858125,0.0001422397485934198
1773789898152182000,10.27318212890625,0.02981704611480236,-0.006887848401151132,-0.010688640340045094
1773789898172147000,10.29314697265625,0.04462590819001198,0.0013482802244863706,0.00842294216407463
1773789898192111000,10.313111083984374,0.0694599051952362,-0.003364481453805638,0.00675122782588005
1773789898212076000,10.333075927734376,-0.003417699488997459,0.011597318433469627,-0.011150832758005708
1773789898232041200,10.353041259765625,0.01080021095573902,0.005637238131169579,-0.022943214822560547
1773789898252005000,10.373005126953124,0.0434223776191473,0.004216029096968122,0.015610095455497502
1773789898271970000,10.392969970703126,0.03609071955680847,0.003917229384306119,0.019768201515637338
1773789898291935000,10.41293505859375,0.04536708194613456,0.018988620561442803,0.025192929978109894
1773789898311899000,10.43289892578125,0.03638882572054863,0.015180743577925022,-0.006655475833825766
1773789898331864000,10.452864013671874,0.03130173171460628,0.029492686698376198,-0.02016328351413831
1773789898351829000,10.4728291015625,0.05195113651156425,0.026501471276429947,-0.02418525077290833
1773789898371793200,10.492793212890625,0.03563946865797043,0.004853099732866394,0.0044725423041731115
1773789898391758000,10.512758056640624,0.0206786308914423,-0.010049417704611551,0.036941125841066236
1773789898411723300,10.53272314453125,0.03623977263867855,-0.0011644269697600974,0.01079885924886912
1773789898431687200,10.552687255859375,0.04087970739901066,-0.0016572639752674148,0.00956445861570537
1773789898451652000,10.572652099609375,0.04117956712841987,0.006168792862002738,0.008772394922561943
1773789898471617000,10.592616943359374,0.04656768990755081,0.013110143282369244,0.003939513139706105
1773789898491581000,10.612580810546875,0.0322071561217308,-0.013616715981462038,-0.01215531535912305
1773789898511546000,10.632546142578125,0.041187165912985796,-0.009725061713118339,-0.01898559977058321
1773789898531511000,10.652510986328124,0.034305005183815955,0.008021864249627106,-0.0103504578942433
1773789898551475000,10.672474853515626,0.04507891265451908,0.015224700309016043,0.02107722002128139
1773789898571439900,10.69243994140625,0.037000235617160794,0.013860986765846609,0.018732848852220922
1773789898591404800,10.71240478515625,0.042238136270642275,0.0026501292038272365,0.007052768055722117
1773789898611369200,10.732369140625,0.04253565791249275,0.000715007839226746,0.007118106643203646
1773789898631334100,10.752334228515625,0.045079497176408766,-0.009129459023702656,0.00324818814098835
1773789898651299000,10.772299072265625,0.04552840998768806,-0.011530194314278196,-0.015466065608616917
1773789898671263000,10.792262939453124,0.03594868073761463,0.0022017835043618107,-0.028179398442991076
1773789898691228000,10.812227783203125,0.048369186371564864,0.014095298986864508,-0.014584095142316072
1773789898711193000,10.832193115234375,0.03520341532826424,0.01676259224215755,0.006994261067826301
1773789898731157000,10.852156982421874,0.04103694378733635,0.00515857349819853,0.012626896659936755
1773789898751122000,10.872121826171876,0.03475041086375713,-0.01464948282050318,-0.0050825456949882206
1773789898771086800,10.8920869140625,0.029063012877106664,0.005414300683292094,0.007993921363353728
1773789898791051000,10.912051025390625,0.03235504015982151,0.005905466321521089,0.0029054025853052735
1773789898811016200,10.93201611328125,0.04791851999461651,0.005811732756617129,-0.012423811835888773
1773789898830981000,10.951981201171876,0.04028700220286846,0.004189517261844594,-0.008367540448717773
1773789898850945000,10.971945068359375,0.03325637291371822,-0.005893056076986249,-0.006393336032610386
1773789898870910000,10.991909912109374,0.02891863597035408,0.013387381329661002,0.0023626192118041214
1773789898890875100,11.011875244140626,0.050615503993630406,0.012606673572526778,0.0008779701446183025
1773789898910839000,11.031839111328125,0.04058686193227768,0.007281221358111361,0.007910955787636339
1773789898930804000,11.051803955078125,0.03175707426667213,0.011214033045683754,-0.006854669934045523
1773789898950769000,11.071768798828124,0.049263504862785336,-0.008233001091034383,0.0018824344794265925
1773789898970732800,11.09173291015625,0.0200859256953001,-0.0010434355051722377,0.008547828919067978
1773789898990698000,11.111697998046875,0.05794365492463111,0.023018241403705904,0.01589212726727128
1773789899010663000,11.131662841796874,0.040888475227355954,0.004672864919799031,-0.0019331052207387982
1773789899030627000,11.151626953125,0.048372108981013295,0.003557820345740765,-0.009040672203619033
1773789899050592000,11.171592041015625,0.042832010510563845,-0.0009382869241657317,-0.012457220915146172
1773789899070557200,11.19155712890625,0.0488204372704029,0.007261232878608279,0.0029431225134991107
1773789899090521000,11.21152099609375,0.042086745101213456,0.003878473984717857,-0.006772361945454031
1773789899110486000,11.231486083984375,0.047475452402234074,0.014600315624754875,0.005264715595170855
1773789899130451200,11.251451171875,0.03639993163645267,0.016298440762551034,-0.00286892476612702
1773789899150415000,11.2714150390625,0.030264789882302284,-0.00507315681213513,-0.0037647958936169743
1773789899170380000,11.291380126953126,0.03939268371164799,0.004896267016913043,0.0032876799011602995
1773789899190345000,11.311344970703125,0.03789630767405033,0.012056268581573385,-0.0031553222257643936
1773789899210309000,11.33130908203125,0.04911737439036369,-0.012933846000547054,0.005145473129674792
1773789899230274300,11.3512744140625,0.04537468073070049,0.002769021755340509,-0.008537800715398043
1773789899250239200,11.3712392578125,0.02637012053132057,0.01878811699519283,-0.0008763992420397699
1773789899270203100,11.391203125,0.041783378240466115,0.00803565759625053,-0.00523099598865956
1773789899290168000,11.41116796875,0.028766660279035565,0.009606958608649437,0.017431136870197952
1773789899310133200,11.43113330078125,0.05734685807526111,-0.0001933334691246273,0.001895805417653173
1773789899330097200,11.45109716796875,0.05375029488801956,0.005839204714610241,-0.008035477216448634
1773789899350062000,11.47106201171875,0.03429682187736034,0.012134047667164123,0.002017239840235561
1773789899370027000,11.491027099609376,0.031153263154625892,0.015328712097695096,-0.005537358524091541
1773789899389991200,11.5109912109375,0.044321372285485265,0.01440845316433115,-0.0007645911643281579
1773789899409956000,11.5309560546875,0.038033670318126676,-0.004575899930659216,-0.009896814108919351
1773789899429921000,11.550921142578124,0.04222293870151043,0.0020686326715775066,0.00032035452816635366
1773789899449885200,11.57088525390625,0.04267068246901035,0.012280543465766822,0.00831310684774071
1773789899469850000,11.59085009765625,0.030399814438819884,0.008874913440475939,0.007278539635613561
1773789899489815300,11.610815185546874,0.051496963003277774,0.022407445711735634,0.00124526908705011
1773789899509779200,11.630779296875,0.03757891228795052,0.003916428235407511,-0.010652473048120736
1773789899529744100,11.650744140625,0.02560907303094864,-0.004246062048572639,-0.0015674319798126815
1773789899549709000,11.670708984375,0.043566170004010196,-0.004811045552027644,0.014865378035418689
1773789899569673000,11.6906728515625,0.03025193040072918,0.005838793722656555,0.0028765783496201036
1773789899589638100,11.71063818359375,0.04132745116651058,0.003097581566615554,0.00005335588874295354
1773789899609603000,11.73060302734375,0.05120528658032417,0.006769328596506966,0.004783453150559216
1773789899629567200,11.750567138671874,0.03340016529858112,-0.011583368681574939,-0.01640528268748894
1773789899649532200,11.7705322265625,0.03340074982047081,0.0008353171713359188,-0.003737980951927602
1773789899669497300,11.790497314453125,0.03759469437897205,0.01336098422979121,-0.0025792941697873172
1773789899689461200,11.810461181640624,0.04657119703888893,0.0023294042120804077,0.00618570289760828
1773789899709426200,11.83042626953125,0.03938800753653049,0.013715113163396016,0.008475640465691684
1773789899729391000,11.85039111328125,0.0296627323359251,0.005746978120203129,-0.002368701892718673
1773789899749355000,11.87035498046875,0.03998597342967987,-0.001229854320087179,-0.01873728756532073
1773789899769320200,11.8903203125,0.032656068933010096,0.01445289851918933,0.005831829692330211
1773789899789285000,11.91028515625,0.03355447907745838,0.006748534116116934,-0.01633479300085455
1773789899809249300,11.930249267578125,0.04223404461741447,0.006078446555783739,-0.009924177039880305
1773789899829214200,11.950214111328124,0.03804477623403072,0.0018979414341680238,0.008875471704546362
1773789899849179100,11.97017919921875,0.03310731983184814,0.003408883426179818,0.02187313790563494
1773789899869143300,11.990143310546875,0.05629647223949432,-0.005717108138324692,0.0017464966074563562
1773789899889108200,12.010108154296875,0.042378421524167056,-0.0006193497474174364,0.008720244610216468
1773789899909073200,12.0300732421875,0.03070493486523628,0.004531498243696115,-0.010955602446850388
1773789899929037000,12.050037109375,0.040431963631510734,0.013514534248621202,-0.011574611128028482
1773789899949002000,12.070001953125,0.05075754281282425,0.003787099627792486,-0.014154672482796013
1773789899968967200,12.08996728515625,0.050608489730954165,0.007259136248822323,0.0176994689501822
1773789899988931000,12.10993115234375,0.03384907810986042,-0.0018677106926857957,0.004525423268880695
1773789900008896000,12.12989599609375,0.045370004555582995,-0.009315745693288045,0.016859748456720263
1773789900028861000,12.14986083984375,0.04342296214103698,0.014282537787809269,-0.0062397163734771305
1773789900048825300,12.169825439453126,0.01963058314323425,0.0020381818781534094,-0.0023557510796003043
1773789900068790300,12.189790283203125,0.04417231920361519,0.0072163074623153075,-0.002110489347949624
1773789900088755200,12.209755126953125,0.03953530705273151,-0.0060469554389768745,-0.017604118816927073
1773789900108719000,12.229718994140624,0.037888124367594714,-0.005724471744161565,-0.002000982825178653
1773789900128684000,12.24968408203125,0.03669160805940628,0.0012824221888411557,0.0009636574003845453
1773789900148649200,12.269649169921875,0.02681494168937206,0.004791184365865774,-0.0024584077364765105
1773789900168613000,12.289613037109374,0.04357552235424518,0.002076539700108697,-0.005639869050495326
1773789900188578000,12.309578125,0.023973580783605574,0.011254264591372338,0.013317399674747139
1773789900208543000,12.32954296875,0.046719081076979634,-0.0037517748693731844,0.0008845094832591712
1773789900228508200,12.349508056640625,0.03938742301464081,0.001667627251544036,0.013280501730460673
1773789900248472300,12.369472412109374,0.03909048589468002,0.004192274903689394,0.009870072232466191
1773789900268437200,12.389437255859375,0.041187750434875485,-0.0004980623115407069,-0.017494904555100946
1773789900288402200,12.409402099609375,0.03310848887562751,0.00662779095916776,-0.008102368440199643
1773789900308366000,12.429365966796874,0.05211188003122806,-0.006375034332583891,-0.0010538381681777537
1773789900328331300,12.449331298828126,0.029963176587224007,0.0014246134175511542,0.0065296574970707295
1773789900348296200,12.469296142578125,0.04627133730947971,0.0029747700355772394,0.005303586300835013
1773789900368260000,12.489260009765625,0.035945758128166194,-0.0031276955749664917,-0.006494275656435638
1773789900388225000,12.50922509765625,0.03235445563793182,0.0014361428834963588,-0.007680234037991613
1773789900408190200,12.529190185546875,0.04746902266144752,0.009426272275255177,-0.005345872806292027
1773789900428154000,12.549154052734375,0.0455225647687912,0.012397087084100348,0.012365962435118854
1773789900448119000,12.569119140625,0.02606558462679386,-0.002808590005681617,0.002389105359930545
1773789900468084200,12.589084228515626,0.03145195384025574,0.003160211032135703,-0.011648553147073835
1773789900488048000,12.609048095703125,0.030702596777677536,0.009141675759525968,-0.0012735635997727513
1773789900508013300,12.629013427734375,0.030105215406417845,0.002123791787517257,0.00257688301699236
1773789900527978200,12.648978271484374,0.036839492097496984,-0.000024843607367074582,0.010469572495575993
1773789900547942100,12.668942138671875,0.03609247312247753,-0.005011021678603719,0.010108885957021266
1773789900567907000,12.688906982421875,0.02607026080191135,0.008378221672936342,-0.002173142788000405
1773789900587872000,12.7088720703125,0.03071019556224346,0.0025881247885699847,0.003298694485519081
1773789900607836200,12.728836181640625,0.03804828336536884,0.008247553060305654,0.0004893361532129347
1773789900627801000,12.748801025390625,0.05975158112943172,0.003108593011452467,-0.0051802156494930385
1773789900647766000,12.76876611328125,0.05616203220486641,-0.0006975786408685963,-0.004824698476400226
1773789900667730200,12.788730224609376,0.033413609302043915,-0.00052834328537283,-0.02469763900814578
1773789900687695400,12.8086953125,0.03386135306954384,-0.0021635244346398393,0.006169025757443159
1773789900707660300,12.828660400390625,0.024434184032678604,0.013233475117804481,0.007062083873338997
1773789900727624200,12.848624267578124,0.03266425223946571,0.0032912914929533145,0.027261680809874084
1773789900747589000,12.868589111328125,0.053012628263235086,0.006690579113247804,0.03127796724652871
1773789900767554000,12.888553955078125,0.05495265641510486,0.0006794613163991016,-0.002283562626224011
1773789900787518200,12.908518310546874,0.041184243303537364,-0.000428717123332899,-0.02059250524425879
1773789900807483100,12.928483154296876,0.04687164129018783,0.013337585087894694,-0.009577592091914265
1773789900827448000,12.948447998046875,0.05839549034535885,0.010059012083441484,-0.0035182737866416573
1773789900847413000,12.9684130859375,0.0477706359565258,0.00587328964730259,0.0011259352900087833
1773789900867377200,12.988377197265624,0.039836920347809786,0.009704280361637938,0.003967570190411061
1773789900887342300,13.00834228515625,0.04986322432160377,0.010414459616231032,0.023834702035877852
1773789900907307300,13.028307373046875,0.0380412691026926,0.009735409577196695,0.02343483426440507
1773789900927271200,13.048271240234374,0.0366951151907444,-0.005410939111604239,-0.003384199078194797
1773789900947236000,13.068236083984376,0.034299744486808774,0.0018571539076976478,0.00324711042875424
1773789900967201300,13.088201171875,0.03549918340444565,0.007634637905663112,-0.0010611446917988359
