time,seconds_elapsed,z,y,x
1773789887950215700,0.071215576171875,-0.0000784627627581358,0.00008040294051170349,0.0006657005287706852
1773789887970180600,0.0911806640625,0.0005969245685264468,0.000009000534191727638,0.00033409614115953445
1773789887990145800,0.111145751953125,-0.0013356893323361874,0.00003838096745312214,0.001004593912512064
1773789888010109700,0.131109619140625,-0.0003417806001380086,-0.0013141429517418146,-0.0006491430103778839
1773789888030074600,0.15107470703125,0.0010759819997474551,0.00036407122388482094,0.001636037603020668
1773789888050039600,0.17103955078125,-0.0009354625944979489,0.00042892247438430786,-0.0011237896978855133
1773789888070004700,0.191004638671875,-0.0003322568372823298,-0.0009684870019555092,0.00025302357971668243
1773789888089968600,0.21096875,0.0005158447893336415,-0.0002516061067581177,0.0007743863388895988
1773789888109933600,0.23093359375,0.0005007920553907752,-0.0015376107767224312,0.001216835342347622
1773789888129898800,0.250898681640625,-0.00034612376475706697,-0.0008639413863420486,-0.000031107570976018906
1773789888149862700,0.270862548828125,-0.0001980901142815128,-0.0002837441861629486,0.001402903813868761
1773789888169827600,0.29082763671875,0.00022059734328649938,-0.0007722720038145781,-0.002041569445282221
1773789888189792500,0.31079248046875,0.00017396692419424653,0.0005012822803109884,0.0006552916020154953
1773789888209757700,0.3307578125,0.0016233979258686304,-0.00011556548997759819,-0.0001493259333074093
1773789888229721900,0.350721923828125,-0.0018263375386595726,0.00010014325380325317,0.0005321837961673737
1773789888249686800,0.370686767578125,0.000022162057575769722,0.00033029355108737946,0.0002469155006110668
1773789888269651700,0.390651611328125,0.0011097928509116173,-0.00010537728667259216,-0.000495698768645525
1773789888289615600,0.41061572265625,-0.00017097457021009177,-0.000884875888004899,0.0002474626526236534
1773789888309580800,0.430580810546875,0.00001859652911662124,0.0014187811175361276,0.0006566019728779793
1773789888329545700,0.450545654296875,0.00019539058848749846,-0.0007291941437870264,-0.000151150394231081
1773789888349509600,0.470509521484375,0.0012173515278846025,-0.000026101944968104362,0.00008530635386705399
1773789888369474600,0.490474609375,-0.0005978267872706056,-0.000787599477916956,-0.00024577509611845016
1773789888389439700,0.510439697265625,0.0002030414470937103,0.00022392370738089085,-0.0005816114135086536
1773789888409404700,0.53040478515625,-0.0013096043840050697,0.001036675414070487,0.0011221468448638916
1773789888429368800,0.550368896484375,-0.0008696196600794792,-0.0008813224267214537,0.0008219066075980663
1773789888449333800,0.570333740234375,-0.0015689053107053041,-0.0016344578471034765,-0.00017505697906017303
1773789888469299000,0.590298828125,-0.0011632749810814857,-0.0015323162078857422,0.0012750369496643543
1773789888489262800,0.610262939453125,-0.0006808553589507937,-0.019909804686903954,0.015797628089785576
1773789888509227800,0.630227783203125,0.00037544622318819165,0.00791836716234684,-0.030611934140324593
1773789888529192700,0.650192626953125,0.00022285646991804242,0.005587838590145111,0.012461015023291111
1773789888549156600,0.670156494140625,0.007875348441302776,-0.0020594343077391386,0.014791218563914299
1773789888569121800,0.690121826171875,0.00785641185939312,-0.000490846112370491,0.014565776102244854
1773789888589086700,0.710086669921875,0.00019457080634310842,-0.0022418824955821037,0.0004983493126928806
1773789888609051600,0.7300517578125,-0.01143407542258501,0.002364344196394086,-0.0037302523851394653
1773789888629015800,0.750015869140625,-0.00900354702025652,-0.0025609303265810013,-0.0055656833574175835
1773789888648980700,0.769980712890625,0.0015053973766043782,-0.003973193466663361,-0.0038630161434412003
1773789888668945700,0.789945556640625,0.005666439887136221,-0.00009854580275714397,0.0012344284914433956
1773789888688909800,0.809909912109375,0.004296399652957916,0.0007126424461603165,0.002492929808795452
1773789888708874800,0.829874755859375,0.0008023789850994945,-0.00033582141622900963,0.004094788338989019
1773789888728839700,0.849839599609375,-0.0030181840993463993,-0.0015521266032010317,0.0019084629602730274
1773789888748804900,0.869804931640625,-0.0013752427184954286,-0.0019840726163238287,-0.0008160322904586792
1773789888768768800,0.889768798828125,0.0031902422197163105,-0.0027127000503242016,-0.00042334292083978653
1773789888788733700,0.909733642578125,0.004097690340131521,-0.0030285846441984177,0.0016613062471151352
1773789888808698600,0.92969873046875,0.0003362883871886879,-0.0013052299618721008,0.0013092011213302612
1773789888828662500,0.94966259765625,-0.0017594636883586645,0.00034352228976786137,0.002066762186586857
1773789888848627700,0.969627685546875,0.000007001690391916782,0.0007443232461810112,0.0014062519185245037
1773789888868592600,0.989592529296875,0.0005720326444134116,-0.0012317437212914228,0.0008006333373486996
1773789888888556800,1.009556884765625,0.001720672706142068,-0.0023561210837215185,0.00018127495422959328
1773789888908521700,1.029521728515625,0.0005601590382866561,-0.0009374534711241722,0.001707281917333603
1773789888928487000,1.04948681640625,-0.00043351316708140075,-0.0011561228893697262,0.0013595083728432655
1773789888948451800,1.069451904296875,-0.0003046425408683717,-0.0004159989766776562,0.003646673634648323
1773789888968415700,1.089415771484375,-0.00039614466368220747,-0.0009323754347860813,0.0020781802013516426
1773789888988380700,1.109380615234375,0.0011256944853812456,-0.0007766142953187227,0.00009192060679197311
1773789889008345900,1.129345947265625,0.0005800407961942255,0.000578948762267828,-0.00005654525011777878
1773789889028309800,1.149309814453125,-0.0006934828124940395,-0.00025755027309060097,-0.0006698714569211006
1773789889048274700,1.169274658203125,-0.0017296269070357084,-0.0005560889840126038,0.0019112802110612392
1773789889068239600,1.189239501953125,-0.00202002190053463,-0.0000226686242967844,0.0006403112784028053
1773789889088204500,1.20920458984375,-0.00029741626349277794,0.0003565575461834669,0.0005608722567558289
1773789889108169000,1.2291689453125,0.00106464431155473,-0.0006309268064796925,-0.00003418978303670883
1773789889128134000,1.2491337890625,-0.00012636813335120678,0.001251904177479446,0.0008231168612837791
1773789889148098800,1.269098876953125,0.0022976878099143505,-0.00012412713840603828,-0.0003242082893848419
1773789889168062700,1.289062744140625,0.0008440877427347004,-0.00029912078753113747,0.0010199248790740967
1773789889188027600,1.309027587890625,0.0002216976135969162,0.00046440260484814644,0.0009722081013023853
1773789889207992800,1.328992919921875,-0.0012071894016116858,0.0017594007076695561,0.0007108910940587521
1773789889227957800,1.348957763671875,-0.0013740949798375368,0.00016154255717992783,0.0007589301094412804
1773789889247921700,1.368921630859375,-0.002907094545662403,0.00009278953075408936,-0.001214353833347559
1773789889267886600,1.388886474609375,0.000012594326108228415,0.00032079010270535946,0.00045656878501176834
1773789889287851800,1.408851806640625,0.00022522357176057994,0.0008115749806165695,0.0021244357340037823
1773789889307815700,1.428815673828125,-0.0003725437563844025,-0.00002832873724400997,-0.0004468252882361412
1773789889327780600,1.448780517578125,0.0006070290692150593,-0.0007003031205385923,-0.0005528545007109642
1773789889347745500,1.46874560546875,0.0005981954163871706,-0.000460595590993762,0.00024976907297968864
1773789889367710700,1.488710693359375,0.0002201916358899325,0.0004198388196527958,0.0009921970777213573
1773789889387675000,1.5086748046875,-0.0005533460644073784,0.0010851079132407904,0.0010948358103632927
1773789889407639800,1.528639892578125,-0.0013505315873771906,0.00029920251108706,-0.00002029072493314743
1773789889427604700,1.548604736328125,-0.0019938687328249216,-0.0004345015622675419,0.0012990087270736694
1773789889447570000,1.56856982421875,-0.0021449709311127663,0.0002677673473954201,-0.0009402381256222725
1773789889467533800,1.588533935546875,-0.0012735940981656313,0.0006792210042476654,-0.0008404157124459743
1773789889487498800,1.608498779296875,0.0000928286463022232,0.00012903474271297455,0.00025276001542806625
1773789889507463700,1.628463623046875,-0.0008173572132363915,-0.0004360913299024105,-0.0002079978585243225
1773789889527427600,1.648427490234375,0.00012177454482298344,0.0007088081911206245,0.0010794359259307384
1773789889547392800,1.668392822265625,0.00011007378634531051,-0.000516816508024931,-0.0005651507526636124
1773789889567357700,1.688357666015625,-0.00044311932288110256,0.000694407382979989,-0.0004723058082163334
1773789889587322600,1.708322509765625,-0.0004412457346916199,-0.00020280666649341583,0.0000177617184817791
1773789889607286800,1.728286865234375,-0.001379285822622478,0.0004336484707891941,-0.00008034054189920425
1773789889627251700,1.748251708984375,-0.0010949597926810384,0.000024629058316349983,0.00041085993871092796
1773789889647217000,1.768216796875,-0.00046370812924578786,0.0013535431353375316,-0.0003052949905395508
1773789889667181800,1.788181884765625,-0.00044667324982583523,0.0006299572996795177,0.0005615181289613247
1773789889687145700,1.808145751953125,-0.0003642818774096668,0.0009553527925163507,0.0004610051400959492
1773789889707110700,1.828110595703125,-0.0007426517549902201,0.00012874393723905087,0.00030765822157263756
1773789889727075800,1.848075927734375,-0.00033875141525641084,0.0005529788322746754,-0.0018162732012569904
1773789889747039700,1.868039794921875,-0.000046850211219862103,0.00014872080646455288,0.0012294081971049309
1773789889767004700,1.888004638671875,-0.0012189713306725025,-0.00040200771763920784,0.0004758560098707676
1773789889786969600,1.907969482421875,-0.0013598260702565312,0.000711426604539156,0.0009221644140779972
1773789889806934800,1.927934814453125,-0.0014072209596633911,0.00053779361769557,0.0015070396475493908
1773789889826898700,1.947898681640625,-0.00030187045922502875,0.00035885581746697426,0.0011485554277896881
1773789889846864000,1.96786376953125,-0.00026349449763074517,-0.000783407362177968,-0.00042833946645259857
1773789889866828800,1.987828857421875,-0.0008429797599092126,0.0005324708763509989,0.00014725979417562485
1773789889886793700,2.007793701171875,0.0008708284003660083,0.00002113007940351963,0.0003340933471918106
1773789889906758000,2.0277578125,-0.00007294141687452793,-0.0009325670544058084,-0.000868222676217556
1773789889926722800,2.047722900390625,0.00045570541988126934,0.0005444269627332687,-0.00019812723621726036
1773789889946687700,2.067687744140625,0.0003877854614984244,-0.0002366832923144102,0.00030010612681508064
1773789889966652700,2.087652587890625,-0.0013679726980626583,-0.0009400385897606611,0.0014432813040912151
1773789889986616600,2.107616455078125,0.00039269906119443476,0.0001439000479876995,0.00032502319663763046
1773789890006581800,2.127581787109375,-0.0010809932136908174,0.001440333784557879,0.00005796831101179123
1773789890026546700,2.147546630859375,-0.0006613894947804511,0.0003857098054140806,0.0005707880482077599
1773789890046511600,2.16751171875,-0.0010500365169718862,0.0002112709917128086,0.0004533277824521065
1773789890066476000,2.18747607421875,0.001101842848584056,-0.0009184668306261301,0.0011649811640381813
1773789890086441000,2.20744091796875,-0.0009331782930530608,-0.0007959173526614904,-0.0003196224570274353
1773789890106406000,2.227406005859375,-0.00006386793393176049,-0.0005256256554275751,-0.001563484314829111
1773789890126370800,2.247370849609375,-0.001515069743618369,0.00010476866737008095,-0.0000766967423260212
1773789890146335200,2.267335205078125,-0.000729759456589818,0.0001414890866726637,0.0011587385088205338
1773789890166300200,2.287300048828125,-0.0009761563269421458,-0.00034611625596880913,-0.00023952126502990723
1773789890186265000,2.30726513671875,-0.00037887319922447205,0.00007787253707647324,0.00009083142504096031
1773789890206230000,2.32722998046875,-0.00022300510318018496,-0.0007202853448688984,-0.00045625772327184677
1773789890226194000,2.34719384765625,0.00011899926175829023,0.0003106051590293646,0.00023999344557523727
1773789890246159000,2.3671591796875,0.0006369748152792454,0.0003702547401189804,0.0006964136846363544
1773789890266124000,2.3871240234375,-0.0017130451742559671,0.0013286989415064454,-0.001044983509927988
1773789890286089000,2.4070888671875,-0.0025524080265313387,-0.0002313428558409214,-0.00020364485681056976
1773789890306052900,2.427052978515625,-0.0002640644379425794,-0.0015970240347087383,-0.000011469237506389618
1773789890326018000,2.44701806640625,-0.00003016567279701121,-0.0013666697777807713,0.0008728918619453907
1773789890345983000,2.46698291015625,0.0009558750316500664,-0.0009900706354528666,0.0007447674870491028
1773789890365948000,2.486947998046875,0.0018879440613090992,-0.00033974763937294483,0.000030061695724725723
1773789890385912000,2.506912109375,-0.0014658104628324509,-0.0004944475367665291,0.001393588725477457
1773789890405877000,2.526876953125,0.0006443864549510181,-0.0004880577325820923,0.0005008825100958347
1773789890425842000,2.546842041015625,0.000776248867623508,-0.0005735750310122967,0.0010580266825854778
1773789890445807000,2.56680712890625,0.0006378018297255039,-0.00044545577839016914,0.0006036050617694855
1773789890465771000,2.58677099609375,0.0013987307902425528,-0.00035465601831674576,0.00010121241211891174
1773789890485736200,2.606736083984375,-0.0004969618748873472,-0.0008622352033853531,-0.0005388460122048855
1773789890505701000,2.626701171875,0.00011371030996087939,-0.0006153550930321217,-0.00016515934839844704
1773789890525666000,2.646666015625,-0.0008670227834954858,-0.0005397601053118706,0.00017725955694913864
1773789890545631000,2.666630859375,-0.0003606582176871598,-0.0003512054681777954,0.0005419687367975712
1773789890565595000,2.686594970703125,-0.0016520250355824828,0.0008908926974982023,0.0010540946386754513
1773789890585560000,2.70656005859375,0.0004921684740111232,0.0005460099782794714,0.0001765526831150055
1773789890605525000,2.72652490234375,-0.0004256952670402825,-0.0005680182948708534,0.001042639371007681
1773789890625490000,2.746489990234375,-0.0003542214399203658,-0.000399166950955987,0.0005609327927231789
1773789890645453800,2.766453857421875,0.000410191947594285,-0.0009277050849050283,0.001697862520813942
1773789890665419000,2.7864189453125,-0.0010693484218791127,0.0006000441499054432,0.00021221674978733063
1773789890685384000,2.806384033203125,0.00008491994958603755,-0.00029894663020968437,0.00014853710308670998
1773789890705348900,2.826348876953125,-0.0009369899635203183,0.00018977397121489048,0.0013447310775518417
1773789890725313000,2.84631298828125,-0.0007432323764078319,-0.0006586860399693251,-0.00017644371837377548
1773789890745278200,2.8662783203125,-0.0006897557759657502,0.00038308650255203247,0.0009364900179207325
1773789890765243100,2.8862431640625,0.0017069848254323006,0.0005372108425945044,0.0011792369186878204
1773789890785208000,2.9062080078125,-0.00017898814985528588,-0.0004511645529419184,0.0015276293270289898
1773789890805172000,2.926171875,-0.00012153621355537325,0.0004024971276521683,-0.000029454007744789124
1773789890825137200,2.94613720703125,0.000624298001639545,-0.0012819243129342794,0.00048051727935671806
1773789890845102000,2.96610205078125,0.0011420988012105227,0.0006499525625258684,0.0010388405062258244
1773789890865067000,2.98606689453125,0.00034264224814251065,-0.0003746841102838516,-0.00139700248837471
1773789890885031000,3.006031005859375,0.00011757371248677373,0.00013573863543570042,0.0013132565654814243
1773789890904995800,3.025995849609375,0.0006549530662596226,0.00028477818705141544,0.00029422715306282043
1773789890924961000,3.0459609375,0.0005154522368684411,-0.00018340256065130234,0.00030830735340714455
1773789890944926000,3.065926025390625,0.000263091002125293,-0.00018915347754955292,0.00011529354378581047
1773789890964890000,3.08589013671875,-0.00046073508565314114,0.0010872340062633157,-0.00045471638441085815
1773789890984855000,3.10585498046875,0.0011012351606041193,-0.00024982308968901634,-0.0011544409207999706
1773789891004820200,3.1258203125,-0.0008800966897979379,0.00030789803713560104,0.00008517364040017128
1773789891024785200,3.14578515625,-0.0010979748331010342,-0.000009130919352173805,-0.0009396718814969063
1773789891044749000,3.1657490234375,-0.00044355873251333833,-0.0008893264457583427,0.0005394811742007732
1773789891064714200,3.18571435546875,-0.0002281016786582768,0.0004782166797667742,-0.000010434072464704514
1773789891084679200,3.20567919921875,0.0018007004400715232,-0.0001741228625178337,0.002394501818343997
1773789891104644400,3.225644287109375,-0.0007354576955549419,-0.0002655717544257641,0.0004277084954082966
1773789891124608300,3.245608154296875,-0.0006823332514613867,-0.0009298233781009912,0.0002026115544140339
1773789891144573200,3.2655732421875,0.0016818901058286428,0.00013242382556200027,0.0005411058664321899
1773789891164538000,3.2855380859375,-0.0014905850403010845,-0.00012987665832042694,-0.0005983542650938034
1773789891184503300,3.30550341796875,-0.00014621067384723574,0.00020269514061510563,-0.0005000913515686989
1773789891204467200,3.32546728515625,-0.00022209109738469124,-0.00093457056209445,0.00008458178490400314
1773789891224432000,3.34543212890625,-0.0009328469750471413,-0.00011806399561464787,-0.00008429912850260735
1773789891244397000,3.36539697265625,-0.0004641620034817606,0.0007412135601043701,-0.0006877798587083817
1773789891264362200,3.3853623046875,0.0004022741341032088,0.0006774149369448423,0.0005225213244557381
1773789891284326400,3.405326416015625,-0.0009917999850586057,0.0003423199523240328,-0.00020880578085780144
1773789891304291300,3.425291259765625,0.00020427172421477735,-0.00037511764094233513,0.0008397693745791912
1773789891324256300,3.44525634765625,-0.0017428959254175425,-0.00025775423273444176,0.0003016693517565727
1773789891344221200,3.46522119140625,-0.0005217274883762002,0.0008994515519589186,-0.0006551244296133518
1773789891364185300,3.485185302734375,-0.0004564229748211801,-0.0006521344184875488,0.0005480824038386345
1773789891384150300,3.505150390625,-0.0002058134414255619,-0.0012213706504553556,0.0006000022403895855
1773789891404115200,3.525115234375,-0.0014641687739640474,-0.00023370282724499702,-0.0013883840292692184
1773789891424080100,3.545080078125,0.00045009993482381105,0.0003424540627747774,-0.0008971868082880974
1773789891444044000,3.5650439453125,-0.0010472758440300822,0.0008251287508755922,-0.000863103661686182
1773789891464009200,3.58500927734375,-0.0006245073745958507,0.00028064707294106483,0.0014033084735274315
1773789891483974100,3.60497412109375,-0.0004917653277516365,0.0005830784793943167,0.0006864303722977638
1773789891503939000,3.62493896484375,-0.0011490051401779056,0.0013687573373317719,-0.00024535367265343666
1773789891523903200,3.6449033203125,0.0006498538423329592,-0.0005046417936682701,0.0011143097653985023
1773789891543868400,3.664868408203125,0.0013307166518643498,-0.0008501273114234209,-0.000986381433904171
1773789891563833300,3.684833251953125,-0.00037013148539699614,0.000491149490699172,-0.0021251016296446323
1773789891583798300,3.70479833984375,-0.0006061738822609186,-0.0008953080978244543,0.0011765970848500729
1773789891603762200,3.72476220703125,-0.0004515460750553757,0.000870000571012497,0.0010568853467702866
1773789891623727400,3.744727294921875,-0.000302730972180143,0.0005587718915194273,0.001036906149238348
1773789891643692300,3.7646923828125,-0.0006124911596998572,-0.0006764244753867388,-0.0000056442804634571075
1773789891663657200,3.7846572265625,0.0010795723646879196,-0.00034375768154859543,0.0011113514192402363
1773789891683621000,3.80462109375,-0.00041379459435120225,0.0007934181485325098,0.0007223286665976048
1773789891703586300,3.82458642578125,-0.001095704035833478,-0.0004998180083930492,0.0006103953346610069
1773789891723551200,3.84455126953125,-0.0007886739913374186,0.0005032361950725317,0.00047012558206915855
1773789891743516200,3.86451611328125,-0.0003707990690600127,-0.0008851552847772837,0.0014698239974677563
1773789891763480000,3.88447998046875,-0.00006442233279813081,-0.0009827574249356985,0.0014242115430533886
1773789891783445000,3.904445068359375,-0.0008199351141229272,-0.0016476302407681942,-0.0008659651502966881
1773789891803410200,3.92441015625,-0.0000620173814240843,0.0012142034247517586,0.0004797563888132572
1773789891823375000,3.944375,-0.00023268838413059711,-0.000010489718988537788,-0.0006379075348377228
1773789891843339300,3.96433935546875,0.00043022644240409136,0.00009234156459569931,0.0023731838446110487
1773789891863304200,3.98430419921875,-0.00015553012781310827,0.00025722221471369267,-0.000413721427321434
1773789891883269400,4.004269287109375,-0.0013059626799076796,0.0014358750777319074,0.0008617122657597065
1773789891903234300,4.024234375,-0.00057740299962461,-0.00017465953715145588,0.0004567466676235199
1773789891923198200,4.0441982421875,0.0003991769626736641,-0.0002161264419555664,0.0009436625987291336
1773789891943163100,4.0641630859375,0.0008843141840770841,-0.0011569089256227016,0.0005741873756051064
1773789891963128300,4.08412841796875,-0.0007237035315483809,-0.001706753857433796,0.0012901430018246174
1773789891983093200,4.10409326171875,0.0010319370776414871,-0.0004522837698459625,-0.000019391998648643494
1773789892003057200,4.12405712890625,0.0013175130588933825,0.0008367951959371567,0.0012713689357042313
1773789892023022000,4.14402197265625,0.0006947691435925663,0.0005043854471296072,0.00020821578800678253
1773789892042987300,4.1639873046875,0.0005648709484376013,-0.00025864457711577415,0.001776895485818386
1773789892062951700,4.18395166015625,-0.0010401998879387975,0.00015139044262468815,0.0005585877224802971
1773789892082915600,4.20391552734375,0.0003476155106909573,-0.0012859802227467299,-0.0009235613979399204
1773789892102880800,4.223880859375,-0.00035245349863544106,-0.000760174123570323,0.000973796471953392
1773789892122845700,4.243845703125,0.0010523439850658178,-0.001622549956664443,0.0005566515028476715
1773789892142810600,4.263810546875,-0.000003236549673601985,-0.0016261537093669176,-0.00008865026757121086
1773789892162774500,4.2837744140625,0.00001714815152809024,-0.0012870999053120613,0.00011411216109991074
1773789892182739500,4.303739501953125,0.0010916884057223797,-0.0009843045845627785,0.0009898096323013306
1773789892202704600,4.32370458984375,0.0005883938865736127,0.0006230270955711603,0.00017151189967989922
1773789892222669600,4.343669677734375,0.002215965185314417,0.000285580987110734,0.0018102866597473621
1773789892242633500,4.363633544921875,-0.0009310158202424645,0.00004027201794087887,0.0006191786378622055
1773789892262598400,4.383598388671875,-0.0011472997721284628,0.0002287647221237421,0.0009097619913518429
1773789892282563600,4.4035634765625,0.00042225682409480214,0.0009989389218389988,0.0013253758661448956
1773789892302528500,4.423528564453125,-0.002551207784563303,0.00009455299004912376,-0.0007375627756118774
1773789892322492700,4.44349267578125,0.0016935409512370825,-0.0007531181909143925,-0.000610673800110817
1773789892342457600,4.46345751953125,0.0007932578446343541,0.0005853192415088415,-0.00010561058297753334
1773789892362422800,4.4834228515625,0.0006110710091888905,0.00014081038534641266,0.0014334674924612045
1773789892382386700,4.50338671875,-0.0005761971697211266,0.00031758472323417664,-0.000009543728083372116
1773789892402351600,4.5233515625,0.00040979014011099935,0.00021256296895444393,0.000058210454881191254
1773789892422316500,4.543316650390625,-0.0008144029416143894,0.0011382057564333081,-0.0011447528377175331
1773789892442281700,4.56328173828125,-0.0014715794241055846,-0.0020067852456122637,-0.00022038398310542107
1773789892462245600,4.58324560546875,-0.0002513426588848233,-0.0007357287686318159,0.001203153282403946
1773789892482210600,4.60321044921875,-0.0004447632236406207,0.00017313752323389053,-0.0004232334904372692
1773789892502175500,4.623175537109375,-0.0005282021011225879,-0.001478557474911213,0.00023912172764539719
1773789892522140400,4.643140380859375,0.0006634494056925178,-0.000470226164907217,0.0007546190172433853
1773789892542104800,4.663104736328125,-0.00003408822522033006,0.00008479692041873932,0.0011815386824309826
1773789892562069800,4.68306982421875,-0.001269980100914836,0.00013380032032728195,0.00014674337580800056
1773789892582034700,4.70303466796875,-0.0003154734440613538,-0.000015007099136710167,0.00019229110330343246
1773789892601998600,4.72299853515625,0.0003549510147422552,-0.00028666690923273563,0.0009882948361337185
1773789892621963500,4.742963623046875,-0.00012546623474918306,-0.0009892047382891178,-0.00003452831879258156
1773789892641928700,4.7629287109375,-0.0006297397194430232,0.000953516224399209,-0.0011210977099835873
1773789892661893600,4.7828935546875,-0.000004488916601985693,-0.0002580077853053808,0.0013801963068544865
1773789892681857500,4.802857421875,-0.0013241332489997149,0.0006420433055609465,0.0012234034948050976
1773789892701822500,4.822822509765625,0.00015522858302574605,0.0009253306780010462,0.0010099564678967
1773789892721787600,4.84278759765625,-0.0018363407580181956,0.00047246390022337437,0.0008595217950642109
1773789892741752600,4.862752685546875,0.0002848280710168183,0.0004600842949002981,-0.0005784295499324799
1773789892761716500,4.882716552734375,0.0004095995973329991,-0.0004676003009080887,-0.0003261263482272625
1773789892781681700,4.902681640625,8.283095667138696e-7,-0.000025202520191669464,-0.0004863911308348179
1773789892801646600,4.922646484375,0.0002235202700830996,0.00029361667111516,-0.000016390811651945114
1773789892821611500,4.942611572265625,0.0005234272684901953,-0.000896484823897481,-0.0008321222849190235
1773789892841575700,4.96257568359375,0.0004053671145811677,0.00016317958943545818,-0.0005105994641780853
1773789892861540600,4.98254052734375,-0.0002165031764889136,0.0006090304814279079,-0.0004230593331158161
1773789892881505500,5.002505615234375,0.000340171973221004,-0.001561962766572833,0.0005438812077045441
1773789892901469700,5.0224697265625,0.00025464361533522606,0.001364928437396884,0.00011372333392500877
1773789892921434600,5.0424345703125,0.0007822392508387566,0.0002536813262850046,0.0008497852832078934
1773789892941399600,5.062399658203125,0.0009702701936475933,0.00011587003245949745,-0.00027671875432133675
1773789892961364500,5.082364501953125,-0.0010194623610004783,0.0007371199317276478,0.0016660555265843868
1773789892981328400,5.102328369140625,0.00015745287237223238,0.000008381670340895653,0.0004692031070590019
1773789893001293600,5.12229345703125,-0.0014068507589399815,0.00006976909935474396,-0.00008512241765856743
1773789893021258500,5.142258544921875,0.0006012044614180923,-0.0004745875485241413,-0.00006777560338377953
1773789893041223400,5.162223388671875,-0.0008024568669497967,0.0011031797621399164,-0.0008570090867578983
1773789893061188000,5.18218798828125,-0.0004932924639433622,0.0007497509941458702,0.0003909468650817871
1773789893081153300,5.2021533203125,-0.0002878122904803604,0.0013312539085745811,0.00199314602650702
1773789893101118200,5.2221181640625,-0.0006460923468694091,0.001277550938539207,0.00024226587265729904
1773789893121082000,5.24208203125,-0.0010523239616304636,-0.0010447255335748196,0.00027520256116986275
1773789893141047300,5.26204736328125,0.0007468701805919409,-0.0002348779235035181,-0.00007039355114102364
1773789893161012200,5.28201220703125,-0.0007020451594144106,-0.00033074035309255123,-0.00023593520745635033
1773789893180977200,5.30197705078125,-0.000918265781365335,-0.0007387220393866301,0.0006656832993030548
1773789893200941000,5.321941162109375,-0.0013165095588192344,0.0008093670476227999,0.00006880750879645348
1773789893220906200,5.34190625,-0.000631747068837285,-0.00032169045880436897,-0.00041068438440561295
1773789893240871200,5.36187109375,0.0007410485995933414,0.0006692849565297365,-0.0007719527930021286
1773789893260835000,5.3818349609375,-0.00018593226559460163,0.00006744288839399815,-0.000235001090914011
1773789893280800000,5.401800048828125,0.00008691247785463929,-0.0006974367424845695,0.0006202049553394318
1773789893300765000,5.421764892578125,-0.0006948648951947689,-0.000293537974357605,-0.0006808009929955006
1773789893320730000,5.441730224609375,0.0013621276011690497,-0.00006775418296456337,0.00021214690059423447
1773789893340694300,5.4616943359375,-0.00006653525633737445,0.0005998096894472837,0.0010243193246424198
1773789893360659200,5.4816591796875,-0.000732775719370693,0.0006999722681939602,-0.00031564245000481606
1773789893380624100,5.5016240234375,0.0010329245124012232,-0.000025135697796940804,0.002140011638402939
1773789893400588000,5.521588134765625,-0.00007703728624619544,0.0007281091529875994,0.0002559819258749485
1773789893420553200,5.54155322265625,0.000043868800275959074,-0.0007915333844721317,-0.000011908356100320816
1773789893440518100,5.56151806640625,-0.0014406871050596237,0.0008731300476938486,0.0010656588710844517
1773789893460483000,5.581483154296875,-0.0006875154795125127,0.0005670543760061264,-0.00020271958783268929
1773789893480447000,5.601447021484375,0.00002802259405143559,-0.00046862545423209667,-0.0002507646568119526
1773789893500412200,5.621412109375,0.00003081346221733838,0.00027909292839467525,0.00043655605986714363
1773789893520377000,5.641377197265625,0.00022178977087605745,0.00015726452693343163,0.000753168947994709
1773789893540341200,5.66134130859375,-0.0013308956986293197,0.0002680644392967224,-0.0002604341134428978
1773789893560306200,5.68130615234375,-0.001105061499401927,0.0008995120879262686,0.0014847712591290474
1773789893580271400,5.701271240234375,-0.00034901584149338305,0.00019766786135733128,0.0002980707213282585
1773789893600236300,5.721236328125,0.0007545116823166609,-0.00033921049907803535,0.0003246231935918331
1773789893620200200,5.7412001953125,-0.0013727640034630895,0.0008102783467620611,-0.0005089323967695236
1773789893640165000,5.7611650390625,-0.0011076325317844748,-0.0012333570048213005,0.0010953373275697231
1773789893660130300,5.78113037109375,-0.0008963687578216195,-0.00004187552258372307,0.001236562617123127
1773789893680094200,5.80109423828125,0.0004223657015245408,0.0005339477211236954,0.0003292444162070751
1773789893700059100,5.82105908203125,-0.0002902743290178478,-0.0004329767543822527,0.001135875005275011
1773789893720024000,5.841024169921875,-0.001000257907435298,4.903413355350494e-7,-0.0006146696396172047
1773789893739989000,5.860989013671875,-0.0005815167678520083,-0.0000694317277520895,0.0008779042400419712
1773789893759953200,5.880953125,-0.0009096627472899854,-0.00017023575492203236,-0.00016620056703686714
1773789893779918000,5.90091796875,-0.001268191495910287,0.000004860805347561836,0.00002023717388510704
1773789893799883000,5.920883056640625,0.001119911903515458,-0.002164332428947091,0.0010233367793262005
1773789893819847200,5.94084716796875,0.0010770554654300213,0.00006657023914158344,-0.000927959568798542
1773789893839812000,5.96081201171875,0.0008968972833827138,0.00015221699140965939,-0.0000030156224966049194
1773789893859777300,5.98077734375,0.0002527974429540336,0.00023866142146289349,0.0000049173831939697266
1773789893879742200,6.0007421875,-0.0008251143153756857,0.0004063141532242298,-0.00046348385512828827
1773789893899706000,6.0207060546875,-0.0010947476839646697,0.0012315782951191068,0.0017659482546150684
1773789893919671000,6.040671142578125,0.00024946723715402186,-0.0003083101473748684,-0.0002378295175731182
1773789893939636200,6.06063623046875,0.00004038470797240734,0.00048725586384534836,0.0005439114756882191
1773789893959600000,6.08060009765625,-0.0009962549665942788,-0.00013459008187055588,-0.00027079740539193153
1773789893979565000,6.10056494140625,0.0001329277001786977,-0.00013165362179279327,-0.00028532976284623146
1773789893999530000,6.120530029296875,0.00033533229725435376,0.00024532084353268147,-0.0006178999319672585
1773789894019495200,6.1404951171875,0.0003515072166919708,-0.00016917684115469456,-0.0021364549174904823
1773789894039459300,6.160459228515625,-0.0007314401445910335,-0.000531442929059267,-0.00017793523147702217
1773789894059424300,6.18042431640625,-0.0013428849633783102,-0.00033017504028975964,-0.0005348874256014824
1773789894079389000,6.200388916015625,0.0011410361621528864,-0.0002940194681286812,-0.0011631888337433338
1773789894099352800,6.220352783203125,0.0003269760054536164,0.0004916107282042503,-0.0005988157354295254
1773789894119318000,6.240318115234375,0.0006937843863852322,-0.00029369210824370384,-0.0008970517665147781
1773789894139283000,6.260282958984375,0.0003913699765689671,-0.00026024854741990566,0.00044388696551322937
1773789894159246800,6.280246826171875,0.000023307380615733564,0.00029214704409241676,-0.00020455196499824524
1773789894179211800,6.300211669921875,-0.00039358559297397733,-0.0011811500880867243,-0.0003879205323755741
1773789894199176700,6.3201767578125,0.0003491326642688364,-0.00040385802276432514,-0.000048815272748470306
1773789894219142000,6.340141845703125,-0.0003545877698343247,0.000047067878767848015,0.00004109647125005722
1773789894239106000,6.36010595703125,-0.0015545152127742767,0.0006134184077382088,-0.0007873582653701305
1773789894259071000,6.380071044921875,0.00010579221998341382,-0.0012239152565598488,-0.0003496161662042141
1773789894279036000,6.400035888671875,0.0005936851957812905,-0.00030794693157076836,0.0008180420845746994
1773789894298999800,6.419999755859375,-0.0007309704087674618,-0.0004237487446516752,-0.0008918181993067265
1773789894318965000,6.439965087890625,0.0002724687219597399,0.0004791875835508108,-0.0000567873939871788
1773789894338930000,6.459929931640625,0.00044162682024762034,-0.0007700123824179173,0.0002194000408053398
1773789894358893800,6.479893798828125,-0.00091152498498559,0.00022776611149311066,0.0007230443879961967
1773789894378858800,6.499858642578125,0.00048409317969344556,-0.001978361513465643,-0.0004185214638710022
1773789894398824000,6.519823974609375,0.0004866642993874848,-0.0008693442214280367,-0.00023224251344799995
1773789894418788900,6.539788818359375,0.00042582396417856216,-0.0004792043473571539,0.001671669539064169
1773789894438752800,6.559752685546875,-0.0012065388727933168,-0.00040024612098932266,0.00017395708709955215
1773789894458717700,6.5797177734375,0.0005744834197685122,-0.0005488474853336811,0.0007928046397864819
1773789894478683000,6.599682861328125,-0.0004251324280630797,0.0017587922047823668,0.0003948458470404148
1773789894498647000,6.61964697265625,0.0008133347146213055,-0.000432188855484128,0.00024289637804031372
1773789894518612000,6.639612060546875,-0.000040531784179620445,0.0005783871747553349,-0.00003592716529965401
1773789894538577000,6.659576904296875,-0.001324310782365501,0.0003380817361176014,-0.0006412221118807793
1773789894558540800,6.679540771484375,0.00011688130325637758,-0.0006369119510054588,0.0009685498662292957
1773789894578506000,6.699506103515625,-0.00020307480008341372,0.00006646756082773209,-0.0006924974732100964
1773789894598471000,6.719470947265625,0.001161363092251122,-0.00040429458022117615,-0.0018509197980165482
1773789894618434800,6.739434814453125,0.0008575270767323673,-0.0003816124517470598,-0.0000185561366379261
1773789894638399700,6.759399658203125,0.0006601971108466387,0.002296912018209696,-0.0008595781400799751
1773789894658365000,6.779364990234375,-0.0005554779781959951,0.00026757060550153255,-0.00014705397188663483
1773789894678329900,6.799329833984375,0.0019742161966860294,0.0006404884625226259,-0.0005609458312392235
1773789894698294000,6.8192939453125,-0.0005604266189038754,0.0008680804166942835,0.0002183103933930397
1773789894718259000,6.839259033203125,-0.00006351142656058073,0.0005184358451515436,0.00032564811408519745
1773789894738223900,6.859223876953125,-0.0003748275339603424,-0.0008425726555287838,0.00030725961551070213
1773789894758188000,6.87918798828125,0.0008060092804953456,-0.0011719393078237772,-0.00007035396993160248
1773789894778153000,6.899153076171875,-0.00016391914687119424,-0.0010052670259028673,-0.00008818786591291428
1773789894798118000,6.919117919921875,-0.00012706610141322017,-0.00037920265458524227,-0.0013072183355689049
1773789894818081800,6.939081787109375,0.0006009256467223167,0.0019504419760778546,0.00046407245099544525
1773789894838046700,6.959046630859375,-0.00015611472190357745,0.000027308007702231407,0.0001907763071358204
1773789894858012000,6.979011962890625,0.00022423877089750022,-0.000589483417570591,-0.001186868641525507
1773789894877976000,6.99897607421875,0.000729976047296077,0.0005317667964845896,0.0013180188834667206
1773789894897941000,7.01894091796875,-0.0004720697761513293,0.0004502504598349333,-0.0012567238882184029
1773789894917906000,7.038906005859375,0.0005150081124156713,0.0002080176491290331,0.0004453631117939949
1773789894937871000,7.05887109375,0.000982981058768928,-0.0003117236774414778,-0.0007534907199442387
1773789894957835000,7.0788349609375,0.00019402542966417968,-0.00026252935640513897,0.0006671231240034103
1773789894977800000,7.098800048828125,0.00026642929879017174,0.00043408293277025223,-0.0006136070005595684
1773789894997764900,7.118764892578125,-0.001221400685608387,0.0010602823458611965,0.0003829672932624817
1773789895017728800,7.138728759765625,0.0004088239511474967,0.00010105525143444538,0.0012418730184435844
1773789895037694000,7.15869384765625,-0.0006305876886472106,0.00008483510464429855,-0.000596941914409399
1773789895057659000,7.178658935546875,-0.000719963398296386,0.0002216682769358158,-0.0004615606740117073
1773789895077622500,7.19862255859375,-0.000493402942083776,-0.0009324729908257723,0.00005843956023454666
1773789895097587700,7.218587646484375,0.0009586761007085443,0.00015364005230367184,0.0003305417485535145
1773789895117552600,7.238552734375,0.0018577002920210361,0.0010046411771327257,0.0006476105190813541
1773789895137516500,7.2585166015625,0.0012939795851707458,0.00007923366501927376,-0.00016520265489816666
1773789895157481500,7.2784814453125,0.0002438121009618044,-0.0004654531367123127,0.0002513122744858265
1773789895177446400,7.2984462890625,0.00032555568031966686,0.00022512581199407578,0.0013842317275702953
1773789895197410600,7.31841064453125,0.00047580187674611807,0.001091299345716834,0.0010501574724912643
1773789895217375500,7.33837548828125,-0.00036617202567867935,-0.00026338803581893444,-0.000889838207513094
1773789895237340400,7.35834033203125,0.00008349248673766851,0.00018089544028043747,0.000042244791984558105
1773789895257304300,7.37830419921875,-0.001451111980713904,0.0006685738917440176,0.0004005734808743
1773789895277269200,7.398269287109375,0.0007041887147352099,0.0005710786208510399,-0.0008638272993266582
1773789895297234400,7.418234375,-0.0003693656180985272,-0.00011097337119281292,0.0007235286757349968
1773789895317198600,7.438198486328125,-0.0009209092822857201,-0.000027443747967481613,0.00018740538507699966
1773789895337163500,7.45816357421875,-0.0001420681073796004,-0.0006358739919960499,-0.000941193662583828
1773789895357128400,7.47812841796875,-0.00022512173745781183,-0.0011584360618144274,-0.0004024398513138294
1773789895377093600,7.49809375,0.00033203719067387283,-0.0012617483735084534,0.000089326873421669
1773789895397057500,7.5180576171875,0.00019134869216941297,-0.00047599500976502895,0.0006315140053629875
1773789895417022500,7.5380224609375,0.0007725925534032285,-0.000017458340153098106,0.0011958563700318336
1773789895436987400,7.5579873046875,0.001373925944790244,0.0005835266783833504,-0.000015470199286937714
1773789895456951300,7.577951416015625,-0.00015394925139844418,0.0006948055233806372,-0.0005860254168510437
1773789895476916500,7.59791650390625,-0.0003818935656454414,-0.00020110327750444412,-0.000034049153327941895
1773789895496881400,7.61788134765625,0.0008190348744392395,-0.000849179457873106,0.0007641189731657505
1773789895516845600,7.637845458984375,0.0003895274712704122,0.0011367725674062967,-0.0006823423318564892
1773789895536810500,7.657810546875,0.0017889433074742556,-0.0007890623528510332,-0.0002886638976633549
1773789895556775700,7.677775634765625,0.00001204170985147357,-0.000051601557061076164,-0.0003368472680449486
1773789895576739600,7.697739501953125,0.001294164452701807,0.0013549142749980092,0.0002033514901995659
1773789895596704500,7.71770458984375,-0.0009034278918989003,-0.00014971615746617317,-0.0004961537197232246
1773789895616669400,7.73766943359375,0.0008677531150169671,0.00036058877594769,0.00013683410361409187
1773789895636633300,7.75763330078125,-0.0012279702350497246,-0.000523680355399847,-0.00010194536298513412
1773789895656598500,7.7775986328125,-0.00009030906949192286,0.00007662014104425907,-0.00015081046149134636
1773789895676563500,7.7975634765625,0.0010236769448965788,0.00021675997413694859,0.0004812548868358135
1773789895696527400,7.81752734375,0.00025668402668088675,-0.0004448876716196537,0.00046282028779387474
1773789895716492300,7.8374921875,0.001242618658579886,-0.00017796619795262814,0.00015759747475385666
1773789895736457500,7.85745751953125,0.0007519018836319447,-0.0006125709041953087,-0.0002831537276506424
1773789895756421600,7.877421630859375,0.0017260215245187283,-0.000856456346809864,-0.00015948200598359108
1773789895776386600,7.897386474609375,-0.0007603886188007891,-0.00018436787649989128,0.00029158079996705055
1773789895796351500,7.9173515625,0.0009300634847022593,0.0001572954934090376,-0.00018753763288259506
1773789895816315400,7.9373154296875,0.00018386497686151415,0.00019822525791823864,0.00074433209374547
1773789895836280600,7.957280517578125,-0.0001817299926187843,0.00048385560512542725,0.0004412475973367691
1773789895856245500,7.97724560546875,0.0005757090402767062,-0.0002702281344681978,0.000865692738443613
1773789895876209400,7.99720947265625,0.0024775657802820206,-0.00025761290453374386,0.00039794715121388435
1773789895896174300,8.01717431640625,-0.0008839984657242894,0.0002834438346326351,0.0008158348500728607
1773789895916139300,8.03713916015625,-0.00042475733789615333,0.0007229209877550602,0.00042608659714460373
1773789895936103700,8.057103759765624,0.001213706098496914,0.001510735135525465,-0.0002308730036020279
1773789895956068600,8.077068603515626,-0.0001385825453326106,-0.0008635725826025009,0.0017272266559302807
1773789895976033500,8.097033447265625,0.00023931091709528118,-0.00009300117380917072,-0.00009859958663582802
1773789895995997400,8.11699755859375,-0.0006097872392274439,0.00048121879808604717,-0.0005252254195511341
1773789896015962400,8.13696240234375,-0.0021175078582018614,0.0003041285090148449,0.0009924308396875858
1773789896035927600,8.156927490234375,-0.00048538908595219254,-0.000709782587364316,-0.00021826429292559624
1773789896055891500,8.176891357421875,-0.001541562844067812,0.0004319348372519016,0.0014163549058139324
1773789896075857400,8.196857421875,0.0011701281182467937,-0.0003438838757574558,0.00148393539711833
1773789896095822300,8.216822265625,0.0007486405083909631,0.0005125883035361767,0.00004367949441075325
1773789896115786200,8.2367861328125,-0.0002997198607772589,0.0008452690672129393,-0.0007143407128751278
1773789896135751200,8.256751220703125,0.0006150489207357168,-0.00042644119821488857,0.0008603385649621487
1773789896155716400,8.27671630859375,0.00020997053070459515,-0.000349920941516757,0.0005579227581620216
1773789896175680500,8.296680419921875,0.000150244653923437,-0.00011592172086238861,0.0008620889857411385
1773789896195645400,8.3166455078125,0.00027771369786933064,0.00010253302752971649,0.0011915150098502636
1773789896215610400,8.3366103515625,-0.00046261673560366035,-0.0003393110819160938,-0.0007612602785229683
1773789896235574300,8.35657421875,-0.00013637705706059933,0.00030040647834539413,0.0009275549091398716
1773789896255539500,8.37653955078125,-0.0009553608251735568,0.0006637806072831154,-0.000658869743347168
1773789896275504400,8.39650439453125,0.00037189997965469956,0.001269476255401969,-0.00007160240784287453
1773789896295468300,8.41646826171875,-0.0009954419219866395,0.0009355142246931791,-0.00016577960923314095
1773789896315433200,8.43643310546875,0.0002976030227728188,0.0009285281412303448,-0.0009463047608733177
1773789896335398400,8.4563984375,0.001060100388713181,0.0009877197444438934,-0.0008135274983942509
1773789896355362300,8.4763623046875,0.0000532259582541883,0.0008841853123158216,-0.0005570463836193085
1773789896375327200,8.4963271484375,0.0004216561501380056,0.0006729690358042717,-0.0006861826404929161
1773789896395292200,8.516292236328125,0.0010575763881206512,-0.0002286985982209444,0.0015595797449350357
1773789896415256300,8.53625634765625,-0.00037024705670773983,0.0007462725043296814,-0.0004352414980530739
1773789896435221500,8.556221435546876,0.00038927566492930055,-0.00011984771117568016,-0.00007130112498998642
1773789896455186400,8.5761865234375,-0.0006651503499597311,0.0007393974810838699,-0.0002553011290729046
1773789896475150300,8.596150390625,0.00047848394024185836,-0.0012118350714445114,0.0009017754346132278
1773789896495115300,8.616115234375,-0.00031643491820432246,-0.0005770076531916857,0.0012126537039875984
1773789896515080400,8.63608056640625,0.0003431462973821908,-0.00009510945528745651,-0.00033920397982001305
1773789896535044400,8.65604443359375,0.0011513986391946673,-0.0008249552920460701,-0.001207149587571621
1773789896555009300,8.67600927734375,0.0005909541505388916,0.000455046771094203,0.000019985251128673553
1773789896574974200,8.69597412109375,-0.000405828031944111,0.00022421334870159626,-0.00048198970034718513
1773789896594938400,8.7159384765625,-0.0013681803829967976,-0.0011351748835295439,-0.0005452902987599373
1773789896614903600,8.735903564453125,0.0002643586485646665,-0.00016346899792551994,-0.0020565572194755077
1773789896634868500,8.755868408203124,0.0007005656370893121,-0.001136899460107088,-0.00018645543605089188
1773789896654832400,8.775832275390625,0.00043820467544719577,-0.0010694311931729317,0.001588701270520687
1773789896674797300,8.79579736328125,0.0007494189776480198,-0.000247227493673563,0.0002685142681002617
1773789896694762500,8.815762451171874,0.00022797155543230474,0.0004874912556260824,0.0004985956475138664
1773789896714726400,8.835726318359375,0.000852883153129369,-0.00042666378431022167,0.0002767415717244148
1773789896734691300,8.85569140625,0.0008536855457350612,-0.00035814126022160053,-0.0009405668824911118
1773789896754656300,8.87565625,0.0006798870745114982,-0.0005480381660163403,0.001289889682084322
1773789896774620400,8.895620361328126,-0.0001712805824354291,0.0004319632425904274,-0.0009976532310247421
1773789896794585300,8.91558544921875,-0.0005731224082410336,0.00006258301436901093,-0.0003825169987976551
1773789896814550300,8.93555029296875,0.00007662085408810526,-0.0001785452477633953,0.0008282875642180443
1773789896834514400,8.955514404296874,-0.00005560179124586284,-0.000014991499483585358,-0.00015414832159876823
1773789896854479400,8.975479248046875,0.0009166878880932927,-0.0012458635028451681,0.0012393966317176819
1773789896874444300,8.9954443359375,-0.00007205607835203409,-0.00009705172851681709,-0.00004629138857126236
1773789896894408400,9.015408447265624,-0.00011678427108563483,-0.0008066620212048292,0.0003047967329621315
1773789896914373400,9.035373291015626,0.00039767767884768546,-0.0012506546918302774,-0.0004979334771633148
1773789896934338300,9.05533837890625,0.00012249873543623835,-0.0005361540243029594,-0.0008567399345338345
1773789896954302200,9.07530224609375,-0.0013503347290679812,0.00043985829688608646,-0.0008276049047708511
1773789896974267100,9.09526708984375,-0.0004117653879802674,0.00030752201564610004,-0.0006774677895009518
1773789896994232300,9.115232421875,-0.00045645199134014547,0.00033200811594724655,0.0018558227457106113
1773789897014196500,9.135196533203125,-0.001691652461886406,0.0005519904661923647,0.00016471371054649353
1773789897034161400,9.155161376953124,0.0004302299930714071,0.00031999475322663784,0.0006296513602137566
1773789897054126300,9.175126220703126,0.0004830792313441634,-0.00047565135173499584,-0.000597015954554081
1773789897074089700,9.19508984375,-0.0014620637521147728,-0.00048646354116499424,0.0005652522668242455
1773789897094055000,9.215054931640625,0.00003078495501540601,0.0003286581486463547,0.00028680916875600815
1773789897114019800,9.235019775390626,0.0007199393003247678,0.0006236168555915356,0.0007735816761851311
1773789897133983700,9.254983642578125,0.00014047410513740033,-0.000887223519384861,0.0006404933519661427
1773789897153948700,9.27494873046875,0.0006197871407493949,0.00008628843352198601,0.000902724452316761
1773789897173913900,9.294913818359374,-0.0008794090244919062,0.0003939468879252672,-0.001439367886632681
1773789897193878000,9.3148779296875,0.000011369527783244848,-0.00033696810714900494,-0.0004818853922188282
1773789897213843000,9.334843017578125,0.000265889975707978,-0.000891255447641015,0.0002223779447376728
1773789897233808000,9.354807861328124,-0.001559586962684989,0.00008853455074131489,0.0012952587567269802
1773789897253771800,9.374771728515626,0.0003342600539326668,-0.0012347965966910124,-0.0008004624396562576
1773789897273737000,9.394737060546875,0.0005594715476036072,-0.0009583618957549334,0.0010919640772044659
1773789897293702000,9.414701904296875,0.0005365242250263691,-0.0010616956278681755,0.000292997807264328
1773789897313665800,9.434665771484376,0.0009322609985247254,0.00042423629201948643,0.00034491904079914093
1773789897333630700,9.454630615234375,0.001448299502953887,-0.00042512989602983,0.0005437224172055721
1773789897353596000,9.474595947265625,-0.0005835499614477158,-0.0003170634154230356,0.0008497419767081738
1773789897373560000,9.49456005859375,-0.000509983510710299,-0.0004908277187496424,0.00019944924861192703
1773789897393525000,9.51452490234375,0.001078444067388773,0.0001836707815527916,0.0018183630891144276
1773789897413490000,9.534489990234375,0.00011936086229979992,-0.0009337388910353184,0.0010225959122180939
1773789897433453800,9.554453857421874,0.0012801731936633587,-0.0015424757730215788,0.00031490670517086983
1773789897453419000,9.5744189453125,0.0008793170563876629,0.00037234113551676273,0.0006484105251729488
1773789897473384000,9.594384033203125,0.0014439765363931656,0.0012611588463187218,-0.00007715309038758278
1773789897493347800,9.614347900390625,0.0005049548926763237,0.0003809886984527111,-0.0008983598090708256
1773789897513312800,9.634312744140624,-0.0006332895718514919,-0.0005423419643193483,-0.00028593651950359344
1773789897533277700,9.654277587890626,-0.001148814451880753,0.0019223011331632733,0.00000441819429397583
1773789897553241900,9.674241943359375,-0.0002738080220296979,-0.00013226084411144257,-0.00038925744593143463
1773789897573206800,9.694206787109374,0.000029382004868239164,-0.0007165065035223961,-0.0011090151965618134
1773789897593171000,9.7141708984375,-0.00027591397520154715,-0.0009725757408887148,0.0006434819661080837
1773789897613136000,9.734135986328125,0.000344901520293206,-0.0002896226942539215,-0.0011632689274847507
1773789897633100800,9.754100830078125,0.0012090896489098668,-0.000006590737029910088,-0.0004695220850408077
1773789897653065000,9.77406494140625,0.0005626626079902053,-0.0001510509755462408,-0.00004465319216251373
1773789897673030000,9.79402978515625,-0.000723687931895256,0.0005786844994872808,0.000838214997202158
1773789897692994800,9.813994873046875,-0.0007070167339406908,0.0002547954209148884,-0.0016696322709321976
1773789897712958700,9.833958740234374,0.00005518266698345542,-0.0003608337137848139,-0.0007564965635538101
1773789897732923600,9.853923583984376,-0.0005003493279218674,-0.0009739932138472795,0.001336059533059597
1773789897752888800,9.873888916015625,0.0006015623803250492,-0.0013991543091833591,0.0014776522293686867
1773789897772853000,9.89385302734375,0.0001447164686396718,-0.00129488087259233,0.0009750896133482456
1773789897792818000,9.91381787109375,0.0013058735057711601,0.0008875059429556131,0.00006553297862410545
1773789897812782800,9.933782958984375,0.000717584160156548,-0.0006961394101381302,0.00037098396569490433
1773789897832746800,9.953746826171875,-0.0006059522274881601,-0.000018110033124685287,0.0002621193416416645
1773789897852712000,9.9737119140625,-0.001067322795279324,-0.0006221521180123091,0.0002942685969173908
1773789897872676900,9.9936767578125,0.0006763140554539859,-0.00013853772543370724,-0.0004232455976307392
1773789897892640800,10.013640869140625,0.00006683704850729555,-0.00029376731254160404,0.0009492007084190845
1773789897912605700,10.033605712890624,-0.0001513107563368976,-0.0007463486399501562,0.0005778330378234386
1773789897932571000,10.05357080078125,0.0006996909505687654,0.000047394074499607086,-0.00016890233382582664
1773789897952535000,10.07353515625,0.000869058771058917,-0.00020815967582166195,-0.00022865133360028267
1773789897972500000,10.0935,0.0012409237679094076,-0.00021002558059990406,-0.0004082252271473408
1773789897992465000,10.11346484375,0.0011823211098089814,0.00007614307105541229,-0.0002991841174662113
1773789898012428800,10.1334287109375,-0.0005946967285126448,-0.00023182108998298645,-0.0005168896168470383
1773789898032394000,10.15339404296875,-0.0003453754761721939,-0.00007177237421274185,0.0005524088628590107
1773789898052359000,10.17335888671875,-0.0002075133379548788,-0.0003825663588941097,0.0007471237331628799
1773789898072323000,10.193322998046876,0.00024092334206216037,-0.00045070284977555275,-0.0011403788812458515
1773789898092288000,10.2132880859375,0.0007054845918901265,-0.00026931590400636196,0.001743959728628397
1773789898112253000,10.2332529296875,-0.0006848369957879186,-0.0011507589370012283,0.001375709194689989
1773789898132216800,10.253216796875,0.0001586512807989493,-0.00138626410625875,0.00015724683180451393
1773789898152182000,10.27318212890625,0.0008825651602819562,-0.00013563618995249271,0.0008540637791156769
1773789898172147000,10.29314697265625,-0.0010645788861438632,-0.0013704674784094095,-0.0006833160296082497
1773789898192111000,10.313111083984374,0.00034645787673071027,-0.0015590919647365808,0.0016719410195946693
1773789898212076000,10.333075927734376,0.0007471505086869001,0.00007709930650889874,-0.0003754356876015663
1773789898232041200,10.353041259765625,-0.00028671190375462174,0.00017328094691038132,0.0019132925663143396
1773789898252005000,10.373005126953124,0.00021386660228017718,-0.0006722777616232634,-0.00010682642459869385
1773789898271970000,10.392969970703126,-0.0006980946054682136,-0.00017827190458774567,0.0007483917288482189
1773789898291935000,10.41293505859375,-0.0008815538603812456,-0.0004433183930814266,0.00007751956582069397
1773789898311899000,10.43289892578125,-0.0015800304245203733,0.00011210725642740726,0.0015391455963253975
1773789898331864000,10.452864013671874,0.001810255111195147,-0.00036777998320758343,0.001201612874865532
1773789898351829000,10.4728291015625,0.0017997976392507553,0.0001263932790607214,0.001167920883744955
1773789898371793200,10.492793212890625,0.0015791773330420256,0.00025501474738121033,0.0021704896353185177
1773789898391758000,10.512758056640624,-0.00008132221410050988,0.0004504825919866562,0.0018084710463881493
1773789898411723300,10.53272314453125,-0.0012183329090476036,0.00016592652536928654,-0.000562635250389576
1773789898431687200,10.552687255859375,0.0005210229428485036,-0.00005974015220999718,0.00022179633378982544
1773789898451652000,10.572652099609375,-0.00010624644346535206,0.00021552364341914654,-0.000663351733237505
1773789898471617000,10.592616943359374,-0.00030157933360897005,-0.0001583972480148077,-0.00043408991768956184
1773789898491581000,10.612580810546875,-0.0006126595544628799,0.0004891378339380026,0.0010895757004618645
1773789898511546000,10.632546142578125,0.000442765187472105,0.00009051687084138393,0.0004904121160507202
1773789898531511000,10.652510986328124,-0.0006929344963282347,-0.0002388991415500641,0.0012339423410594463
1773789898551475000,10.672474853515626,0.0009894600370898843,0.00029695569537580013,-0.0014225156046450138
1773789898571439900,10.69243994140625,-0.0003718817315530032,-0.00033580674789845943,-0.00018399301916360855
1773789898591404800,10.71240478515625,0.0006512778345495462,0.0002659638412296772,0.001142649445682764
1773789898611369200,10.732369140625,-0.001131368218921125,-0.0004916419275105,-0.0002748938277363777
1773789898631334100,10.752334228515625,-0.0013151468010619283,0.000269151059910655,-0.0002284613437950611
1773789898651299000,10.772299072265625,-0.0015126904472708702,-0.0006596355233341455,-0.0004494483582675457
1773789898671263000,10.792262939453124,0.000038658385165035725,-0.00013531744480133057,0.000024623703211545944
1773789898691228000,10.812227783203125,-0.00011933018686249852,0.0004825782962143421,0.0003665657714009285
1773789898711193000,10.832193115234375,0.0012315078638494015,0.0010063485242426395,0.00013239355757832527
1773789898731157000,10.852156982421874,0.00029013221501372755,-0.0003360556438565254,0.0005207653157413006
1773789898751122000,10.872121826171876,-0.0005907388404011726,-0.0009732372127473354,-0.0007004220969974995
1773789898771086800,10.8920869140625,0.00042114630923606455,-0.0003811188507825136,0.00045113731175661087
1773789898791051000,10.912051025390625,-0.00028920790646225214,0.00009910017251968384,-0.00023450003936886787
1773789898811016200,10.93201611328125,-0.00026343323406763375,0.0005415007472038269,0.00033753085881471634
1773789898830981000,10.951981201171876,-0.00003584666410461068,-0.0004448746331036091,0.0009027146734297276
1773789898850945000,10.971945068359375,0.0006446534534916282,0.0004056848119944334,0.0002575293183326721
1773789898870910000,10.991909912109374,0.0008262105984613299,0.0003251507878303528,-0.0007986421696841717
1773789898890875100,11.011875244140626,0.0001151182223111391,0.00004684366285800934,-0.001481347717344761
1773789898910839000,11.031839111328125,-0.00022179921506904066,-0.00048000854440033436,0.0010296022519469261
1773789898930804000,11.051803955078125,0.00034133822191506624,0.001329881022684276,0.00013918429613113403
1773789898950769000,11.071768798828124,0.0008492416236549616,0.00015840795822441578,-0.00012854300439357758
1773789898970732800,11.09173291015625,-0.00034434895496815443,-0.00041941856034100056,0.0004807193763554096
1773789898990698000,11.111697998046875,-0.0016544302925467491,0.0008895262144505978,0.0007007136009633541
1773789899010663000,11.131662841796874,0.0002510106423869729,0.000342753017321229,0.0005899998359382153
1773789899030627000,11.151626953125,0.0011089576873928308,0.0005223231855779886,-0.0015323059633374214
1773789899050592000,11.171592041015625,0.002324915723875165,0.00005730101838707924,-0.00017325067892670631
1773789899070557200,11.19155712890625,0.0007500872598029673,-0.000519702211022377,0.0010774102993309498
1773789899090521000,11.21152099609375,-0.00010025108349509537,0.0007985285483300686,0.0009024678729474545
1773789899110486000,11.231486083984375,0.0005753298755735159,0.0005758104380220175,0.00009123468771576881
1773789899130451200,11.251451171875,0.0007519361097365618,-0.0005082630086690187,-0.0007843822240829468
1773789899150415000,11.2714150390625,0.00017221891903318465,-0.0010636602528393269,0.0000037178397178649902
1773789899170380000,11.291380126953126,0.0015359611716121435,0.0009581840131431818,0.00004548020660877228
1773789899190345000,11.311344970703125,-0.00046183227095752954,-0.0007228932809084654,0.00008817901834845543
1773789899210309000,11.33130908203125,0.0007845812360756099,0.00004374934360384941,0.00011827889829874039
1773789899230274300,11.3512744140625,-0.0005021534743718803,-0.000662987120449543,-0.0011997539550065994
1773789899250239200,11.3712392578125,0.00031611445592716336,0.0004073560703545809,0.0005940231494605541
1773789899270203100,11.391203125,0.00020003411918878555,-0.00043147336691617966,-0.0004332764074206352
1773789899290168000,11.41116796875,0.0008960065897554159,0.0011249424424022436,-0.0016102227382361889
1773789899310133200,11.43113330078125,0.0008758039330132306,-0.0003522562328726053,-0.00032713403925299644
1773789899330097200,11.45109716796875,-0.0010546717094257474,-0.001083343056961894,0.0008340151980519295
1773789899350062000,11.47106201171875,0.0008191087981685996,0.0006707534193992615,-0.0007746214978396893
1773789899370027000,11.491027099609376,-0.000010633841156959534,0.0001435750164091587,-0.00025426875799894333
1773789899389991200,11.5109912109375,0.0006017270497977734,-0.0008062820415943861,0.0011605755425989628
1773789899409956000,11.5309560546875,0.0010108076967298985,0.0006525495555251837,-0.0011096587404608727
1773789899429921000,11.550921142578124,-0.0005690313410013914,0.00003863265737891197,0.0007232483476400375
1773789899449885200,11.57088525390625,0.00041463461820967495,-0.0004905848763883114,-0.00037975749000906944
1773789899469850000,11.59085009765625,0.00003285350976511836,0.0012564307544380426,0.00028323428705334663
1773789899489815300,11.610815185546874,-0.0004962000530213118,-0.0011612663511186838,0.0022163582034409046
1773789899509779200,11.630779296875,0.000350132497260347,0.00026704370975494385,0.00029839714989066124
1773789899529744100,11.650744140625,-0.0014102838467806578,-0.0011471942998468876,-0.000303526408970356
1773789899549709000,11.670708984375,0.00017936824588105083,0.00019492371939122677,0.00033984333276748657
1773789899569673000,11.6906728515625,-0.00023091761977411807,0.0005436199717223644,0.000057460274547338486
1773789899589638100,11.71063818359375,0.0004473023291211575,-0.0005714511498808861,-0.0006692735478281975
1773789899609603000,11.73060302734375,0.0007319117430597544,0.0004996736533939838,-0.00010047527030110359
1773789899629567200,11.750567138671874,-0.000004120898665860295,0.001139722764492035,-0.0008744238875806332
1773789899649532200,11.7705322265625,0.0011149755446240306,0.00010121753439307213,-0.00005476875230669975
1773789899669497300,11.790497314453125,0.0016332431696355343,0.0005847841966897249,-0.0005261744372546673
1773789899689461200,11.810461181640624,-0.0005538475816138089,-0.000011062249541282654,-0.000370807945728302
1773789899709426200,11.83042626953125,-0.00006715377094224095,0.00004148529842495918,0.0008712708950042725
1773789899729391000,11.85039111328125,-0.00032399591873399913,0.0005561846774071455,0.0014137467369437218
1773789899749355000,11.87035498046875,-0.0004950089496560395,-0.00007688626646995544,0.00028819357976317406
1773789899769320200,11.8903203125,-0.0008829440921545029,0.00005489843897521496,-0.00021515460684895515
1773789899789285000,11.91028515625,-0.0005509048351086676,0.0004030002746731043,-0.0005560051649808884
1773789899809249300,11.930249267578125,0.00003713983460329473,0.00009381584823131561,-0.0006573772989213467
1773789899829214200,11.950214111328124,0.00007255052332766354,0.000029363203793764114,0.0008001239039003849
1773789899849179100,11.97017919921875,-0.0007317198324017227,0.0001784281339496374,-0.000016096513718366623
1773789899869143300,11.990143310546875,-0.000636201468296349,0.00019025802612304688,0.0009196731261909008
1773789899889108200,12.010108154296875,-0.0005880541866645217,-0.001400357112288475,0.0007265065796673298
1773789899909073200,12.0300732421875,-0.0000688445579726249,-0.0011399006471037865,-0.00039717787876725197
1773789899929037000,12.050037109375,0.00010187301086261868,-0.00042088283225893974,0.00013425154611468315
1773789899949002000,12.070001953125,-0.0003252487804275006,0.00005950033664703369,-0.0010114125907421112
1773789899968967200,12.08996728515625,-0.0007366444333456457,0.00013872142881155014,0.0012110518291592598
1773789899988931000,12.10993115234375,0.0004154589551035315,-0.0002352059818804264,-0.0003554723225533962
1773789900008896000,12.12989599609375,-0.0005577905103564262,-0.001248582499101758,0.0002757534384727478
1773789900028861000,12.14986083984375,-0.000489229743834585,0.0007134361658245325,0.0003113141283392906
1773789900048825300,12.169825439453126,0.0010354496771469712,-0.00013664737343788147,0.00008247047662734985
1773789900068790300,12.189790283203125,0.001002866541966796,0.000004042638465762138,0.00008269725367426872
1773789900088755200,12.209755126953125,-0.000301605265121907,-0.00048479181714355946,-0.00004645343869924545
1773789900108719000,12.229718994140624,0.00043113704305142164,0.000706769060343504,0.00040469877421855927
1773789900128684000,12.24968408203125,0.0014652139507234097,-0.0003613545559346676,0.0006167776882648468
1773789900148649200,12.269649169921875,0.0013529910938814282,-0.001000583404675126,-0.0006333962082862854
1773789900168613000,12.289613037109374,-0.0004436334711499512,0.0010744633618742228,-0.0001734360121190548
1773789900188578000,12.309578125,0.0007089589489623904,0.00007134280167520046,0.0006463681347668171
1773789900208543000,12.32954296875,0.0005068785394541919,-0.0006328553427010775,0.0002156202681362629
1773789900228508200,12.349508056640625,0.0012044431641697884,0.0018579441821202636,0.0007282192818820477
1773789900248472300,12.369472412109374,0.0010640909895300865,0.0013292263029143214,0.00013789627701044083
1773789900268437200,12.389437255859375,-0.0000201872899197042,0.00038667116314172745,-0.0018309750594198704
1773789900288402200,12.409402099609375,0.001382353133521974,-0.000007814262062311172,0.0005494514480233192
1773789900308366000,12.429365966796874,-0.002945808693766594,-0.0002554126549512148,0.0009640958160161972
1773789900328331300,12.449331298828126,-0.0004784802731592208,0.00031262380070984364,0.0009542657062411308
1773789900348296200,12.469296142578125,0.0006207638652995229,0.0007450629491358995,0.000765740405768156
1773789900368260000,12.489260009765625,-0.0009427328477613628,0.00031850626692175865,-0.00007617752999067307
1773789900388225000,12.50922509765625,0.000059257930843159556,0.00014381320215761662,-0.00022113043814897537
1773789900408190200,12.529190185546875,-0.0001137268845923245,-0.0007360870949923992,-0.001359801273792982
1773789900428154000,12.549154052734375,-0.0004152613691985607,-0.0014762317296117544,-0.0009743226692080498
1773789900448119000,12.569119140625,-0.0007985222619026899,-0.0008278884924948215,0.0008436944335699081
1773789900468084200,12.589084228515626,-0.0012423431035131216,0.0003684978000819683,-0.0006886622868478298
1773789900488048000,12.609048095703125,0.0007775861886329949,-0.0006700670346617699,0.0002171183004975319
1773789900508013300,12.629013427734375,0.0004629441536962986,0.00019088154658675194,0.0013936539180576801
1773789900527978200,12.648978271484374,0.0014251740649342537,-0.0007452466525137424,-0.0002679191529750824
1773789900547942100,12.668942138671875,0.000724642479326576,0.0002765741664916277,0.0010942951776087284
1773789900567907000,12.688906982421875,0.000375310453819111,-0.00033392361365258694,-0.0008010095916688442
1773789900587872000,12.7088720703125,-0.0015757232904434204,-0.0005972313228994608,-0.00006424728780984879
1773789900607836200,12.728836181640625,0.0001977932552108541,0.0028429622761905193,0.0005185399204492569
1773789900627801000,12.748801025390625,0.00043791241478174925,-0.000059093115851283073,0.0006705974228680134
1773789900647766000,12.76876611328125,0.0001568989537190646,0.00011012726463377476,-0.0009192582219839096
1773789900667730200,12.788730224609376,0.0011160412104800344,-0.0014190408401191235,0.0019045011140406132
1773789900687695400,12.8086953125,0.00015647264081053436,-0.0010458591859787703,-0.0004219920374453068
1773789900707660300,12.828660400390625,0.0015017387922853231,-0.00028408458456397057,0.0007302183657884598
1773789900727624200,12.848624267578124,0.00023843122471589595,-0.0004834590945392847,-0.000612480565905571
1773789900747589000,12.868589111328125,-0.0008020134409889579,-0.0008511843625456095,-0.00011639203876256943
1773789900767554000,12.888553955078125,-0.00030450255144387484,-0.0007006831001490355,-0.00017065973952412605
1773789900787518200,12.908518310546874,0.0007518250495195389,0.0005691894330084324,-0.00044056540355086327
1773789900807483100,12.928483154296876,0.0006093852571211755,-0.00018262770026922226,0.0005535921081900597
1773789900827448000,12.948447998046875,0.000428197905421257,-0.0001757622230798006,0.00004940573126077652
1773789900847413000,12.9684130859375,-0.000060370570281520486,0.0004089917056262493,0.000407930463552475
1773789900867377200,12.988377197265624,0.00030290050199255347,0.0003555961884558201,0.0008899164386093616
1773789900887342300,13.00834228515625,0.00017350769485346973,-0.0005354417953640223,0.00013402896001935005
1773789900907307300,13.028307373046875,-0.00033358458313159645,-0.00008441787213087082,-0.0005311514250934124
1773789900927271200,13.048271240234374,-0.0003330936888232827,0.0006674642208963633,-0.0000029704533517360687
1773789900947236000,13.068236083984376,-0.0012488854117691517,-0.0003338344395160675,0.00012981519103050232
1773789900967201300,13.088201171875,0.001273869420401752,-0.000501016853377223,0.00030802981927990913
