time,seconds_elapsed,z,y,x
1773789887943976700,0.064976806640625,-0.0012607404496520758,-0.0030663637444376945,-0.007215568795800209
1773789887963941600,0.084941650390625,0.0002663161139935255,-0.0031310785561800003,-0.005319397896528244
1773789887983906600,0.104906494140625,-0.0002620550512801856,-0.0022831279784440994,-0.005050152540206909
1773789888003870500,0.124870361328125,-0.001273523666895926,-0.003931358456611633,-0.004788629710674286
1773789888023835600,0.144835693359375,0.0008849684381857514,-0.001898301183246076,-0.006138852797448635
1773789888043800600,0.164800537109375,0.0011267834343016148,-0.0021584921050816774,-0.005958556663244963
1773789888063764700,0.1847646484375,0.000011984225238848012,-0.0030474551022052765,-0.0056741307489573956
1773789888083729700,0.204729736328125,-0.000015978966985130683,-0.003181145992130041,-0.005507949739694595
1773789888103694600,0.224694580078125,-0.000070307454734575,-0.002630404196679592,-0.005873335525393486
1773789888123659500,0.244659423828125,-0.0014562164433300495,-0.003869839245453477,-0.0057127466425299644
1773789888143624000,0.2646240234375,0.000011984225238848012,-0.0023105584550648928,-0.00441019469872117
1773789888163588900,0.2845888671875,-0.000035686356568476185,-0.003982757218182087,-0.005658152047544718
1773789888183553800,0.3045537109375,-0.0004495415778364986,-0.003921770956367254,-0.006645385641604662
1773789888203517700,0.324517578125,-0.0005163869354873896,-0.0015805860748514533,-0.006252569612115622
1773789888223483000,0.34448291015625,0.0005494101205840707,-0.0031728900503367186,-0.007789213676005602
1773789888243447800,0.36444775390625,-0.00042104575550183654,-0.002495914464816451,-0.006822485942393541
1773789888263411700,0.38441162109375,-0.002837598090991378,-0.001954493811354041,-0.006043511442840099
1773789888283376600,0.404376708984375,-0.00034700988908298314,-0.0026727484073489904,-0.0038725025951862335
1773789888303341600,0.424341552734375,0.0006167881074361503,-0.00361737166531384,-0.00541500560939312
1773789888323306800,0.444306640625,-0.001374723738990724,-0.002537193475291133,-0.005036570131778717
1773789888343270700,0.464270751953125,-0.0010215885704383254,-0.002364886924624443,-0.006627010181546211
1773789888363235800,0.48423583984375,0.00042583944741636515,-0.003291134489700198,-0.005703425966203213
1773789888383200800,0.50420068359375,0.00037950044497847557,-0.002945456188172102,-0.006820355542004108
1773789888403164700,0.52416455078125,0.0015374429058283567,-0.003269829088822007,-0.00660570478066802
1773789888423129900,0.5441298828125,0.000639424950350076,-0.0018253305461257696,-0.005624329671263695
1773789888443094800,0.5640947265625,0.0002359560749027878,-0.0033896714448928833,-0.0034679684322327375
1773789888463059700,0.584059814453125,-0.0004617921367753297,-0.004759601317346096,-0.002597647253423929
1773789888483023600,0.604023681640625,-0.0009294432238675654,-0.012774917297065258,0.0004551342281047255
1773789888502988800,0.62398876953125,-0.0031281490810215473,-0.006858705077320337,0.009254484437406063
1773789888522953700,0.64395361328125,-0.00390259618870914,0.005050684791058302,0.011326423846185207
1773789888542917600,0.663917724609375,0.007023554760962725,-0.0019265307346358895,-0.01062201801687479
1773789888562882600,0.683882568359375,0.010899519547820091,-0.0041457428596913815,-0.014396782033145428
1773789888582847700,0.70384765625,0.006779076531529427,-0.00583631731569767,-0.01715874671936035
1773789888602812000,0.72381201171875,-0.010092581622302532,-0.002031192881986499,-0.010914432816207409
1773789888622776800,0.74377685546875,-0.013373595662415028,-0.0026463831309229136,-0.0018959043081849813
1773789888642741800,0.76374169921875,-0.0018610169645398855,-0.008956477046012878,-0.003817375050857663
1773789888662706700,0.783706787109375,0.005544967483729124,-0.004523645620793104,0.0017566210590302944
1773789888682670800,0.8036708984375,0.005101284943521023,-0.003061037277802825,-0.00512738386169076
1773789888702635800,0.8236357421875,0.0023339942563325167,-0.003314037574455142,-0.003493002150207758
1773789888722600700,0.8436005859375,-0.002326803747564554,-0.004197407979518175,-0.006444850005209446
1773789888742564600,0.863564697265625,-0.002258360618725419,-0.006915164180099964,-0.006449643522500992
1773789888762529500,0.883529541015625,0.001202150946483016,-0.004334561061114073,-0.0054733287543058395
1773789888782494700,0.90349462890625,0.004852013196796179,-0.004805407952517271,-0.0067660268396139145
1773789888802459000,0.923458984375,0.0019459717441350222,-0.004723382648080587,-0.003808586625382304
1773789888822423800,0.943423828125,0.0000756337758502923,-0.004280232358723879,-0.0043777041137218475
1773789888842388700,0.963388671875,-0.0031459920573979616,-0.0041396175511181355,-0.0038035267498344183
1773789888862354000,0.98335400390625,-0.0010303769959136844,-0.0045585329644382,-0.004257062915712595
1773789888882317800,1.00331787109375,0.0016405072528868914,-0.004483431577682495,-0.005431783385574818
1773789888902282800,1.02328271484375,0.0014002900570631027,-0.004157727118581533,-0.006602508947253227
1773789888922247700,1.04324755859375,-0.0009038768475875258,-0.00600462919101119,-0.00353428116068244
1773789888942211600,1.063211669921875,-0.0021254688035696745,-0.004039482679218054,-0.00466505903750658
1773789888962176800,1.0831767578125,0.001636246219277382,-0.0038868836127221584,-0.006603041663765907
1773789888982141700,1.1031416015625,0.0022770026698708534,-0.0030131004750728607,-0.005243764258921146
1773789889002106600,1.123106689453125,0.0017869811272248626,-0.00443895673379302,-0.004583033733069897
1773789889022070500,1.143070556640625,-0.0009760485263541341,-0.005085306242108345,-0.008138353936374187
1773789889042035700,1.16303564453125,-0.0025443839840590954,-0.00367116741836071,-0.0040823593735694885
1773789889062000600,1.183000732421875,-0.0030892668291926384,-0.003908987622708082,-0.0035569178871810436
1773789889081964800,1.20296484375,-0.0013496900210157037,-0.0023150858469307423,-0.0049561429768800735
1773789889101929700,1.2229296875,0.000904409505892545,-0.004258394706994295,-0.005203816574066877
1773789889121895000,1.24289501953125,0.0007182545377872884,-0.0034141724463552237,-0.005108475685119629
1773789889141859800,1.26285986328125,0.0008186557097360492,-0.0031699605751782656,-0.005349758081138134
1773789889161823700,1.28282373046875,0.0013440974289551377,-0.003397927153855562,-0.005043494515120983
1773789889181788700,1.30278857421875,-0.0010226538870483637,-0.003343598684296012,-0.004928978625684977
1773789889201753600,1.322753662109375,-0.0005182511522434652,-0.0028479844331741333,-0.0060176788829267025
1773789889221717800,1.3427177734375,-0.0017622136510908604,-0.002104163635522127,-0.0051537491381168365
1773789889241682700,1.3626826171875,-0.002695385366678238,-0.00236302288249135,-0.00640729907900095
1773789889261647600,1.382647705078125,0.00004367584188003093,-0.0041582598350942135,-0.004593686666339636
1773789889281612500,1.402612548828125,-0.00029401297797448933,-0.002037051832303405,-0.005803294479846954
1773789889301576700,1.42257666015625,-0.0004391552647575736,-0.0038541266694664955,-0.005586779210716486
1773789889321542000,1.4425419921875,0.002183792181313038,-0.0028996497858315706,-0.004453604109585285
1773789889341506800,1.4625068359375,0.0017805894603952765,-0.0029699571896344423,-0.0031585090328007936
1773789889361470700,1.482470703125,0.0007158577209338546,-0.002906307578086853,-0.004308462142944336
1773789889381435600,1.502435546875,-0.001612544059753418,-0.00336197461001575,-0.004269579891115427
1773789889401400800,1.52240087890625,-0.0011805793037638068,-0.0028613002505153418,-0.005852562841027975
1773789889421365800,1.54236572265625,-0.0006729807937517762,-0.0036996633280068636,-0.005912217777222395
1773789889441329700,1.56232958984375,-0.0017622136510908604,-0.003029345767572522,-0.006825948134064674
1773789889461294600,1.582294677734375,-0.00021145498612895608,-0.0035028557758778334,-0.006040315609425306
1773789889481259800,1.602259765625,-0.000523843802511692,-0.003941478207707405,-0.005712480284273624
1773789889501224700,1.622224609375,0.000523843802511692,-0.0025486452504992485,-0.00427357479929924
1773789889521188600,1.642188720703125,0.0021608888637274504,-0.00455693481490016,-0.005437642335891724
1773789889541153800,1.66215380859375,0.00039707732503302395,-0.0034727619495242834,-0.00526613462716341
1773789889561118700,1.68211865234375,-0.0011193265672773123,-0.0031017838045954704,-0.005175320897251368
1773789889581083000,1.702082763671875,0.0005217132274992764,-0.0038187066093087196,-0.005560946650803089
1773789889601047800,1.7220478515625,-0.0001233043585671112,-0.0033417344093322754,-0.006454170681536198
1773789889621012700,1.7420126953125,-0.0008205199264921248,-0.003677292726933956,-0.006351372692734003
1773789889640977700,1.761977783203125,-0.000996554852463305,-0.0018042916199192405,-0.005586779210716486
1773789889660941800,1.78194189453125,0.00017550231132190675,-0.00256435782648623,-0.005544967483729124
1773789889680906800,1.80190673828125,0.0004543352697510272,-0.0030426615849137306,-0.004612861201167107
1773789889700871700,1.82187158203125,-0.00033156355493701994,-0.005178783088922501,-0.0035776905715465546
1773789889720836600,1.841836669921875,-0.0002924150903709233,-0.002716158051043749,-0.003867708845064044
1773789889740800500,1.861800537109375,-0.002359294332563877,-0.005081844050437212,-0.006359096150845289
1773789889760765700,1.881765625,-0.0010602044640108943,-0.003108175238594413,-0.005945773329585791
1773789889780730600,1.901730712890625,-0.0011853729374706745,-0.001886317040771246,-0.005783586762845516
1773789889800695600,1.921695556640625,-0.0002942793071269989,-0.002868490759283304,-0.006027265917509794
1773789889820659700,1.94165966796875,-0.0011081412667408586,-0.004150536376982927,-0.005894108209758997
1773789889840625000,1.961625,-0.0007582019316032529,-0.0031875374261289835,-0.008017180487513542
1773789889860589800,1.98158984375,-0.0003712446487043053,-0.0025995115283876657,-0.0049191247671842575
1773789889880553700,2.0015537109375,-0.0004966795677319169,-0.003581685246899724,-0.005782255437225103
1773789889900518700,2.0215185546875,-0.0008966863388195634,-0.0046852994710206985,-0.0060051619075238705
1773789889920483800,2.04148388671875,0.00010572749306447804,-0.0028815402183681726,-0.006355367600917816
1773789889940448800,2.06144873046875,-0.00016058860637713224,-0.002694852650165558,-0.006362025626003742
1773789889960412700,2.08141259765625,-0.0008341020438820124,-0.0022857910953462124,-0.006256031803786755
1773789889980377600,2.101377685546875,0.000565122754778713,-0.003947603516280651,-0.005377188324928284
1773789890000342800,2.1213427734375,-0.00022530343267135322,-0.002856240142136812,-0.005263737868517637
1773789890020307700,2.1413076171875,-0.00006072007090551779,-0.0036996633280068636,-0.004515123087912798
1773789890040272000,2.16127197265625,-0.000895621080417186,-0.004180896561592817,-0.004826979245990515
1773789890060237000,2.181237060546875,0.0003448793722782284,-0.003210440743714571,-0.0049590724520385265
1773789890080202000,2.201201904296875,-0.00006205165118444711,-0.003406449221074581,-0.0065319351851940155
1773789890100167000,2.2211669921875,0.00015393071225844324,-0.003072755178436637,-0.005440571811050177
1773789890120131000,2.241131103515625,-0.0010183927370235324,-0.0029342707712203264,-0.0049588060937821865
1773789890140096000,2.261095947265625,-0.0015222628135234118,-0.0015108112711459398,-0.005854160524904728
1773789890160061200,2.281061279296875,-0.0005885586142539978,-0.002517219865694642,-0.006207029335200787
1773789890180026000,2.301026123046875,0.0006079996819607913,-0.002942260354757309,-0.006061887368559837
1773789890199990000,2.320989990234375,0.0015363775892183185,-0.0024804682470858097,-0.004882107023149729
1773789890219955000,2.340954833984375,0.001178182428702712,-0.003099386813119054,-0.004287955816835165
1773789890239920000,2.360920166015625,0.0005318332696333528,-0.002630137838423252,-0.006945257540792227
1773789890259885000,2.380885009765625,0.0003832288784906268,-0.00316037330776453,-0.005041896365582943
1773789890279850000,2.40085009765625,-0.0006271744496189058,-0.0031220237724483013,-0.0059990365989506245
1773789890299814000,2.42081396484375,-0.0012026835465803742,-0.003822967642918229,-0.0044410875998437405
1773789890319778800,2.44077880859375,-0.0018485001055523753,-0.002993126632645726,-0.003977164626121521
1773789890339744000,2.460743896484375,-0.0006314354832284153,-0.0030892668291926384,-0.004595284350216389
1773789890359709000,2.480708984375,-0.00028043086058460176,-0.0018434401135891676,-0.007139136083424091
1773789890379673000,2.500673095703125,0.00019148127466905862,-0.0018847191240638494,-0.006888266187161207
1773789890399638000,2.520637939453125,-0.0011672634864225984,-0.0027332021854817867,-0.007397196255624294
1773789890419603200,2.540603271484375,0.00003328951424919069,-0.00227939966134727,-0.0036852823104709387
1773789890439568100,2.560568115234375,0.0003842941368930042,-0.003163302782922983,-0.005547896958887577
1773789890459532000,2.580531982421875,0.0006013417732901871,-0.002154231071472168,-0.0067604342475533485
1773789890479497000,2.6004970703125,-0.0004218447138555348,-0.0036312201991677284,-0.005592371802777052
1773789890499462100,2.620462158203125,-0.0005550027708522975,-0.003506850451231003,-0.005254416726529598
1773789890519427000,2.640427001953125,-0.00044581317342817783,-0.002814961364492774,-0.005599828902631998
1773789890539391000,2.660390869140625,-0.0012455604737624526,-0.0026786073576658964,-0.006615558639168739
1773789890559356000,2.68035595703125,-0.001511343871243298,-0.0024314660113304853,-0.004228833597153425
1773789890579320800,2.70032080078125,0.0004426173691172153,-0.0035779569298028946,-0.0057068876922130585
1773789890599286000,2.7202861328125,-0.0008681904873810709,-0.002615224104374647,-0.00507065886631608
1773789890619250200,2.740250244140625,-0.0002596582053229213,-0.002351038623601198,-0.005081311333924532
1773789890639215000,2.760215087890625,0.00009853696246864274,-0.0043657198548316956,-0.005901032127439976
1773789890659180000,2.780179931640625,-0.0003504719934426248,-0.003909253980964422,-0.005792907904833555
1773789890679145200,2.800145263671875,-0.00029827404068782926,-0.0028184233233332634,-0.005912217777222395
1773789890699109000,2.820109130859375,0.0002069276088150218,-0.0030389330349862576,-0.006733270362019539
1773789890719074000,2.840073974609375,-0.0005787048721686006,-0.0029494508635252714,-0.007048321887850761
1773789890739039000,2.8600390625,-0.0003802994033321738,-0.0017302557826042175,-0.006749781779944897
1773789890759004200,2.880004150390625,-0.0011544802691787481,-0.0025009745731949806,-0.005094094667583704
1773789890778968000,2.899968017578125,-0.00005326322207110934,-0.003581951605156064,-0.005892510060220957
1773789890798933000,2.91993310546875,-0.0006780407857149839,-0.003385144053027034,-0.006415288895368576
1773789890818898000,2.93989794921875,0.000945954816415906,-0.00221921200864017,-0.005221393425017595
1773789890838863000,2.959863037109375,0.0002609897928778082,-0.0016887104138731956,-0.007062969263643026
1773789890858827000,2.979826904296875,-0.0003515372518450022,-0.0031438616570085287,-0.006256830412894487
1773789890878792000,2.9997919921875,-0.0012389025650918484,-0.0029467877466231585,-0.005578257143497467
1773789890898756900,3.0197568359375,-0.000952080066781491,-0.00145195540972054,-0.005339371506124735
1773789890918721800,3.0397216796875,-0.0007182545377872884,-0.0032799490727484226,-0.007690410129725933
1773789890938686200,3.059686279296875,0.0009145294898189604,-0.0030980552546679974,-0.004577174782752991
1773789890958651100,3.079651123046875,-0.0008370315190404654,-0.0030370689928531647,-0.0059686764143407345
1773789890978616000,3.099615966796875,0.00036432043998502195,-0.002133458387106657,-0.005818208213895559
1773789890998581000,3.1195810546875,-0.0008165251929312944,-0.0031846079509705305,-0.005393167492002249
1773789891018545000,3.139544921875,0.000007989483492565341,-0.004467452876269817,-0.004363056737929583
1773789891038510000,3.159510009765625,0.00011824435205198824,-0.00498224189504981,-0.0051654670387506485
1773789891058475300,3.179475341796875,-0.00031611722079105675,-0.00404640706256032,-0.005411010701209307
1773789891078440200,3.199440185546875,-0.0008261125767603517,-0.003382214577868581,-0.006228334736078978
1773789891098404000,3.219404052734375,-0.0017699368763715029,-0.0029137644451111555,-0.004346545320004225
1773789891118369300,3.239369384765625,-0.0012863067677244544,-0.0031193606555461884,-0.007000918034464121
1773789891138334200,3.259334228515625,-0.000055660068028373644,-0.0035420041531324387,-0.0065348646603524685
1773789891158299100,3.279299072265625,-0.0011073424248024821,-0.00333214714191854,-0.0063002402894198895
1773789891178264000,3.29926416015625,-0.00040240364614874125,-0.002799781272187829,-0.005331115797162056
1773789891198228200,3.319228271484375,-0.0016072177095338702,-0.0022000374738126993,-0.006367618218064308
1773789891218193400,3.339193359375,0.00037630466977134347,-0.002528405049815774,-0.005332181230187416
1773789891238158300,3.359158447265625,0.0001448759576305747,-0.003365170443430543,-0.0068054418079555035
1773789891258123300,3.379123291015625,-0.0016793893883004785,-0.0038336203433573246,-0.006298109423369169
1773789891278087200,3.399087158203125,0.0014306501252576709,-0.003166498616337776,-0.005185973364859819
1773789891298052400,3.41905224609375,-0.0002372876479057595,-0.0029435919132083654,-0.0037116475868970156
1773789891318017300,3.439017333984375,-0.0009345032158307731,-0.0016508935950696468,-0.005208876915276051
1773789891337982200,3.458982177734375,-0.002460494404658675,-0.0022594258189201355,-0.0054826498962938786
1773789891357946000,3.478946044921875,-0.0012687299167737365,-0.0025366609916090965,-0.005415804218500853
1773789891377911300,3.498911376953125,-0.00032330775866284966,-0.0020413128659129143,-0.0037238982040435076
1773789891397876200,3.518876220703125,-0.00177899154368788,-0.0035859462805092335,-0.0060027651488780975
1773789891417841200,3.538841064453125,0.0005137237603776157,-0.0022620889358222485,-0.007003048434853554
1773789891437805000,3.55880517578125,0.000806138850748539,-0.0032655680552124977,-0.006336991675198078
1773789891457770200,3.578770263671875,-0.0005928196478635073,-0.002944923471659422,-0.005882123950868845
1773789891477735200,3.598735107421875,-0.0011771172285079956,-0.0044205812737345695,-0.006688262801617384
1773789891497700000,3.6187001953125,0.0002759034978225827,-0.003316967049613595,-0.006670685950666666
1773789891517664300,3.638664306640625,0.0006263754912652075,-0.003745203372091055,-0.005636580288410187
1773789891537629200,3.658629150390625,-0.0004913532175123692,-0.00350392097607255,-0.0070397998206317425
1773789891557594400,3.678594482421875,-0.0007866977830417454,-0.002974484581500292,-0.006337258033454418
1773789891577559300,3.698559326171875,-0.00004793690095539205,-0.003611779073253274,-0.0037230991292744875
1773789891597523200,3.718523193359375,-0.00023089606838766485,-0.004142280668020248,-0.0054269894026219845
1773789891617488100,3.738488037109375,0.0009811085183173418,-0.0027294738683849573,-0.006253900937736034
1773789891637453300,3.758453369140625,0.001208009896799922,-0.0041792988777160645,-0.0051966262981295586
1773789891657417200,3.778417236328125,0.000577107013668865,-0.002368881832808256,-0.005555087700486183
1773789891677382100,3.798382080078125,-0.00028096348978579044,-0.003593935864046216,-0.006051767151802778
1773789891697347000,3.81834716796875,0.000059921123465755954,-0.004397145472466946,-0.0052376389503479
1773789891717312300,3.838312255859375,-0.000011451592399680521,-0.0024839304387569427,-0.006343649700284004
1773789891737277200,3.858277099609375,-0.0009672601008787751,-0.0037499971222132444,-0.004265851341187954
1773789891757241300,3.878241455078125,0.0007265103631652892,-0.004102599807083607,-0.006055229343473911
1773789891777206300,3.898206298828125,-0.001698830397799611,-0.0032256206031888723,-0.005910885985940695
1773789891797171200,3.918171142578125,-0.0024860608391463757,-0.00221947836689651,-0.005406749434769154
1773789891817136400,3.938136474609375,-0.000009853695701167453,-0.002814162289723754,-0.005387042183429003
1773789891837100300,3.958100341796875,0.0012058793799951673,-0.0030117689166218042,-0.0059838565066456795
1773789891857065200,3.978065185546875,-0.0015614113071933389,-0.004178766161203384,-0.005399292800575495
1773789891877030100,3.998030029296875,-0.0004956142511218786,-0.00427304208278656,-0.0048437574878335
1773789891896995300,4.017995361328125,0.00035366779775358737,-0.004196875728666782,-0.006842459551990032
1773789891916959200,4.037959228515625,-0.001660480978898704,-0.0026530411560088396,-0.005856823641806841
1773789891936924200,4.057924072265625,-0.0006612628931179643,-0.0038637141697108746,-0.00606268597766757
1773789891956889000,4.07788916015625,0.0007342335302382708,-0.001913214917294681,-0.004862932022660971
1773789891976853200,4.097853271484375,-0.0009808422764763236,-0.003156378399580717,-0.0048975530080497265
1773789891996818400,4.117818359375,0.00021012341312598437,-0.002936667762696743,-0.005828061606734991
1773789892016783400,4.137783447265625,-0.0002181128947995603,-0.0033782199025154114,-0.00501153664663434
1773789892036748300,4.157748291015625,-0.0017691379180178046,-0.0028850024100393057,-0.005297559779137373
1773789892056712200,4.177712158203125,0.0007068029372021556,-0.004236556589603424,-0.0056983656249940395
1773789892076676600,4.197676513671875,-0.0008000136003829539,-0.0032205607276409864,-0.005431250669062138
1773789892096641500,4.2176416015625,0.0016753945965319872,-0.0034786208998411894,-0.00481419637799263
1773789892116606700,4.237606689453125,-0.00019760655413847417,-0.002415220718830824,-0.004733768757432699
1773789892136570600,4.257570556640625,-0.000300404557492584,-0.0033542513847351074,-0.004810467828065157
1773789892156535600,4.27753564453125,-0.001062068622559309,-0.003471430391073227,-0.005538043566048145
1773789892176500500,4.29750048828125,-0.00032676986302249134,-0.003992344718426466,-0.005846171174198389
1773789892196465400,4.31746533203125,-0.00019201391842216253,-0.005021922755986452,-0.00424188282340765
1773789892216429800,4.337429931640625,0.0019244002178311348,-0.0020000338554382324,-0.006193980108946562
1773789892236394800,4.357394775390625,-0.00010812433902174234,-0.0035055188927799463,-0.00628905463963747
1773789892256359700,4.377359619140625,-0.0005060005933046341,-0.002103897277265787,-0.005425924435257912
1773789892276324600,4.39732470703125,-0.0018455706303939223,-0.0036464000586420298,-0.006376673001796007
1773789892296288500,4.41728857421875,-0.0009675264009274542,-0.003040530951693654,-0.005870938766747713
1773789892316253700,4.437253662109375,-0.000437291048001498,-0.0022176143247634172,-0.006384129635989666
1773789892336218600,4.457218505859375,-0.0003038666909560561,-0.0030831415206193924,-0.005393966566771269
1773789892356183600,4.47718359375,0.0004780374001711607,-0.0016636766958981752,-0.0070581757463514805
1773789892376147500,4.4971474609375,-0.001288171042688191,-0.003483947366476059,-0.005472263321280479
1773789892396112600,4.517112548828125,0.0006354302167892456,-0.0032405343372374773,-0.006175870541483164
1773789892416077600,4.53707763671875,-0.0006295712664723396,-0.0031728900503367186,-0.006555637344717979
1773789892436041500,4.55704150390625,0.00014993596414569765,-0.0032772859558463097,-0.006490123458206654
1773789892456006400,4.57700634765625,-0.001047154888510704,-0.004336158744990826,-0.005343366414308548
1773789892475971600,4.5969716796875,0.001157143502496183,-0.0039113848470151424,-0.004811533261090517
1773789892495936500,4.6169365234375,-0.0002796319022309035,-0.004519384354352951,-0.0062544336542487144
1773789892515900700,4.636900634765625,0.00043516053119674325,-0.003739610780030489,-0.004761998075991869
1773789892535865600,4.656865478515625,-0.0015030881622806191,-0.002683667466044426,-0.005637912079691887
1773789892555830800,4.676830810546875,-0.0005539375124499202,-0.0026101642288267612,-0.005112203769385815
1773789892575795700,4.696795654296875,-0.00019760655413847417,-0.003960653208196163,-0.005028314422816038
1773789892595759600,4.716759521484375,0.0001699096756055951,-0.003087935270741582,-0.0057473680935800076
1773789892615724500,4.736724609375,-0.0010279801208525896,-0.002282062778249383,-0.005218730308115482
1773789892635689500,4.756689453125,0.00032623723382130265,-0.0024170849937945604,-0.007684551179409027
1773789892655654700,4.776654541015625,0.00029081720276735723,-0.0031382690649479628,-0.005368133541196585
1773789892675618600,4.79661865234375,-0.0019225359428673983,-0.0028727517928928137,-0.005920207127928734
1773789892695583500,4.81658349609375,-0.0001531317684566602,-0.0028248149901628494,-0.006030728109180927
1773789892715548400,4.83654833984375,-0.0002591255761217326,-0.0036136433482170105,-0.005090366117656231
1773789892735512600,4.8565126953125,-0.0007912251749075949,-0.00330338510684669,-0.004309527110308409
1773789892755477800,4.876477783203125,-0.00006391586794052273,-0.0031225562561303377,-0.006673349067568779
1773789892775442700,4.896442626953125,0.0006948187365196645,-0.0019451729021966457,-0.006966562941670418
1773789892795407600,4.91640771484375,0.00096086849225685,-0.0038538603112101555,-0.005212338641285896
1773789892815371500,4.93637158203125,-0.0009060074225999415,-0.003313771216198802,-0.006491987966001034
1773789892835336700,4.956336669921875,0.00024208133982028812,-0.003073820611461997,-0.007020891644060612
1773789892855301600,4.976301513671875,-0.0012511530658230186,-0.003236006945371628,-0.0068312743678689
1773789892875266600,4.9962666015625,-0.0007326356135308743,-0.0027776770293712616,-0.007090399973094463
1773789892895230500,5.01623046875,-0.0007994809420779347,-0.0024194817524403334,-0.005143363028764725
1773789892915195600,5.036195556640625,-0.0009009473724290729,-0.002808569697663188,-0.006710366811603308
1773789892935160600,5.05616064453125,0.0011094729416072369,-0.0033459956757724285,-0.005936185829341412
1773789892955124700,5.076124755859375,0.00021971078240312636,-0.0034943337086588144,-0.006491455249488354
1773789892975089700,5.096089599609375,-0.001237571006640792,-0.0023840616922825575,-0.005046157632023096
1773789892995054800,5.116054931640625,0.0004516721237450838,-0.0026133600622415543,-0.005419266410171986
1773789893015019800,5.136019775390625,-0.0009065400226972997,-0.0022218753583729267,-0.005423527676612139
1773789893034983700,5.155983642578125,-0.000838895735796541,-0.00250603468157351,-0.006579872220754623
1773789893054948600,5.175948486328125,-0.000663393409922719,-0.002523611532524228,-0.005742307752370834
1773789893074914300,5.195914306640625,-0.00007297061529243365,-0.00373055599629879,-0.005360144190490246
1773789893094879200,5.215879150390625,-0.0021949773654341698,-0.0034104441292583942,-0.006163087207823992
1773789893114843100,5.235843017578125,0.000291616132017225,-0.003236006945371628,-0.005916478578001261
1773789893134808000,5.25580810546875,0.00008868326403899118,-0.00256462418474257,-0.005286374595016241
1773789893154773200,5.275773193359375,-0.00034674355993047357,-0.00219524372369051,-0.006995324976742268
1773789893174737200,5.295737060546875,0.00008548746700398624,-0.004024036228656769,-0.005715409759432077
1773789893194702000,5.3157021484375,-0.0011744539951905608,-0.0037388119380921125,-0.005329251755028963
1773789893214667000,5.3356669921875,-0.0008695221040397882,-0.0028181569650769234,-0.005799033213406801
1773789893234632200,5.355632080078125,-0.0014138722326606512,-0.0034759577829390764,-0.0065439194440841675
1773789893254596400,5.375596435546875,-0.000016777914424892515,-0.0016415724530816078,-0.006570551078766584
1773789893274561300,5.395561279296875,0.00010173275222769007,-0.004010454285889864,-0.005616340320557356
1773789893294526200,5.415526123046875,-0.0004948153509758413,-0.003507383167743683,-0.006056028418242931
1773789893314490000,5.435489990234375,0.0006644586683250964,-0.0018482337472960353,-0.005502357147634029
1773789893334455300,5.455455322265625,-0.00010333064710721374,-0.00236249016597867,-0.006859770510345697
1773789893354420200,5.475420166015625,0.0006844323943369091,-0.0039041941054165363,-0.006749781779944897
1773789893374385200,5.49538525390625,-0.00020506340661086142,-0.004198207054287195,-0.0051865060813724995
1773789893394349000,5.51534912109375,-0.0004548678989522159,-0.002926813904196024,-0.006247776094824076
1773789893414314000,5.53531396484375,0.00021837920940015465,-0.0024567660875618458,-0.0063210129737854
1773789893434279200,5.555279052734375,0.001362473238259554,-0.0025297366082668304,-0.0057564228773117065
1773789893454243000,5.5752431640625,-0.0002492718631401658,-0.0030208237003535032,-0.005076251458376646
1773789893474208000,5.5952080078125,-0.0016077503096312284,-0.002897785510867834,-0.0057007623836398125
1773789893494173000,5.6151728515625,0.000037550569686573,-0.0033329459838569164,-0.005787048954516649
1773789893514138000,5.63513818359375,0.0006311691831797361,-0.0026168220210820436,-0.005841377656906843
1773789893534102300,5.655102294921875,-0.0006261091912165284,-0.0022626216523349285,-0.0056741307489573956
1773789893554067200,5.675067138671875,-0.0006700513185933232,-0.003572630463168025,-0.0049398974515497684
1773789893574032100,5.6950322265625,0.0008815063047222793,-0.002567820018157363,-0.00520727876573801
1773789893593996000,5.71499609375,0.000737695605494082,-0.0035396073944866657,-0.005071457475423813
1773789893613961200,5.734961181640625,-0.00039867521263659,-0.003400856629014015,-0.0038661109283566475
1773789893633926100,5.754926025390625,-0.0006540723843500018,-0.003288205014541745,-0.006162820849567652
1773789893653891000,5.77489111328125,-0.0019715381786227226,-0.0021603561472147703,-0.004734035115689039
1773789893673855000,5.79485498046875,-0.0008884305134415627,-0.0036216326989233494,-0.007493868935853243
1773789893693820200,5.814820068359375,-0.0013675332302227616,-0.004034955520182848,-0.005917544011026621
1773789893713785000,5.83478515625,-0.0004189152386970818,-0.001654089312069118,-0.005973736755549908
1773789893733749200,5.854749267578125,-0.00007323692989302799,-0.005116731394082308,-0.0040914141573011875
1773789893753714200,5.874714111328125,-0.001871136948466301,-0.002374208066612482,-0.004722317215055227
1773789893773679400,5.894679443359375,0.0010996191995218396,-0.0034085798542946577,-0.0060112872160971165
1773789893793644300,5.914644287109375,-0.0005792375304736197,-0.0036522590089589357,-0.006194779183715582
1773789893813608200,5.934608154296875,-2.6631610694494157e-7,-0.0021917815320193768,-0.005365204066038132
1773789893833573000,5.954572998046875,-0.0002569950302131474,-0.0033712955191731453,-0.005468002520501614
1773789893853538000,5.9745380859375,-0.0005635248962789774,-0.0025180187076330185,-0.0062216767109930515
1773789893873502200,5.994502197265625,0.00039840888348408043,-0.0039049931801855564,-0.0060054282657802105
1773789893893467100,6.014467041015625,-0.002784334821626544,-0.001802693703211844,-0.006145243998616934
1773789893913432000,6.03443212890625,0.00021358551748562604,-0.003486610483378172,-0.004819788970053196
1773789893933397000,6.05439697265625,-0.00010679275874281302,-0.0023305322974920273,-0.005282912403345108
1773789893953361200,6.074361083984375,-0.0004474110610317439,-0.0038956720381975174,-0.005620867945253849
1773789893973326000,6.094326171875,0.0005677859298884869,-0.0024865935556590557,-0.006068012677133083
1773789893993291300,6.114291259765625,-0.0003376888344064355,-0.0038450718857347965,-0.0062219430692493916
1773789894013255200,6.134255126953125,0.0002181128947995603,-0.00333241350017488,-0.0060120862908661366
1773789894033220000,6.15422021484375,-0.0010703244479373097,-0.003040797309949994,-0.006911435630172491
1773789894053185300,6.174185302734375,-0.00008735168376006186,-0.0029111013282090425,-0.006429403554648161
1773789894073149000,6.19414892578125,-0.0016141419764608145,-0.0026461167726665735,-0.005877329967916012
1773789894093113900,6.21411376953125,-0.0012474246323108673,-0.003924966789782047,-0.006299441214650869
1773789894113078800,6.234078857421875,-0.0009134642314165831,-0.0023558323737233877,-0.006619286723434925
1773789894133044000,6.2540439453125,-0.0022533005103468895,-0.00347409350797534,-0.006272276863455772
1773789894153007900,6.2740078125,0.00006711165769957006,-0.0034144388046115637,-0.0057526943273842335
1773789894172972800,6.293972900390625,0.0002479403046891093,-0.002192314248532057,-0.006157228257507086
1773789894192937700,6.313937744140625,-0.0002463423879817128,-0.0029640982393175364,-0.006196643225848675
1773789894212902000,6.33390185546875,-0.00016192019393201917,-0.002877545543015003,-0.005717540625482798
1773789894232867000,6.3538671875,0.00041758365114219487,-0.003011236200109124,-0.004319647327065468
1773789894252832000,6.37383203125,0.0010458233300596476,-0.0023004384711384773,-0.005543902516365051
1773789894272796000,6.3937958984375,0.00045619948650710285,-0.0030573089607059956,-0.0065100970678031445
1773789894292760800,6.4137607421875,0.0004652542411349714,-0.002528671408072114,-0.005293565336614847
1773789894312725800,6.433725830078125,0.0001323590986430645,-0.0023635553661733866,-0.0051782503724098206
1773789894332691000,6.45369091796875,-0.000011717908819264267,-0.0038839541375637054,-0.006102900020778179
1773789894352654800,6.47365478515625,0.0003235740587115288,-0.0037758296821266413,-0.006128732580691576
1773789894372619800,6.493619873046875,0.0010002832859754562,-0.0025214808993041515,-0.005656288005411625
1773789894392584700,6.513584716796875,-0.0001597896625753492,-0.002828809665516019,-0.005653358530253172
1773789894412548900,6.533548828125,-0.000055660068028373644,-0.0035502600949257612,-0.006025401875376701
1773789894432514000,6.55351416015625,0.0009307747823186219,-0.003400324145331979,-0.005860019475221634
1773789894452479000,6.57347900390625,-0.00006471481174230576,-0.0031755531672388315,-0.004567321389913559
1773789894472443000,6.59344287109375,-0.0010783139150589705,-0.0034346787724643946,-0.005963616538792849
1773789894492407800,6.61340771484375,0.0004713795206043869,-0.004071174189448357,-0.005791043862700462
1773789894512373000,6.633373046875,0.00029534456552937627,-0.0007392935222014785,-0.00615323381498456
1773789894532338000,6.653337890625,-0.0005531385540962219,-0.002436792477965355,-0.0054544201120734215
1773789894552301800,6.6733017578125,-0.000032490566809428856,-0.0014085458824411035,-0.005878661759197712
1773789894572266800,6.693266845703125,0.00021145498612895608,-0.002561694709584117,-0.005215002223849297
1773789894592232000,6.71323193359375,0.00008229167724493891,-0.003961452282965183,-0.007616640534251928
1773789894612196000,6.733196044921875,-0.0013102752855047584,-0.0028338697738945484,-0.005965214688330889
1773789894632161000,6.7531611328125,-0.0012815131340175867,-0.003260774305090308,-0.006915430538356304
1773789894652126000,6.7731259765625,-0.0014053500490263104,-0.0030301446095108986,-0.004491155035793781
1773789894672089900,6.79308984375,-0.000006924218723725062,-0.003023753175511956,-0.007459247950464487
1773789894692055000,6.813054931640625,-0.0008511462947353721,-0.0019355855183675885,-0.006332997232675552
1773789894712020000,6.83302001953125,-0.0015006912872195244,-0.0020181434229016304,-0.005018460564315319
1773789894731984000,6.85298388671875,0.0008175904513336718,-0.0023555660154670477,-0.004908472299575806
1773789894751948800,6.87294873046875,0.00010572749306447804,-0.003722566645592451,-0.0065079666674137115
1773789894771914000,6.8929140625,0.001627457677386701,-0.0037590519059449434,-0.005250954534858465
1773789894791879000,6.91287890625,0.00044661210267804563,-0.004581169690936804,-0.004959338344633579
1773789894811842800,6.9328427734375,-0.0008452873444184661,-0.001859419047832489,-0.004691690672188997
1773789894831807700,6.952807861328125,0.000024767397917457856,-0.00407437002286315,-0.005347627215087414
1773789894851772700,6.972772705078125,0.0005691175465472043,-0.0024740765802562237,-0.006322344299405813
1773789894871737000,6.992737060546875,-0.0002463423879817128,-0.002552373567596078,-0.00635057408362627
1773789894891702000,7.012701904296875,0.0006705839768983424,-0.003291400847956538,-0.00478516798466444
1773789894911667000,7.0326669921875,0.0007584682898595929,-0.003433613572269678,-0.007759119849652052
1773789894931630800,7.052630859375,-0.00126713200006634,-0.0023209447972476482,-0.006852846127003431
1773789894951595800,7.072595703125,-0.0011827098205685616,-0.003965979442000389,-0.004788896068930626
1773789894971561000,7.09256103515625,-0.0004183826094958931,-0.004057325888425112,-0.00487358495593071
1773789894991524900,7.11252490234375,0.000025566347176209092,-0.002255164785310626,-0.006056827027350664
1773789895011489800,7.13248974609375,-0.0006937534781172872,-0.0029856697656214237,-0.005057076457887888
1773789895031454700,7.152454833984375,0.001086037140339613,-0.002825880190357566,-0.005564675200730562
1773789895051419000,7.1724189453125,-0.0014998923288658261,-0.0032059133518487215,-0.005286907311528921
1773789895071383600,7.192383544921875,-0.0004189152386970818,-0.003591539105400443,-0.007173224352300167
1773789895091348500,7.212348388671875,-0.00022024342615623027,-0.0028280108235776424,-0.00766005041077733
1773789895111312400,7.2323125,-0.0001371527905575931,-0.001954760169610381,-0.005888249259442091
1773789895131277600,7.252277587890625,0.0002412823960185051,-0.003359045134857297,-0.004969724919646978
1773789895151242500,7.272242431640625,-0.000477504770969972,-0.003596598980948329,-0.006003564223647118
1773789895171207400,7.29220751953125,-0.0009510148083791137,-0.003882622579112649,-0.004551608581095934
1773789895191171300,7.31217138671875,-0.0008380967774428427,-0.003088467987254262,-0.0046719834208488464
1773789895211136500,7.332136474609375,0.0012279836228117347,-0.004566522315144539,-0.005637113004922867
1773789895231101400,7.352101318359375,0.001067661214619875,-0.004508199170231819,-0.0057526943273842335
1773789895251065600,7.372065673828125,0.0005403553950600326,-0.004835235420614481,-0.006001433357596397
1773789895271030500,7.392030517578125,0.0001906823308672756,-0.0021382521372288465,-0.005855225957930088
1773789895290995700,7.41199560546875,0.0007379619055427611,-0.0027300063520669937,-0.006262955721467733
1773789895310959600,7.431959716796875,-0.0007744472241029143,-0.003890611929818988,-0.006505569908767939
1773789895330924500,7.451924560546875,0.00006444849714171141,-0.002906573936343193,-0.006432333029806614
1773789895350889500,7.471889404296875,0.0006511429091915488,-0.0022005699574947357,-0.0049007488414645195
1773789895370853400,7.491853271484375,0.0002814961189869791,-0.0018644790397956967,-0.007167365401983261
1773789895390818600,7.511818603515625,-0.0003534014686010778,-0.002685531508177519,-0.004756139125674963
1773789895410783500,7.531783447265625,-0.0005840312223881483,-0.0025715483352541924,-0.006184658966958523
1773789895430747400,7.551747314453125,-0.00006072007090551779,-0.002225070958957076,-0.005575860384851694
1773789895450712300,7.57171240234375,-0.0014295848086476326,-0.003037867834791541,-0.005940979812294245
1773789895470677200,7.59167724609375,-0.0007653924985788763,-0.002787797013297677,-0.008301605470478535
1773789895490641700,7.6116416015625,0.00012650014832615852,-0.0025960493367165327,-0.005910885985940695
1773789895510606600,7.631606689453125,0.00008974852971732616,-0.0027662254869937897,-0.006110356654971838
1773789895530571500,7.651571533203125,0.0003664509567897767,-0.004446413833647966,-0.006201170384883881
1773789895550535400,7.671535400390625,0.0002372876479057595,-0.002129729837179184,-0.005169728305190802
1773789895570500400,7.691500244140625,-0.0008074704091995955,-0.0037209687288850546,-0.004851480480283499
1773789895590465500,7.711465576171875,-0.001609348226338625,-0.0043707797303795815,-0.005557750817388296
1773789895610429400,7.731429443359375,-0.0020298613235354424,-0.004113784991204739,-0.003111104713752866
1773789895630394400,7.751394287109375,0.00012303804396651685,-0.0030216225422918797,-0.004637895151972771
1773789895650359300,7.771359375,-0.0016101471846923232,-0.004625644534826279,-0.005149488337337971
1773789895670323500,7.791323486328125,0.001139566651545465,-0.004312456585466862,-0.006731672212481499
1773789895690288600,7.81128857421875,-0.0010831075487658381,-0.003923901356756687,-0.00555295730009675
1773789895710253600,7.831253662109375,0.00036485306918621063,-0.0027869981713593006,-0.005794239696115255
1773789895730218500,7.851218505859375,-0.0013709953054785728,-0.003576625371351838,-0.004298341926187277
1773789895750182400,7.871182373046875,-0.0001323590986430645,-0.0025502429343760014,-0.006844324059784412
1773789895770147600,7.891147705078125,-0.00024394555657636374,-0.0017190704820677638,-0.005773200653493404
1773789895790112500,7.911112548828125,-0.00006764429417671636,-0.002008289797231555,-0.005688778590410948
1773789895810076400,7.931076416015625,0.0009526127250865102,-0.003026149934157729,-0.005825132131576538
1773789895830041300,7.951041259765625,-0.0008737831376492977,-0.002597114769741893,-0.005658684764057398
1773789895850006500,7.971006591796875,-0.00019441076437942684,-0.004018976353108883,-0.0046301716938614845
1773789895869970700,7.990970703125,-0.001201884588226676,-0.002560895634815097,-0.0049036783166229725
1773789895889935600,8.010935546875,0.0013646037550643086,-0.0036906085442751646,-0.00558065390214324
1773789895909900500,8.030900634765626,-0.00043223105603829026,-0.0026381274219602346,-0.006165750324726105
1773789895929864400,8.050864501953125,0.00020213393145240843,-0.0025832662358880043,-0.005834719631820917
1773789895949829600,8.07082958984375,0.00045806370326317847,-0.0033249566331505775,-0.005703159607946873
1773789895969794600,8.090794677734374,0.00006364954606397077,-0.003573163179680705,-0.0052352421917021275
1773789895989758500,8.110758544921875,-0.0017246630741283298,-0.003011236200109124,-0.004776379559189081
1773789896009723400,8.130723388671875,-0.0003278351214248687,-0.003569700988009572,-0.006828877609223127
1773789896029688600,8.1506884765625,-0.0011896340874955058,-0.0036855486687272787,-0.005659483373165131
1773789896049652500,8.170652587890626,-0.00003728425508597866,-0.0020397149492055178,-0.005853095557540655
1773789896069618400,8.190618408203125,-0.0008021441171877086,-0.003373692510649562,-0.005825398489832878
1773789896089583400,8.210583251953125,0.0015630092239007354,-0.003221359569579363,-0.005799565929919481
1773789896109547300,8.23054736328125,-0.0005821670056320727,-0.004299141000956297,-0.005489041097462177
1773789896129512200,8.25051220703125,0.00018269284919369966,-0.003924434073269367,-0.006083192303776741
1773789896149477000,8.27047705078125,0.00009960222087102011,-0.002918824553489685,-0.0060147494077682495
1773789896169441500,8.290441650390624,0.0006697850185446441,-0.0034549187403172255,-0.006638994440436363
1773789896189406500,8.310406494140626,0.0006141249323263764,-0.004276504274457693,-0.005516738165169954
1773789896209371400,8.330371337890625,0.00027084347675554454,-0.002826412906870246,-0.006076801102608442
1773789896229335300,8.350335205078125,-0.00008202536264434457,-0.002341451123356819,-0.006449909880757332
1773789896249300200,8.37030029296875,0.00021012341312598437,-0.0019853864796459675,-0.00612180819734931
1773789896269265400,8.390265380859375,0.0006982808117754757,-0.0020040287636220455,-0.006956709548830986
1773789896289229300,8.410229248046875,-0.002403502818197012,-0.0025811356026679277,-0.0051902346312999725
1773789896309194200,8.4301943359375,-0.001287904684431851,-0.0020996362436562777,-0.004994226153939962
1773789896329159200,8.4501591796875,0.00034461304312571883,-0.0031971249263733625,-0.005172391422092915
1773789896349123300,8.470123291015625,-0.0011805793037638068,-0.002758235903456807,-0.0060174125246703625
1773789896369088500,8.490088623046875,-0.0013065468519926071,-0.004186222795397043,-0.006310360040515661
1773789896389053400,8.510053466796874,-0.0005688511882908642,-0.003899933071807027,-0.006870955694466829
1773789896409017300,8.530017333984375,-0.0005222458858042955,-0.0032589102629572153,-0.007500260602682829
1773789896428982300,8.549982177734375,-0.00006311691686278209,-0.0014759238110855222,-0.0062573631294071674
1773789896448947500,8.569947509765624,-0.0008101335843093693,-0.0038695731200277805,-0.005585980135947466
1773789896468911400,8.589911376953125,-0.00009986854274757206,-0.002939597237855196,-0.006637396290898323
1773789896488876300,8.609876220703125,-0.00009054747351910919,-0.004041879437863827,-0.0054275221191346645
1773789896508841200,8.62984130859375,-0.0001560612436151132,-0.0021608888637274504,-0.005576393101364374
1773789896528805400,8.649805419921876,-0.0008793757879175246,-0.003847202518954873,-0.005906358826905489
1773789896548770300,8.669770263671875,0.0012125372886657715,-0.0009337042574770749,-0.00620995881035924
1773789896568735500,8.689735595703125,0.0012993563432246447,-0.0030040456913411617,-0.00612154183909297
1773789896588699400,8.709699462890624,0.0003712446487043053,-0.0020908478181809187,-0.006048837676644325
1773789896608664300,8.729664306640625,0.00003062635369133204,-0.0031073763966560364,-0.005516738165169954
1773789896628629500,8.74962939453125,-0.0007837683078832924,-0.002879942301660776,-0.006453105714172125
1773789896648593400,8.769593505859374,-0.00015952334797475487,-0.002674612682312727,-0.005029912106692791
1773789896668558300,8.789558349609376,-0.0012130698887631297,-0.003591006388887763,-0.00598492193967104
1773789896688523300,8.809523193359375,0.00018855179951060563,-0.0029342707712203264,-0.005301821045577526
1773789896708487200,8.829487060546874,0.0006985471700318158,-0.005016063805669546,-0.005331115797162056
1773789896728452400,8.849452392578126,-0.00014407701382879168,-0.0034967304673045874,-0.006309827324002981
1773789896748417300,8.869417236328125,-0.00026604978484101593,-0.002415220718830824,-0.005930326879024506
1773789896768381400,8.88938134765625,-0.0007632619817741215,-0.003442135639488697,-0.007441404741257429
1773789896788346400,8.909346435546874,-0.0003605920064728707,-0.0031843415927141905,-0.006076002027839422
1773789896808311600,8.9293115234375,-0.0008500810363329947,-0.004318049177527428,-0.005133775528520346
1773789896828275500,8.949275390625,0.000020506340661086142,-0.003707120195031166,-0.005750563926994801
1773789896848240400,8.969240478515625,-0.000003994741746282671,-0.0038245655596256256,-0.004270378965884447
1773789896868205300,8.989205322265626,0.0009518137667328119,-0.004065581597387791,-0.004720719531178474
1773789896888169200,9.009169189453125,-0.0005693838465958834,-0.0034016557037830353,-0.006118878722190857
1773789896908134400,9.029134521484375,-0.001032507512718439,-0.0021726067643612623,-0.00583685003221035
1773789896928099300,9.049099365234374,-0.0008452873444184661,-0.003175287041813135,-0.0054640076123178005
1773789896948063500,9.0690634765625,-0.0004822984628845006,-0.0030421288684010506,-0.007075486239045858
1773789896968028400,9.0890283203125,0.00022423815971706063,-0.0021550299134105444,-0.004619519226253033
1773789896987993300,9.108993408203125,-0.0009398295660503209,-0.004089816473424435,-0.005621133837848902
1773789897007957500,9.12895751953125,-0.00016538229829166085,-0.0028969866689294577,-0.005845638457685709
1773789897027922400,9.14892236328125,-0.0009440905996598303,-0.003584881080314517,-0.005916478578001261
1773789897047887400,9.168887451171875,0.0003126551164314151,-0.002944923471659422,-0.004749747924506664
1773789897067850800,9.188850830078126,-0.00002450108149787411,-0.004044010303914547,-0.006228601094335318
1773789897087815700,9.208815673828125,-0.00039787625428289175,-0.003590740030631423,-0.006707970052957535
1773789897107780900,9.22878076171875,-0.00009667274571256712,-0.0023526365403085947,-0.005352687556296587
1773789897127745000,9.2487451171875,0.0005576659459620714,-0.0016205335268750787,-0.004865062423050404
1773789897147710000,9.2687099609375,-0.00034727618913166225,-0.0036101811565458775,-0.005047488957643509
1773789897167675000,9.2886748046875,-0.0001917476038215682,-0.0023073628544807434,-0.006628874223679304
1773789897187638800,9.308638671875,0.00012996226723771542,-0.002088983543217182,-0.006571882404386997
1773789897207604000,9.32860400390625,-0.00042823629337362945,-0.002555835759267211,-0.006608900614082813
1773789897227569000,9.34856884765625,-0.0004492752777878195,-0.0036788906436413527,-0.005042162723839283
1773789897247532800,9.36853271484375,0.0005046690348535776,-0.0028690234757959843,-0.006412625312805176
1773789897267497700,9.388497802734374,0.000972852751147002,-0.004057858604937792,-0.004811000544577837
1773789897287461600,9.408461669921875,-0.00018615495355334133,-0.002953711897134781,-0.004608866758644581
1773789897307426800,9.4284267578125,0.00007084008393576369,-0.0030421288684010506,-0.005458681378513575
1773789897327391700,9.448391845703124,0.0005456816870719194,-0.0024114924017339945,-0.005578789860010147
1773789897347356000,9.46835595703125,-0.00015393071225844324,-0.003608316881582141,-0.006137254647910595
1773789897367320800,9.48832080078125,-0.0006346312584355474,-0.003421629313379526,-0.005697567015886307
1773789897387286000,9.5082861328125,-0.00039654469583183527,-0.0020128171890974045,-0.006924751214683056
1773789897407250000,9.52825,0.00010892329009948298,-0.0036906085442751646,-0.0062637547962367535
1773789897427214800,9.54821484375,-0.00031851406674832106,-0.002865028567612171,-0.006744988262653351
1773789897447179800,9.5681796875,-0.0006926882197149098,-0.0029912625905126333,-0.004950284026563168
1773789897467143700,9.588143798828124,-0.0011329087428748608,-0.0031638352666050196,-0.004996090196073055
1773789897487108900,9.60810888671875,-0.00005699164830730297,-0.0027177559677511454,-0.006159092765301466
1773789897507073800,9.62807373046875,0.00013901700731366873,-0.002600310370326042,-0.004231496714055538
1773789897527038000,9.648037841796874,-0.00044314999831840396,-0.0011225224006921053,-0.006810235325247049
1773789897547003000,9.6680029296875,-0.0010402307379990816,-0.00395825644955039,-0.006743922829627991
1773789897566968000,9.687968017578125,-0.0010277138790115714,-0.0015704660909250379,-0.007190801203250885
1773789897586932000,9.707931884765625,-0.0009440905996598303,-0.004013117402791977,-0.006578274071216583
1773789897606897000,9.72789697265625,-0.0001483380765421316,-0.0024708807468414307,-0.005361475981771946
1773789897626861800,9.74786181640625,0.0007491472060792148,-0.0023550332989543676,-0.006189452484250069
1773789897646825700,9.76782568359375,0.0003195793251506984,-0.0027598338201642036,-0.006032059900462627
1773789897666791000,9.787791015625,-0.0002873550693038851,-0.002627741079777479,-0.004738030023872852
1773789897686755800,9.807755859375,-0.0012479572324082255,-0.004004861693829298,-0.005887982901185751
1773789897706720000,9.827719970703125,0.0003099919413216412,-0.003299123840406537,-0.005139900837093592
1773789897726685000,9.847684814453125,0.00023861923546064645,-0.0031699605751782656,-0.005972671322524548
1773789897746649900,9.86764990234375,-0.0006090649403631687,-0.005510612856596708,-0.004656270612031221
1773789897766614000,9.887614013671875,0.000005060006060375599,-0.0037268276792019606,-0.006597449071705341
1773789897786579000,9.907578857421875,0.00022743394947610795,-0.003305515507236123,-0.00615296745672822
1773789897806544000,9.9275439453125,-0.00004207794336252846,-0.003866909770295024,-0.006821953225880861
1773789897826507800,9.9475078125,-0.000371777277905494,-0.0026290726382285357,-0.005576126743108034
1773789897846472700,9.96747265625,0.00037923414492979646,-0.0026727484073489904,-0.006249640136957169
1773789897866438000,9.98743798828125,-0.0006639260682277381,-0.0038488004356622696,-0.005910086911171675
1773789897886401800,10.00740185546875,-0.00035659727291204035,-0.003975300583988428,-0.004856540355831385
1773789897906366700,10.02736669921875,-0.00014460964302998036,-0.003820038167759776,-0.005658152047544718
1773789897926331600,10.04733154296875,-0.00047643951256759465,-0.004280498716980219,-0.00333241350017488
1773789897946295800,10.0672958984375,0.0003352919884491712,-0.0024836640805006027,-0.0062304651364684105
1773789897966261000,10.087260986328126,0.0008990831556729972,-0.0037803570739924908,-0.005621400196105242
1773789897986225000,10.107224853515625,0.000592020689509809,-0.003728425595909357,-0.005743106827139854
1773789898006189800,10.12718994140625,0.0008878979133442044,-0.002673813607543707,-0.007065100129693747
1773789898026154800,10.14715478515625,0.00031878036679700017,-0.0020487697329372168,-0.006070942152291536
1773789898046118700,10.16711865234375,0.00008681904728291556,-0.004067978356033564,-0.006800648290663958
1773789898066083800,10.187083740234375,0.0007147924043238163,-0.002261822810396552,-0.007404120173305273
1773789898086049000,10.207049072265624,-0.001222657272592187,-0.003308977698907256,-0.004174238536506891
1773789898106013200,10.22701318359375,-0.0005254416610114276,-0.0028517129831016064,-0.005052282940596342
1773789898125978000,10.24697802734375,0.0001459412305848673,-0.0027116306591778994,-0.0051630702801048756
1773789898145943000,10.266943115234374,-0.001240766723640263,-0.0033017871901392937,-0.005607818253338337
1773789898165907000,10.286906982421876,0.00030652983696199954,-0.0039009982720017433,-0.006880809087306261
1773789898185872100,10.3068720703125,-0.0005352954030968249,-0.004683168604969978,-0.004470914602279663
1773789898205837000,10.326837158203125,0.00026045716367661953,-0.0033771544694900513,-0.005055212415754795
1773789898225801000,10.346801025390626,-0.001130245509557426,-0.002332396572455764,-0.005776662845164537
1773789898245766000,10.366765869140625,-0.0006109291571192443,-0.0022029669489711523,-0.00729466462507844
1773789898265731000,10.38673095703125,0.000005858954409632133,-0.00315957423299551,-0.005398760084062815
1773789898285695000,10.406695068359374,-0.0005246427026577294,-0.0043707797303795815,-0.006925283931195736
1773789898305660000,10.426659912109375,-0.0007986819837242365,-0.0024378576781600714,-0.004758802708238363
1773789898325624800,10.446624755859375,0.00024474450037814677,-0.003229881636798382,-0.005170793738216162
1773789898345589000,10.466589111328124,0.0005470133037306368,-0.003707919269800186,-0.00580728892236948
1773789898365554200,10.48655419921875,-0.0008671252289786935,-0.004274906124919653,-0.0068211546167731285
1773789898385519000,10.50651904296875,-0.00024181502521969378,-0.0024253407027572393,-0.006150304339826107
1773789898405483000,10.52648291015625,-0.0004516721237450838,-0.004030161537230015,-0.006931409239768982
1773789898425448000,10.546447998046874,-0.0008500810363329947,-0.0030975225381553173,-0.006690925918519497
1773789898445413000,10.5664130859375,-0.0006087986403144896,-0.002180862706154585,-0.006625678390264511
1773789898465377000,10.586376953125,-0.0015696671325713396,-0.0028546424582600594,-0.005012335255742073
1773789898485342000,10.606342041015624,-0.0005965480813756585,-0.0020474381744861603,-0.003890611929818988
1773789898505307000,10.626306884765626,-0.001272990950383246,-0.002748914761468768,-0.006338856182992458
1773789898525271000,10.64627099609375,-0.001273523666895926,-0.0026578346733003855,-0.006253368686884642
1773789898545236200,10.666236328125,0.000336090917699039,-0.0032437301706522703,-0.006251237820833921
1773789898565201200,10.686201171875,-0.00035233621019870043,-0.0025209481827914715,-0.005371862091124058
1773789898585165000,10.7061650390625,-0.00018216021999251097,-0.0012916331179440022,-0.006611031014472246
1773789898605130000,10.7261298828125,-0.0006775081856176257,-0.004471447318792343,-0.006523945834487677
1773789898625095200,10.74609521484375,0.00010226538870483637,-0.003141997382044792,-0.006391054019331932
1773789898645059000,10.76605908203125,-0.0004308994684834033,-0.0025590313598513603,-0.005505552981048822
1773789898665024000,10.78602392578125,-0.001130778226070106,-0.003034405643120408,-0.005276254843920469
1773789898684989000,10.805989013671875,0.0010418286547064781,-0.0030093719251453876,-0.006327138282358646
1773789898704952800,10.825952880859376,-0.0007653924985788763,-0.0028013791888952255,-0.00498144282028079
1773789898724918000,10.84591796875,0.00028309403569437563,-0.0037555897142738104,-0.005911951418966055
1773789898744883000,10.865883056640625,0.0014527543680742383,-0.0032858080230653286,-0.005810484755784273
1773789898764847000,10.88584716796875,-0.0017811221769079566,-0.003263437654823065,-0.006631537340581417
1773789898784812000,10.90581201171875,-0.0013257216196507215,-0.003704457078129053,-0.006917560938745737
1773789898804777000,10.92577685546875,0.00010865696822293103,-0.0026999127585440874,-0.006991863250732422
1773789898824741000,10.9457412109375,0.0001424791116733104,-0.003320429241284728,-0.004334294702857733
1773789898844706000,10.9657060546875,-0.00021784658019896597,-0.0029979203827679157,-0.00643819198012352
1773789898864671000,10.9856708984375,-0.00038642468280158937,-0.0024319987278431654,-0.007937018759548664
1773789898884635000,11.005634765625,-0.00023515711654908955,-0.0028929917607456446,-0.006537261418998241
1773789898904599800,11.025599853515626,0.0003701793903019279,-0.0031369375064969063,-0.00501020485535264
1773789898924565000,11.04556494140625,-0.0005510080372914672,-0.003157443832606077,-0.0059809270314872265
1773789898944529200,11.065529052734375,-0.00012889699428342283,-0.003973702434450388,-0.005178783088922501
1773789898964494000,11.085494140625,-0.0002641855680849403,-0.0023853934835642576,-0.006054962985217571
1773789898984459000,11.105458984375,-0.00020825919636990875,-0.003087136195972562,-0.005362008698284626
1773789899004423000,11.1254228515625,0.001347559504210949,-0.00202267081476748,-0.005792907904833555
1773789899024388000,11.14538818359375,0.0017036241479218006,-0.0014018879737704992,-0.006517820525914431
1773789899044353000,11.16535302734375,-0.000681236619129777,-0.0026557042729109526,-0.007269097957760096
1773789899064317200,11.185317138671875,-0.002353968098759651,-0.00242081331089139,-0.006232329644262791
1773789899084282000,11.2052822265625,0.0009145294898189604,-0.003043993143364787,-0.005240302067250013
1773789899104247000,11.2252470703125,0.000005326322025211994,-0.002823749789968133,-0.005340969655662775
1773789899124211200,11.245211181640625,-0.000015712650565546937,-0.0034439999144524336,-0.005013667047023773
1773789899144176000,11.265176025390625,-0.0001608549355296418,-0.0032671659719198942,-0.005544701125472784
1773789899164141000,11.28514111328125,0.00015899071877356619,-0.0022442457266151905,-0.006159891374409199
1773789899184105200,11.305105224609376,-0.00023329291434492916,-0.003495398908853531,-0.0052144695073366165
1773789899204070100,11.325070068359375,-0.0014559502014890313,-0.002555036684498191,-0.007130613550543785
1773789899224035300,11.345035400390625,-0.00020479709201026708,-0.002237321576103568,-0.0057220677845180035
1773789899243999200,11.364999267578124,0.00006151902198325843,-0.0028391960076987743,-0.0057191383093595505
1773789899263964200,11.384964111328125,-0.000990695902146399,-0.0031518512405455112,-0.0057194046676158905
1773789899283929000,11.40492919921875,-0.0015896408585831523,-0.0027084348257631063,-0.006642988882958889
1773789899303893000,11.42489306640625,0.00024288028362207115,-0.0027076357509940863,-0.006943926215171814
1773789899323858200,11.444858154296876,-0.0008905610884539783,-0.004625111818313599,-0.003847202518954873
1773789899343823000,11.464822998046875,-0.0004290352517273277,-0.003724164329469204,-0.005558017175644636
1773789899363787300,11.484787353515625,0.00008442220860160887,-0.00418276060372591,-0.005769205745309591
1773789899383752200,11.504752197265624,0.0002580603177193552,-0.003319630166515708,-0.0068027786910533905
1773789899403717000,11.524717041015625,0.0007174555794335902,-0.0035473306197673082,-0.005798234138637781
1773789899423681300,11.544681396484375,0.00037923414492979646,-0.004918059334158897,-0.006171077024191618
1773789899443646200,11.564646240234374,0.000010120012120751198,-0.003099386813119054,-0.006600644905120134
1773789899463611100,11.584611083984376,0.00040320257539860904,-0.0041585261933505535,-0.0052078114822506905
1773789899483575000,11.604574951171875,-0.0013907026732340455,-0.0027079021092504263,-0.006361492909491062
1773789899503540000,11.6245400390625,0.00038056570338085294,-0.004187021870166063,-0.00606375141069293
1773789899523505200,11.644505126953124,-0.0027451864443719387,-0.00250523560680449,-0.006647250149399042
1773789899543469300,11.66446923828125,-0.0008647284121252596,-0.003201652318239212,-0.006866694428026676
1773789899563434200,11.684434326171875,-0.0006463492172770202,-0.0029089709278196096,-0.0054906392470002174
1773789899583399200,11.704399169921874,0.0009070726810023189,-0.002243446884676814,-0.00618039770051837
1773789899603363000,11.724363037109375,0.00005193164179218002,-0.0041276332922279835,-0.00692102313041687
1773789899623328300,11.744328369140625,-0.00021917815320193768,-0.0030626351945102215,-0.005527124274522066
1773789899643293200,11.764293212890625,-0.0010460896883159876,-0.0032461269292980433,-0.0059870523400604725
1773789899663257000,11.784257080078126,0.00018722022650763392,-0.0016021577175706625,-0.0065383268520236015
1773789899683222000,11.804221923828125,-0.0012420982820913196,-0.002805373864248395,-0.007003581151366234
1773789899703187200,11.824187255859375,-0.0002772350562736392,-0.0028900622855871916,-0.005531918257474899
1773789899723151000,11.844151123046874,0.001758218975737691,-0.0027622305788099766,-0.005617938470095396
1773789899743116000,11.864115966796875,-0.0006082659820094705,-0.003367034485563636,-0.0054243262857198715
1773789899763081000,11.8840810546875,-0.000791491474956274,-0.0023454460315406322,-0.0054759918712079525
1773789899783046100,11.904046142578125,-0.0000013315805063029984,-0.0030269487760961056,-0.00546240946277976
1773789899803010300,11.92401025390625,-0.002073537092655897,-0.004315386060625315,-0.006520750001072884
1773789899822975200,11.943975341796875,-0.00192200334277004,-0.0025478461757302284,-0.005399292800575495
1773789899842940200,11.963940185546875,-0.00022743394947610795,-0.0035364115610718727,-0.0065801385790109634
1773789899862904000,11.983904052734376,0.00009986854274757206,-0.0046445527113974094,-0.005951898638159037
1773789899882869200,12.003869140625,-0.0013097425689920783,-0.00358781055547297,-0.006208361126482487
1773789899902834200,12.023834228515625,0.0005568669876083732,-0.0033510555513203144,-0.006317284423857927
1773789899922798000,12.043798095703124,0.00011052118497900665,-0.0034887411165982485,-0.005799832288175821
1773789899942763000,12.063762939453126,-0.0001757686259225011,-0.0032325449865311384,-0.00566907087340951
1773789899962728200,12.083728271484375,0.0002532666258048266,-0.001751827308908105,-0.0054632085375487804
1773789899982692400,12.1036923828125,0.00042983421008102596,-0.0017723336350172758,-0.0062879896722733974
1773789900002657300,12.1236572265625,0.001097755040973425,-0.002426938619464636,-0.005191565956920385
1773789900022622200,12.143622314453125,-0.0008908273885026574,-0.003465571440756321,-0.004965463653206825
1773789900042586000,12.163586181640625,-0.0019627497531473637,-0.003136138431727886,-0.007252586539834738
1773789900062551300,12.18355126953125,0.0007627293234691024,-0.003713511861860752,-0.00666349520906806
1773789900082516200,12.20351611328125,0.0009712548344396055,-0.003026149934157729,-0.006680273450911045
1773789900102480100,12.223480224609375,0.0005973470397293568,-0.0035145736765116453,-0.006927947048097849
1773789900122445000,12.243445068359375,0.0009664611425250769,-0.0031518512405455112,-0.00675164582207799
1773789900142410000,12.263409912109376,0.0005286374944262207,-0.0038543930277228355,-0.0067721521481871605
1773789900162374100,12.2833740234375,-0.0007326356135308743,-0.0029976540245115757,-0.005801429972052574
1773789900182339000,12.303339111328125,-0.0006921555614098907,-0.002513491315767169,-0.006855242885649204
1773789900202304000,12.323303955078124,0.00009241169027518481,-0.003215234261006117,-0.006143646314740181
1773789900222268200,12.34326806640625,-0.00022077605535741895,-0.002920954953879118,-0.005679457448422909
1773789900242233000,12.363233154296875,-0.0006079996819607913,-0.0026325348298996687,-0.005714078433811665
1773789900262198300,12.3831982421875,-0.0007576693315058947,-0.002853044541552663,-0.0054299188777804375
1773789900282162200,12.403162109375,-0.0004165183927398175,-0.002139317337423563,-0.005619003437459469
1773789900302127000,12.423127197265625,0.0014405038673430681,-0.0024378576781600714,-0.0046908920630812645
1773789900322092000,12.443092041015625,-0.00007243797881528735,-0.003955326974391937,-0.006677343975752592
1773789900342056000,12.463055908203126,-0.0008527441532351077,-0.003897269954904914,-0.005976133514195681
1773789900362021000,12.483021240234375,0.0008258462767116725,-0.002834668615832925,-0.005573729984462261
1773789900381986000,12.502986083984375,0.0012780509423464537,-0.003230414353311062,-0.005079713650047779
1773789900401950200,12.5229501953125,-0.0005619269795715809,-0.0032442628871649504,-0.005841644015163183
1773789900421915100,12.5429150390625,0.00035420042695477605,-0.0041244374588131905,-0.003936684690415859
1773789900441880300,12.56288037109375,0.001193362521007657,-0.0038101845420897007,-0.0063005066476762295
1773789900461844200,12.58284423828125,-0.00004873584839515388,-0.0025662221014499664,-0.005803560372442007
1773789900481809200,12.60280908203125,0.0002234392159152776,-0.0029206888284534216,-0.00657507823780179
1773789900501774000,12.622774169921875,0.0005395564367063344,-0.003096457337960601,-0.00580915343016386
1773789900521739300,12.6427392578125,-0.0014684670604765415,-0.002913231961429119,-0.006246710661798716
1773789900541703200,12.662703125,-0.0009800433181226254,-0.0022303974255919456,-0.006654440425336361
1773789900561668000,12.682668212890626,-0.001416002749465406,-0.0019108180422335863,-0.00620995881035924
1773789900581633000,12.702633056640625,-0.0012575446162372828,-0.0018953717080876231,-0.006489058490842581
1773789900601597200,12.72259716796875,-0.0016961672808974981,-0.0014865765115246177,-0.00672208471223712
1773789900621562400,12.742562255859376,-0.000294545607175678,-0.0019718045368790627,-0.005952964071184397
1773789900641527300,12.76252734375,0.0007014766451902688,-0.0025592977181077003,-0.005618470720946789
1773789900661491200,12.7824912109375,-0.00016458335448987782,-0.0038842204958200455,-0.006066947244107723
1773789900681456000,12.8024560546875,0.00001757686368364375,-0.0026253440883010626,-0.005103149451315403
1773789900701421300,12.82242138671875,-0.0009068063227459788,-0.0018485001055523753,-0.0072983927093446255
1773789900721385200,12.84238525390625,-0.0008934905636124313,-0.002674346324056387,-0.007370830979198217
1773789900741350100,12.86235009765625,-0.0019062906503677368,-0.0033164345659315586,-0.005447496194392443
1773789900761315000,12.882315185546876,-0.0004420847399160266,-0.004525776021182537,-0.0065162223763763905
1773789900781279000,12.902279052734375,0.000529436394572258,-0.004488491453230381,-0.005608883686363697
1773789900801244200,12.922244140625,-0.0009001484140753746,-0.002034122357144952,-0.005560147576034069
1773789900821209000,12.942208984375,-0.00010998855577781796,-0.002338788006454706,-0.006855775602161884
1773789900841173200,12.96217333984375,-0.0005107942852191627,-0.002382730133831501,-0.006146309431642294
1773789900861138200,12.98213818359375,0.0005797701887786388,-0.004416053649038076,-0.0051801144145429134
1773789900881103000,13.00210302734375,-0.0012540825409814715,-0.002606702037155628,-0.00566880451515317
1773789900901067300,13.0220673828125,0.0004921521758660674,-0.004080228973180056,-0.0062128882855176926
1773789900921032200,13.0420322265625,-0.0011203918838873506,-0.003187004942446947,-0.005282912403345108
1773789900940997000,13.0619970703125,-0.0019387812353670597,-0.00267754215747118,-0.006090649403631687
1773789900960961000,13.0819609375,-0.0011885687708854675,-0.0033361418172717094,-0.007485879585146904
