time,seconds_elapsed,z,y,x
1773798429509104000,0.047104248046875,0.0014796522445976734,-0.0032080437522381544,-0.006140983197838068
1773798429529066800,0.067066650390625,-0.0011379687348380685,-0.0022120214998722076,-0.0049284459091722965
1773798429549031000,0.087031005859375,-0.0009635316673666239,-0.0027659591287374496,-0.006452306639403105
1773798429568993800,0.106993896484375,0.0001978728687390685,-0.0019241338595747948,-0.0054664043709635735
1773798429588957000,0.12695703125,0.0004820321628358215,-0.0027475832030177116,-0.00515854312106967
1773798429608920800,0.1469208984375,-0.000505734293255955,-0.002540922025218606,-0.005919408053159714
1773798429628883700,0.1668837890625,-0.0004724447790067643,-0.002356364857405424,-0.005520999431610107
1773798429648848000,0.186847900390625,0.00021997711155563593,-0.0036754286848008633,-0.006988401059061289
1773798429668810800,0.206810791015625,-0.0006953513366170228,-0.0027049726340919733,-0.005819805897772312
1773798429688774000,0.22677392578125,-0.0009209210984408855,-0.0031848743092268705,-0.00455640209838748
1773798429708737800,0.24673779296875,0.0003552656853571534,-0.002769687445834279,-0.004962534178048372
1773798429728701000,0.266700927734375,0.0002745719102676958,-0.00301709515042603,-0.006340453866869211
1773798429748664800,0.286664794921875,-0.001281779375858605,-0.0033372072502970695,-0.005756688769906759
1773798429768628000,0.3066279296875,-0.0006269080913625658,-0.003179814200848341,-0.0068091703578829765
1773798429788590800,0.3265908203125,0.00041864890954457223,-0.0023811322171241045,-0.0054456316865980625
1773798429808555800,0.3465556640625,-0.00005752427750849165,-0.0027955202385783195,-0.00631914846599102
1773798429828519000,0.366518798828125,-0.0010428938549011946,-0.0030216225422918797,-0.005652825813740492
1773798429848482800,0.38648291015625,0.0004239752306602895,-0.0038338867016136646,-0.005525792948901653
1773798429868445700,0.40644580078125,-0.00014567491598427296,-0.0032570459879934788,-0.005532983224838972
1773798429888408600,0.42640869140625,0.00035420042695477605,-0.0028943235520273447,-0.004378503188490868
1773798429908372700,0.446372802734375,-0.0008969526388682425,-0.002901247702538967,-0.0037651772145181894
1773798429928335600,0.466335693359375,-0.00013662016135640442,-0.0029590383637696505,-0.005119927227497101
1773798429948299500,0.486299560546875,0.0010037453612312675,-0.003831756068393588,-0.003882622579112649
1773798429968262700,0.5062626953125,-0.0012199940392747521,-0.0023494407068938017,-0.00609224708750844
1773798429988225800,0.526225830078125,0.0012956279097124934,-0.0035055188927799463,-0.006895722821354866
1773798430008189700,0.546189697265625,0.0009448895580135286,-0.003198722843080759,-0.006687463726848364
1773798430028152800,0.56615283203125,-0.0002681803307496011,-0.0032053806353360415,-0.00771624268963933
1773798430048116700,0.58611669921875,-0.0009946906939148903,-0.0034703651908785105,-0.0060357884503901005
1773798430068079600,0.60607958984375,-0.00019361180602572858,-0.0038075214251875877,-0.005437908694148064
1773798430088042800,0.626042724609375,0.0004796353168785572,-0.0037835529074072838,-0.006053631659597158
1773798430108006700,0.646006591796875,-0.0006684534018859267,-0.0024764735717326403,-0.005230181850492954
1773798430127969800,0.6659697265625,0.0007217166712507606,-0.003614442190155387,-0.003216033335775137
1773798430147933700,0.68593359375,-0.0001608549355296418,-0.003325489116832614,-0.005117530468851328
1773798430167896800,0.705896728515625,-0.0019323896849527955,-0.003251187037676573,-0.005542038008570671
1773798430187859700,0.725859619140625,0.00007217166421469301,-0.002969158347696066,-0.0037001960445195436
1773798430207824000,0.745823974609375,-0.00008415588672505692,-0.002522546099498868,-0.004828843753784895
1773798430227786800,0.765786865234375,-0.0002849582233466208,-0.0031494542490690947,-0.005840578582137823
1773798430247750700,0.785750732421875,-0.00030892668291926384,-0.003534813644364476,-0.005922337528318167
1773798430267713800,0.8057138671875,-0.0007882956997491419,-0.0026676885318011045,-0.00500940578058362
1773798430287677000,0.825677001953125,-0.0002884203568100929,-0.0030945930629968643,-0.005017129238694906
1773798430307640800,0.845640869140625,0.00020879182557109743,-0.00361737166531384,-0.004652542527765036
1773798430327603700,0.865603759765625,0.0008114652009680867,-0.0027979169972240925,-0.0037143107037991285
1773798430347567900,0.88556787109375,0.0004218447138555348,-0.0026016421616077423,-0.004278901033103466
1773798430367530800,0.90553076171875,0.0004141215467825532,-0.0037859496660530567,-0.004524710588157177
1773798430387494000,0.925493896484375,0.000788561999797821,-0.00433003343641758,-0.004506601020693779
1773798430407457800,0.945457763671875,0.0005494101205840707,-0.0025939189363271,-0.005339637864381075
1773798430427421000,0.9654208984375,-0.0016314524691551924,-0.0023968450259417295,-0.006132461130619049
1773798430447384800,0.985384765625,-0.0008279767935164273,-0.0013116068439558148,-0.006392118986696005
1773798430467348000,1.005347900390625,-0.0003680488734971732,-0.0031467911321669817,-0.006022206041961908
1773798430487310600,1.025310546875,-0.0002767024270724505,-0.003308977698907256,-0.006472812965512276
1773798430507274800,1.045274658203125,0.0005605954211205244,-0.0052022188901901245,-0.00472498033195734
1773798430527237600,1.065237548828125,0.000824248360004276,-0.0031063109636306763,-0.006268548313528299
1773798430547200800,1.08520068359375,-0.0004719121498055756,-0.002734533743932843,-0.0034021881874650717
1773798430567164700,1.10516455078125,0.0014149374328553677,-0.0029057750944048166,-0.0036788906436413527
1773798430587127800,1.1251279296875,-0.0009329052991233766,-0.0031374699901789427,-0.004895422607660294
1773798430607091700,1.145091796875,-0.0002258360618725419,-0.003385410411283374,-0.006140450481325388
1773798430627054600,1.1650546875,-0.0008594020619057119,-0.0015773903578519821,-0.007443002425134182
1773798430647017700,1.185017822265625,-0.0003664509567897767,-0.00290444353595376,-0.005564142484217882
1773798430666981600,1.204981689453125,-0.00010972223390126601,-0.002189384773373604,-0.00635004136711359
1773798430686944800,1.22494482421875,0.0006253102328628302,-0.002935868687927723,-0.006355900317430496
1773798430706908700,1.24490869140625,-0.00032863407977856696,-0.003180080559104681,-0.005621400196105242
1773798430726871800,1.264871826171875,-0.00009986854274757206,-0.002953445538878441,-0.0065252771601080894
1773798430746834700,1.284834716796875,-0.00003328951424919069,-0.0031278827227652073,-0.006340720225125551
1773798430766798800,1.304798828125,0.0002972087822854519,-0.0026666230987757444,-0.006068279035389423
1773798430786761700,1.32476171875,0.001975266495719552,-0.002813895931467414,-0.006012352649122477
1773798430806725600,1.3447255859375,-0.00023435817274730653,-0.00216488353908062,-0.00484295841306448
1773798430826688800,1.364688720703125,0.0002348908019484952,-0.0027571707032620907,-0.004352404270321131
1773798430846652000,1.38465185546875,0.0005677859298884869,-0.001686846255324781,-0.005251220893114805
1773798430866615800,1.40461572265625,-0.0000655137628200464,-0.003013632958754897,-0.007370298262685537
1773798430886578700,1.42457861328125,-0.0019094864837825298,-0.0041611893102526665,-0.007100253831595182
1773798430906542800,1.44454296875,-0.00006258428766159341,-0.002907106652855873,-0.007327421568334103
1773798430926505700,1.464505615234375,0.0004828310920856893,-0.003683950752019882,-0.005631786771118641
1773798430946468900,1.48446875,-0.000764593540225178,-0.0027105652261525393,-0.00586667750030756
1773798430966432800,1.504432861328125,-0.000740625080652535,-0.0029590383637696505,-0.003704190719872713
1773798430986396000,1.52439599609375,-0.0006077333819121122,-0.0034013893455266953,-0.0035127094015479088
1773798431006358800,1.54435888671875,-0.002371544949710369,-0.0017528926255181432,-0.003013632958754897
1773798431026323000,1.564322998046875,-0.0013688647886738181,-0.0015110776294022799,-0.002132659312337637
1773798431046285800,1.584285888671875,0.0004247741890139878,-0.00216568261384964,-0.0028431906830519438
1773798431066249700,1.604249755859375,0.0003278351214248687,-0.0021369203459471464,-0.003549194661900401
1773798431086212600,1.624212646484375,0.0006905576447024941,-0.004138552118092775,-0.004232828039675951
1773798431106175700,1.64417578125,-0.0015608787070959806,-0.002438656520098448,-0.005225654691457748
1773798431126139600,1.6641396484375,-0.00012490226072259247,-0.001936384360305965,-0.0080323601141572
1773798431146102800,1.684102783203125,-0.0001917476038215682,-0.00407490273937583,-0.008157262578606606
1773798431166066700,1.704066650390625,0.0006404902087524533,-0.004177967086434364,-0.005554554983973503
1773798431186029600,1.724029541015625,-0.00202293717302382,-0.0041582598350942135,-0.0032799490727484226
1773798431205992700,1.74399267578125,0.00006711165769957006,-0.0024860608391463757,-0.004480235744267702
1773798431225956600,1.76395654296875,-0.0016783240716904402,-0.0031039142049849033,-0.002225870033726096
1773798431245919700,1.783919677734375,-0.0010849718237295747,-0.0011145329335704446,-0.000713993504177779
1773798431265883600,1.803883544921875,-0.0003430151555221528,-0.004887965973466635,-0.0021222729701548815
1773798431285846800,1.8238466796875,-0.0010061422362923622,-0.0035547874867916107,-0.00535375252366066
1773798431305809700,1.8438095703125,-0.0010346380295231938,-0.003899933071807027,-0.010150638408958912
1773798431325773800,1.86377392578125,-0.0019955066964030266,-0.003451723139733076,-0.011260909959673882
1773798431345736700,1.88373681640625,0.001156877144239843,-0.0037468012887984514,-0.012949620373547077
1773798431365699800,1.903699951171875,-0.00024740767548792064,-0.003585413796827197,-0.011238805949687958
1773798431385663700,1.923663818359375,0.0003070624661631882,-0.004864796530455351,-0.00902651809155941
1773798431405627000,1.943626953125,-0.000222373942960985,-0.004258128348737955,-0.005795304663479328
1773798431425590800,1.9635908203125,0.0005560680292546749,-0.001847434788942337,-0.0030692932195961475
1773798431445553700,1.9835537109375,0.0005672533297911286,-0.002633600030094385,-0.002186188939958811
1773798431465516800,2.003516845703125,-0.00040506679215468466,-0.004017910920083523,-0.004343615844845772
1773798431485480700,2.023480712890625,-0.0012942962348461151,-0.0019435749854892492,-0.0041433461010456085
1773798431505443800,2.04344384765625,0.0002665824140422046,-0.0022117553744465113,-0.007318633142858744
1773798431525407700,2.06340771484375,-0.0008506136364303529,-0.0035537220537662506,-0.008021974004805088
1773798431545371000,2.083370849609375,0.0016088156262412667,-0.003748665563762188,-0.006393184419721365
1773798431565333800,2.103333740234375,-0.0017302557826042175,-0.0054392400197684765,-0.005119394510984421
1773798431585298000,2.1232978515625,-0.0007659250986762345,-0.0021467742044478655,-0.006195045076310635
1773798431605260800,2.1432607421875,0.00034887410583905876,-0.0037619813811033964,-0.003681021276861429
1773798431625223700,2.1632236328125,-0.0002932140196207911,-0.002168612089008093,-0.003212571144104004
1773798431645187800,2.183187744140625,-0.000934236915782094,-0.0025302693247795105,-0.005587844643741846
1773798431665150700,2.203150634765625,0.00020426444825716317,-0.0021065603941679,-0.006440322380512953
1773798431685115000,2.223114990234375,0.0005446164286695421,-0.003805124433711171,-0.00917245913296938
1773798431705077800,2.243077880859375,0.00045540055725723505,-0.00253479671664536,-0.007358846720308065
1773798431725040600,2.26304052734375,-0.0001054611784638837,-0.0010993528412654996,-0.009180448949337006
1773798431745004500,2.283004638671875,-0.0012066783383488655,-0.0030778152868151665,-0.00657667638733983
1773798431764967700,2.3029677734375,-0.00033688987605273724,-0.003269829088822007,-0.008461661636829376
1773798431784931600,2.322931640625,-0.0008234494016505778,-0.0024136228021234274,-0.006052033510059118
1773798431804894200,2.342894287109375,-0.0011456918437033892,-0.003856257302686572,-0.005825664848089218
1773798431824857300,2.362857421875,0.0004900216590613127,-0.0034442662727087736,-0.004066380672156811
1773798431844821200,2.3828212890625,-0.0018229337874799967,-0.00373082235455513,-0.0070129018276929855
1773798431864784100,2.4027841796875,-0.0005779059720225632,-0.002694586291909218,-0.006401972845196724
1773798431884747300,2.422747314453125,0.00008202536264434457,-0.0016018913593143225,-0.004280232358723879
1773798431904711200,2.442711181640625,0.0007805725326761603,-0.0026407905388623476,-0.003936418332159519
1773798431924674300,2.46267431640625,0.0003579288604669273,-0.0024077638518065214,-0.0037534593138843775
1773798431944638200,2.48263818359375,-0.0009832390351220965,-0.0029585056472569704,-0.006119145080447197
1773798431964601300,2.502601318359375,-0.0010045443195849657,-0.00250603468157351,-0.0049313753843307495
1773798431984564000,2.52256396484375,-0.0020277309231460094,-0.0027411917690187693,-0.005575061310082674
1773798432004528400,2.5425283203125,-0.0011861718958243728,-0.003780623432248831,-0.005044293589890003
1773798432024491000,2.562490966796875,-0.0007424892974086106,-0.003995274193584919,-0.0057622818276286125
1773798432044455200,2.582455078125,-0.0005427522119134665,-0.0022943131625652313,-0.005801696330308914
1773798432064418000,2.60241796875,-0.0007360977469943464,-0.0034874093253165483,-0.007589742541313171
1773798432084381200,2.622381103515625,-0.0008564725867472589,-0.0031044469214975834,-0.006622748915106058
1773798432104345000,2.642344970703125,0.00013635384675581008,-0.0028248149901628494,-0.006454703398048878
1773798432124308200,2.66230810546875,0.00005352953667170368,-0.002376871183514595,-0.007207578979432583
1773798432144271000,2.68227099609375,-0.0006900250446051359,-0.003593935864046216,-0.006262689363211393
1773798432164235000,2.702235107421875,-0.000051132694352418184,-0.0033454629592597485,-0.0065050371922552586
1773798432184198100,2.7221982421875,-0.0003755057114176452,-0.005003280472010374,-0.0070432620123028755
1773798432204162000,2.742162109375,0.0001496696495451033,-0.0026101642288267612,-0.006684800609946251
1773798432224125200,2.762125244140625,-0.00030866035376675427,-0.0028064390644431114,-0.005065864883363247
1773798432244088000,2.782088134765625,-0.0008831042214296758,-0.0015249260468408465,-0.0049409628845751286
1773798432264052200,2.80205224609375,-0.00019574233738239855,-0.004113518632948399,-0.004776379559189081
1773798432284015000,2.82201513671875,-0.0016817862633615732,-0.001853560097515583,-0.003754790872335434
1773798432303979300,2.841979248046875,0.00017417073831893504,-0.0035236284602433443,-0.005373726598918438
1773798432323942100,2.861942138671875,0.0004396878939587623,-0.0032197616528719664,-0.00574869941920042
1773798432343905300,2.8819052734375,0.0006431533838622272,-0.003695135936141014,-0.007219829596579075
1773798432363869200,2.901869140625,-0.0006399576086550951,-0.003888215171173215,-0.006511695217341185
1773798432383832300,2.921832275390625,0.0010812433902174234,-0.002558765234425664,-0.007507450878620148
1773798432403795200,2.941795166015625,-0.0009867012267932296,-0.003826962551102042,-0.006815827917307615
1773798432423759000,2.961759033203125,0.0005270395777188241,-0.002243446884676814,-0.005601426586508751
1773798432443722200,2.98172216796875,-0.00019254654762335122,-0.004203799646347761,-0.007443535141646862
1773798432463686100,3.00168603515625,-0.00014221279707271606,-0.003959587775170803,-0.006375341210514307
1773798432483649300,3.021649169921875,-0.0015813850332051516,-0.0024796691723167896,-0.005392901133745909
1773798432503612200,3.041612060546875,-0.0010066748363897204,-0.003897269954904914,-0.004726844374090433
1773798432523576300,3.061576416015625,-0.0013201289111748338,-0.0016929714474827051,-0.004179831128567457
1773798432543539200,3.081539306640625,0.0010892328573390841,-0.0021670141723006964,-0.003769704606384039
1773798432563502000,3.101502197265625,-0.00045300371129997075,-0.0023004384711384773,-0.004426706116646528
1773798432583466000,3.121466064453125,0.0016069513512775302,-0.0020503676496446133,-0.004523112904280424
1773798432603429000,3.14142919921875,-0.001282312092371285,-0.002529470482841134,-0.005539907608181238
1773798432623393000,3.16139306640625,-0.0007350324303843081,-0.0019358517602086067,-0.004591023549437523
1773798432643356200,3.181356201171875,0.0005371595616452396,-0.002782204421237111,-0.006702377460896969
1773798432663319000,3.201319091796875,-0.002913231961429119,-0.0034503915812820196,-0.006459763273596764
1773798432683283200,3.221283203125,0.0007486145477741957,-0.003335609333589673,-0.0065074339509010315
1773798432703246000,3.24124609375,0.0006194512825459242,-0.0037207023706287146,-0.00475507415831089
1773798432723209200,3.261209228515625,-0.0017648768844082952,-0.0016982977977022529,-0.0049529471434652805
1773798432743173000,3.281173095703125,-0.001086037140339613,-0.0021899172570556402,-0.007305583450943232
1773798432763136300,3.30113623046875,-0.0012213257141411304,-0.003891144646331668,-0.004594219382852316
1773798432783100200,3.32110009765625,-0.0005869606975466013,-0.003166232258081436,-0.00523683987557888
1773798432803064300,3.341064208984375,-0.002374208066612482,-0.00221974472515285,-0.005213137716054916
1773798432823027500,3.36102734375,-0.0007459514308720827,-0.0035981968976557255,-0.006117813754826784
1773798432842991400,3.380991455078125,-0.0019718045368790627,-0.003751328680664301,-0.00800279900431633
1773798432862954500,3.40095458984375,0.0004269047058187425,-0.0035606464371085167,-0.007464840542525053
1773798432882918400,3.42091845703125,0.0008362325606867671,-0.003498861100524664,-0.007768440991640091
1773798432902881300,3.44088134765625,-0.0006780407857149839,-0.0025864620693027973,-0.004905809182673693
1773798432922844400,3.460844482421875,0.0015395734226331115,-0.0026024410035461187,-0.0043532028794288635
1773798432942808300,3.480808349609375,0.00036991306114941835,-0.0037055222783237696,-0.0040765004232525826
1773798432962771200,3.500771240234375,0.0006647250265814364,-0.002639458980411291,-0.0036519928835332394
1773798432982734000,3.520734130859375,-0.0013749900972470641,-0.0029917950741946697,-0.005589175969362259
1773798433002698200,3.5406982421875,-0.0009419600828550756,-0.003382747294381261,-0.0037888791412115097
1773798433022661000,3.5606611328125,-0.00026525085559114814,-0.0032599754631519318,-0.005317001137882471
1773798433042625300,3.580625244140625,-0.0009507485083304346,-0.003721501212567091,-0.006727943662554026
1773798433062588200,3.600588134765625,-0.00035952674807049334,-0.002898318227380514,-0.0057226005010306835
1773798433082551300,3.62055126953125,-0.0022098910994827747,-0.003525492735207081,-0.0070129018276929855
1773798433102515200,3.64051513671875,-0.0017473000334575772,-0.003963582683354616,-0.007140733767300844
1773798433122478300,3.660478271484375,0.0004522047529462725,-0.0031558459158986807,-0.008282430469989777
1773798433142442200,3.680442138671875,-0.0007821703911758959,-0.0036602485924959183,-0.007305583450943232
1773798433162405400,3.7004052734375,-0.0011092065833508968,-0.0036706349346786737,-0.004622981417924166
1773798433182368300,3.7203681640625,-0.0006226470577530563,-0.0020746025256812572,-0.0065314024686813354
1773798433202332200,3.740332275390625,-0.00026604978484101593,-0.0016945693641901016,-0.003567836945876479
1773798433222295300,3.76029541015625,-0.0016713999211788177,-0.004011519718915224,-0.004209392238408327
1773798433242258400,3.780258544921875,-0.000892425247002393,-0.0032115059439092875,-0.0025747441686689854
1773798433262222300,3.800222412109375,-0.0016682040877640247,-0.0032538501545786858,-0.005540973041206598
1773798433282185200,3.820185302734375,-0.0003909520455636084,-0.0032059133518487215,-0.0049319081008434296
1773798433302148400,3.8401484375,0.0006447513005696237,-0.003777960315346718,-0.00669305631890893
1773798433322112300,3.8601123046875,-0.0005515406373888254,-0.0037643781397491693,-0.00749147217720747
1773798433342075400,3.880075439453125,0.0005376922199502587,-0.002270078519359231,-0.005781722720712423
1773798433362039300,3.900039306640625,-0.00006897587445564568,-0.0025457157753407955,-0.007239536847919226
1773798433382002400,3.92000244140625,-0.0004213120846543461,-0.00373135507106781,-0.008329303003847599
1773798433401965300,3.93996533203125,-0.000707868195604533,-0.0022327941842377186,-0.008351939730346203
1773798433421929500,3.959929443359375,-0.0009070726810023189,-0.0024557008873671293,-0.006720487028360367
1773798433441892400,3.979892333984375,0.0004340952436905354,-0.0024732777383178473,-0.008260592818260193
1773798433461855200,3.999855224609375,-0.001121989800594747,-0.003409911412745714,-0.005878129042685032
1773798433481819400,4.0198193359375,-0.0004961469094268978,-0.002499909373000264,-0.004740426782518625
1773798433501782300,4.0397822265625,0.00012223910016473383,-0.002019474981352687,-0.0037345506716519594
1773798433521746400,4.059746337890625,-0.0007352987886406481,-0.002507898723706603,-0.0032810145057737827
1773798433541709300,4.079709228515625,0.0008223841432482004,-0.003151052165776491,-0.004975850228220224
1773798433561672200,4.099672119140625,-0.0011733887949958444,-0.0023611586075276136,-0.005339105147868395
1773798433581636000,4.119635986328125,-0.0010287790792062879,-0.0024671524297446012,-0.00609357887879014
1773798433601599200,4.13959912109375,0.0003834952076431364,-0.0017033577896654606,-0.004437359049916267
1773798433621563100,4.159563232421875,-0.0008617989369668067,-0.0027265443932265043,-0.003486876841634512
1773798433641526300,4.1795263671875,-0.0006269080913625658,-0.0028839372098445892,-0.004573446698486805
1773798433661489200,4.1994892578125,0.00040772996726445854,-0.0038783615455031395,-0.004768922459334135
1773798433681453300,4.219453369140625,0.0007723167072981596,-0.003290868131443858,-0.0054632085375487804
1773798433701416200,4.239416259765625,-0.0007542071980424225,-0.0033571808598935604,-0.004720719531178474
1773798433721379300,4.25937939453125,-0.0008932242053560913,-0.003629888640716672,-0.003296460723504424
1773798433741343200,4.27934326171875,0.00004447478931979276,-0.0020682108588516712,-0.006160690449178219
1773798433761306400,4.299306396484375,-0.0009853695519268513,-0.003084473079070449,-0.006868558935821056
1773798433781270300,4.319270263671875,-0.0009635316673666239,-0.00285011506639421,-0.004048271104693413
1773798433801231600,4.339231689453125,-0.0014703312190249562,-0.001603755634278059,-0.0028091021813452244
1773798433821194800,4.35919482421875,-0.0004772384709212929,-0.003728425595909357,-0.004859736189246178
1773798433841158700,4.37915869140625,-0.0014261227333918214,-0.0034874093253165483,-0.00577879324555397
1773798433861121500,4.39912158203125,-0.00001304948909819359,-0.0024868599139153957,-0.0072896042838692665
1773798433881084700,4.419084716796875,-0.001100684516131878,-0.003766775131225586,-0.006612362805753946
1773798433901048600,4.439048583984375,0.0003802994033321738,-0.0019297265680506825,-0.006293049547821283
1773798433921011700,4.45901171875,0.0010519486386328936,-0.002802710747346282,-0.0070334081538021564
1773798433940975600,4.4789755859375,-0.0004628573951777071,-0.004085821565240622,-0.007325290702283382
1773798433960938800,4.498938720703125,-0.0003475425182841718,-0.003307912265881896,-0.005397428758442402
1773798433980901600,4.518901611328125,-0.0028072381392121315,-0.002251702593639493,-0.007956193760037422
1773798434000865800,4.53886572265625,-0.00044847631943412125,-0.004167846869677305,-0.00628905463963747
1773798434020828700,4.55882861328125,-0.0016279903938993812,-0.0033803503029048443,-0.005870139691978693
1773798434040791800,4.578791748046875,-0.0003611246356740594,-0.002686330582946539,-0.006741526070982218
1773798434060755700,4.598755615234375,-0.00005246427463134751,-0.0031278827227652073,-0.006327404174953699
1773798434080718800,4.61871875,0.0011518171522766352,-0.004062652122229338,-0.006371080409735441
1773798434100682800,4.638682861328125,-0.0015121428295969963,-0.0026900589000433683,-0.0034490597900003195
1773798434120646000,4.65864599609375,0.0003270361921750009,-0.0033811493776738644,-0.0032807481475174427
1773798434140608500,4.6786083984375,-0.001422128058038652,-0.0026349315885454416,-0.003385676769539714
1773798434160572700,4.69857275390625,-0.0005257080192677677,-0.002305232221260667,-0.0037199032958596945
1773798434180535600,4.71853564453125,-0.0004767058417201042,-0.0010972223244607449,-0.005122590344399214
1773798434200498700,4.738498779296875,-0.0002812298189383,-0.00401551416143775,-0.007798268459737301
1773798434220462600,4.758462646484375,-0.0009259810904040933,-0.0029198897536844015,-0.008247011341154575
1773798434240425500,4.778425537109375,-0.00027803401462733746,-0.004553472623229027,-0.007546865846961737
1773798434260389600,4.7983896484375,-0.0006016080733388662,-0.0034328147303313017,-0.005711415316909552
1773798434280352500,4.8183525390625,0.0005539375124499202,-0.0038344194181263447,-0.0062275356613099575
1773798434300315600,4.838315673828125,-0.0005819007055833936,-0.003841077210381627,-0.007453921716660261
1773798434320279600,4.858279541015625,0.0009592706337571144,-0.0023425165563821793,-0.0067662931978702545
1773798434340242700,4.87824267578125,0.00017124126316048205,-0.002894589677453041,-0.00788428820669651
1773798434360205600,4.89820556640625,0.0008617989369668067,-0.003311640815809369,-0.007743407040834427
1773798434380169700,4.918169677734375,0.00018988338706549257,-0.0024082965683192015,-0.006536728702485561
1773798434400132600,4.938132568359375,-0.0005520732956938446,-0.0034384073223918676,-0.00555215822532773
1773798434420096500,4.958096435546875,-0.0007651261985301971,-0.0019006980583071709,-0.005043494515120983
1773798434440059600,4.9780595703125,-0.0010434264549985528,-0.0033595776185393333,-0.006310360040515661
1773798434460022800,4.998022705078125,-0.00007723167072981596,-0.003282346064224839,-0.008131962269544601
1773798434479986700,5.017986572265625,-0.0009081379394046962,-0.0019140138756483793,-0.007474161684513092
1773798434499949600,5.037949462890625,-0.00024474450037814677,-0.0018913770327344537,-0.005738579668104649
1773798434519913700,5.057913818359375,0.000586161739192903,-0.003287672298029065,-0.00466532539576292
1773798434539876600,5.077876708984375,-0.000904409505892545,-0.00301656243391335,-0.006213953718543053
1773798434559839700,5.09783984375,0.0004492752777878195,-0.0035752938129007816,-0.005311941262334585
1773798434579803600,5.1178037109375,-0.0001930791768245399,-0.002951315138489008,-0.006362558342516422
1773798434599766800,5.137766845703125,0.0005824333056807518,-0.0032469260040670633,-0.0046394928358495235
1773798434619729700,5.157729736328125,-0.0015345134306699038,-0.003403786104172468,-0.0037609159480780363
1773798434639693800,5.17769384765625,0.0007840346079319715,-0.004236023873090744,-0.004379035905003548
1773798434659656700,5.19765673828125,-0.00009081379539566115,-0.0023760723415762186,-0.005525792948901653
1773798434679620900,5.217620849609375,0.0003177151083946228,-0.002576075727120042,-0.006340187508612871
1773798434699583700,5.237583740234375,-0.0007302387384697795,-0.0029084382113069296,-0.005938050337135792
1773798434719546600,5.257546630859375,-0.0008668589289300144,-0.0011709919199347496,-0.006381999235600233
1773798434739510800,5.2775107421875,-0.0008165251929312944,-0.0023377228062599897,-0.005547364708036184
1773798434759473700,5.2974736328125,0.0011827098205685616,-0.003346528159454465,-0.005593969952315092
1773798434779436500,5.3174365234375,-0.000395745737478137,-0.0031366711482405663,-0.008051002398133278
1773798434799402500,5.337402587890625,0.0007113303290680051,-0.0017608820926398039,-0.004342284053564072
1773798434819365400,5.357365478515625,0.00006870955257909372,-0.0036780918017029762,-0.006623814348131418
1773798434839329500,5.37732958984375,-0.0000476705827168189,-0.0038424087688326836,-0.006548712961375713
1773798434859292400,5.39729248046875,-0.0007227819296531379,-0.0031457259319722652,-0.006652310024946928
1773798434879255600,5.417255615234375,-0.0009291769238188863,-0.002148372121155262,-0.006813431158661842
1773798434899219500,5.437219482421875,0.00042770366417244077,-0.004274639766663313,-0.0054850466549396515
1773798434919182600,5.4571826171875,-0.0025217472575604916,-0.0031704932916909456,-0.005268531385809183
1773798434939146500,5.477146484375,0.000431432097684592,-0.002776611829176545,-0.00583871454000473
1773798434959109600,5.497109619140625,-0.000999484327621758,-0.002540922025218606,-0.0043718451634049416
1773798434979072500,5.517072509765625,-0.0006133259739726782,-0.0021252024453133345,-0.00498064374551177
1773798434999036700,5.53703662109375,-0.0008149272762238979,-0.0034149715211242437,-0.006595850922167301
1773798435018999600,5.55699951171875,0.000008788431841821875,-0.003421096596866846,-0.0057007623836398125
1773798435038962700,5.576962646484375,-0.0010689928894862533,-0.0025358619168400764,-0.006068544927984476
1773798435058926600,5.596926513671875,-0.00009693906031316146,-0.0031561122741550207,-0.006736998446285725
1773798435078889700,5.6168896484375,-0.0018138790037482977,-0.0032463932875543833,-0.004989165812730789
1773798435098853600,5.636853515625,-0.001600826159119606,-0.004005394410341978,-0.005150287412106991
1773798435118816500,5.65681640625,-0.00013422331539914012,-0.0022301310673356056,-0.004166515544056892
1773798435138779400,5.676779296875,-0.0011909656459465623,-0.0034376082476228476,-0.00504083139821887
1773798435158743300,5.696743408203125,-0.00035899411886930466,-0.003162237349897623,-0.004181429278105497
1773798435178706400,5.71670654296875,-0.0007275756215676665,-0.0030447919853031635,-0.006614226847887039
1773798435198669300,5.73666943359375,-0.0004900216590613127,-0.0034706315491348505,-0.005494633689522743
1773798435218633500,5.756633544921875,0.0001400822657160461,-0.0030985879711806774,-0.006386260036379099
1773798435238596400,5.776596435546875,0.00041864890954457223,-0.004053330980241299,-0.005587578285485506
1773798435258560500,5.796560546875,0.00014327807002700865,-0.0027422569692134857,-0.005872536450624466
1773798435278523400,5.8165234375,0.00025513084256090224,-0.003623230615630746,-0.007154315710067749
1773798435298486500,5.836486572265625,-0.0007667240570299327,-0.003658917034044862,-0.005534581374377012
1773798435318450400,5.856450439453125,-0.00020453077740967274,-0.003245860803872347,-0.005823534447699785
1773798435338413600,5.87641357421875,0.000005060006060375599,-0.0030506509356200695,-0.005802229046821594
1773798435358376400,5.89637646484375,-0.0007315703551284969,-0.003582750679925084,-0.005016063805669546
1773798435378340600,5.916340576171875,-0.00026365293888375163,-0.00227913330309093,-0.004520449787378311
1773798435398303500,5.936303466796875,-0.0008556736283935606,-0.003034672001376748,-0.005064000841230154
1773798435418267400,5.956267333984375,0.00019387812062632293,-0.004032558295875788,-0.006024336442351341
1773798435438230500,5.97623046875,-0.0015078817959874868,-0.0016341155860573053,-0.005075452383607626
1773798435458193700,5.996193603515625,-0.0012756541837006807,-0.003483681008219719,-0.004185956437140703
1773798435478157600,6.016157470703125,-0.0007366303470917046,-0.0024980450980365276,-0.006393450777977705
1773798435498120400,6.036120361328125,-0.0010727213229984045,-0.0032719597220420837,-0.007180680986493826
1773798435518084600,6.056084716796875,0.0002490055630914867,-0.0030956584960222244,-0.005570534151047468
1773798435538047500,6.076047607421875,-0.0011014834744855762,-0.0035302862524986267,-0.004772917367517948
1773798435558010600,6.0960107421875,-0.00035233621019870043,-0.0021576930303126574,-0.004747617058455944
1773798435577974500,6.115974609375,-0.00039547940832562745,-0.0025987126864492893,-0.005907690152525902
1773798435597937700,6.135937744140625,0.000013315805517777335,-0.002867958042770624,-0.004610198084264994
1773798435617900500,6.155900634765625,-0.0012599414912983775,-0.004890895448625088,-0.006720487028360367
1773798435637864700,6.17586474609375,-0.0005917543894611299,-0.0028154938481748104,-0.004830175079405308
1773798435657827600,6.19582763671875,-0.0011414308100938797,-0.0022948458790779114,-0.007625695317983627
1773798435677791500,6.21579150390625,-0.00133903743699193,-0.003037867834791541,-0.006505836267024279
1773798435697754400,6.23575439453125,0.00007882956560933962,-0.00216568261384964,-0.006587595213204622
1773798435717717500,6.255717529296875,-0.0013065468519926071,-0.0034914042335003614,-0.006153766065835953
1773798435737681400,6.275681396484375,-0.0004324973560869694,-0.0025566346012055874,-0.006755374372005463
1773798435757644300,6.295644287109375,-0.00020053602929692715,-0.0037321539130061865,-0.004795021377503872
1773798435777608400,6.3156083984375,0.0001030643325066194,-0.003440005239099264,-0.005644303746521473
1773798435797571300,6.3355712890625,-0.0030895331874489784,-0.0016410398529842496,-0.0057681407779455185
1773798435817533400,6.355533447265625,-0.001711081014946103,-0.003680488560348749,-0.005746036302298307
1773798435837497600,6.37549755859375,0.00112465291749686,-0.0016889767721295357,-0.006918093655258417
1773798435857460500,6.39546044921875,-0.0013917679898440838,-0.0021489046048372984,-0.004849350079894066
1773798435877423600,6.415423583984375,-0.0007837683078832924,-0.0037910097744315863,-0.004000067710876465
1773798435897387500,6.435387451171875,-0.0009398295660503209,-0.003061037277802825,-0.006166283041238785
1773798435917350700,6.4553505859375,-0.0008791094878688455,-0.0028397287242114544,-0.006106362212449312
1773798435937314600,6.475314453125,0.00042823629337362945,-0.002694586291909218,-0.006332464516162872
1773798435957277400,6.49527734375,-0.0002966761530842632,-0.0029049760196357965,-0.005656553898006678
1773798435977240600,6.515240478515625,-0.0011707255616784096,-0.0027481159195303917,-0.0059843892231583595
1773798435997204500,6.53520458984375,0.0013073458103463054,-0.0030075078830122948,-0.006764429155737162
1773798436017167600,6.555167724609375,0.0005161206354387105,-0.002719353651627898,-0.004535363521426916
1773798436037130500,6.575130615234375,0.001975799212232232,-0.00407383730635047,-0.003349457634612918
1773798436057094700,6.5950947265625,-0.0006567355012521148,-0.003865312086418271,-0.005345763172954321
1773798436077057500,6.6150576171875,-0.0012373046483844519,-0.003195793367922306,-0.005330050364136696
1773798436097021700,6.635021728515625,0.00025992453447543085,-0.002633333671838045,-0.005983057431876659
1773798436116984600,6.654984619140625,0.00039734362508170307,-0.0028328043408691883,-0.005805158521980047
1773798436136947500,6.674947509765625,-0.0016343819443136454,-0.0028575719334185123,-0.00629012007266283
1773798436156911600,6.69491162109375,0.001457814360037446,-0.003925233148038387,-0.003285009181126952
1773798436176874500,6.71487451171875,-0.0017536915838718414,-0.0025840650778263807,-0.005630721338093281
1773798436196838700,6.734838623046875,-0.00037816885742358863,-0.003222425002604723,-0.0036727653350681067
1773798436216801300,6.75480126953125,-0.0012293151812627912,-0.0035534559283405542,-0.004358529578894377
1773798436236764400,6.774764404296875,-0.0017843178939074278,-0.004240817856043577,-0.00560941593721509
1773798436256728300,6.794728271484375,-0.00014753911818843335,-0.0032594427466392517,-0.005293831694871187
1773798436276691500,6.81469140625,-0.00042344260145910084,-0.0027329358272254467,-0.006566289812326431
1773798436296654300,6.834654296875,0.00035366779775358737,-0.004297542851418257,-0.00395745737478137
1773798436316618500,6.854618408203125,-0.0011041465913876891,-0.0013006879016757011,-0.0026517093647271395
1773798436336581400,6.874581298828125,-0.0006503439508378506,-0.0024176177103072405,-0.0052293832413852215
1773798436356545500,6.894545654296875,-0.0004348942020442337,-0.002600044244900346,-0.006415288895368576
1773798436376508400,6.91450830078125,-0.00009853696246864274,-0.003338006092235446,-0.0079146483913064
1773798436396471600,6.934471435546875,0.00033103092573583126,-0.00020453077740967274,-0.007709585130214691
1773798436416435500,6.954435546875,-0.0004340952436905354,-0.004257062915712595,-0.007284544408321381
1773798436436398600,6.974398681640625,-0.0011914982460439205,-0.003366768127307296,-0.009394301101565361
1773798436456361500,6.994361572265625,0.00013928332191426307,-0.0035020567011088133,-0.006432066671550274
1773798436476325600,7.01432568359375,-0.0006450176006183028,-0.0031489215325564146,-0.005584382452070713
1773798436496288500,7.03428857421875,-0.0011643340112641454,-0.002624545246362686,-0.006376140285283327
1773798436516252400,7.05425244140625,-0.0012303803814575076,-0.0018469021888449788,-0.006076801102608442
1773798436536215600,7.074215576171875,-0.0011829761788249016,-0.002094576135277748,-0.005666407756507397
1773798436556178700,7.0941787109375,-0.001273523666895926,-0.003004844533279538,-0.005483182147145271
1773798436576142600,7.114142578125,0.0006964165950194001,-0.0023379891645163298,-0.0046850331127643585
1773798436596105500,7.13410546875,0.0002711098059080541,-0.003591539105400443,-0.0057098171673715115
1773798436616068600,7.154068603515625,-0.0013739247806370258,-0.002584597794339061,-0.0060211410745978355
1773798436636032500,7.174032470703125,-0.000333161442540586,-0.004023237619549036,-0.005614476278424263
1773798436655995600,7.19399560546875,-0.00016112125013023615,-0.0032703618053346872,-0.006083991378545761
1773798436675959600,7.21395947265625,-0.0010008158860728145,-0.002186188939958811,-0.006062153726816177
1773798436695922700,7.233922607421875,0.00021971078240312636,-0.002912965603172779,-0.00407570181414485
1773798436715885300,7.25388525390625,0.0004777711001224816,-0.003953995183110237,-0.005481318105012178
1773798436735849700,7.273849609375,-0.0006815029191784561,-0.002639725338667631,-0.0038812910206615925
1773798436755812400,7.293812255859375,-0.0001637844106880948,-0.002310824813321233,-0.004229898564517498
1773798436775775500,7.313775390625,0.00023622238950338215,-0.004086620640009642,-0.0055090151727199554
1773798436795739400,7.333739501953125,-0.0015180017799139023,-0.0038274950347840786,-0.005605687852948904
1773798436815702300,7.353702392578125,-0.0013558153295889497,-0.0030221552588045597,-0.0073263561353087425
1773798436835666200,7.373666259765625,-0.0004271710349712521,-0.003305249148979783,-0.006791327148675919
1773798436855629300,7.39362939453125,0.0002921487612184137,-0.0026581010315567255,-0.006578274071216583
1773798436875592200,7.41359228515625,-0.0006679208017885685,-0.00350472005084157,-0.006354568526148796
1773798436895556000,7.43355615234375,-0.0008783105295151472,-0.003242132253944874,-0.006097839679569006
1773798436915519200,7.453519287109375,-0.000472977408207953,-0.00250603468157351,-0.005194761790335178
1773798436935482400,7.473482421875,-0.00018029600323643535,-0.0024810009635984898,-0.0057465690188109875
1773798436955446300,7.4934462890625,-0.0007893609581515193,-0.0033156354911625385,-0.005204082932323217
1773798436975409200,7.5134091796875,-0.00009374327055411413,-0.0031055121216923,-0.004347876645624638
1773798436995373300,7.533373291015625,0.00047590688336640596,-0.002861566608771682,-0.0046999468468129635
1773798437015336200,7.553336181640625,0.0008333030855283141,-0.003959587775170803,-0.00458809407427907
1773798437035299300,7.57329931640625,0.0003251719754189253,-0.0023166837636381388,-0.0034530546981841326
1773798437055263200,7.59326318359375,-0.0000045273736759554595,-0.0035369442775845528,-0.0036605149507522583
1773798437075226400,7.613226318359375,0.0007073355955071747,-0.003977430984377861,-0.0036487970501184464
1773798437095189200,7.633189208984375,-0.0013206616276875138,-0.0029140308033674955,-0.0063095614314079285
1773798437115153400,7.6531533203125,-0.00006391586794052273,-0.0026610305067151785,-0.0063196811825037
1773798437135116300,7.6731162109375,-0.0012948289513587952,-0.0033510555513203144,-0.006010754499584436
1773798437155080200,7.693080078125,0.0002748382103163749,-0.002030926523730159,-0.006943659856915474
1773798437175043300,7.713043212890625,-0.000029827404432580806,-0.0028959212359040976,-0.005408880300819874
1773798437195006200,7.733006103515625,0.00039974047103896737,-0.0023931164760142565,-0.0064373929053545
1773798437214970400,7.752970458984375,-0.0017504957504570484,-0.0005667206714861095,-0.006844590418040752
1773798437234933200,7.772933349609375,-0.0003281014505773783,-0.0019768644124269485,-0.0075788237154483795
1773798437254896000,7.792896240234375,-0.0012341088149696589,-0.0035055188927799463,-0.00746111199259758
1773798437274860000,7.812860107421875,-0.001767273643054068,-0.0023254721891134977,-0.0065801385790109634
1773798437294823200,7.8328232421875,-0.0013510215794667602,-0.003975034225732088,-0.007156180217862129
1773798437314787000,7.852787109375,-0.0012809804175049067,-0.0035742283798754215,-0.00782410055398941
1773798437334750200,7.872750244140625,0.000749679864384234,-0.003177950158715248,-0.006869357544928789
1773798437354713000,7.892713134765625,-0.00025779398856684566,-0.00339153571985662,-0.006707170978188515
1773798437374677200,7.91267724609375,0.00008362325752386823,-0.0024644893128424883,-0.005360144190490246
1773798437394640100,7.93264013671875,-0.0011736550368368626,-0.00381444557569921,-0.005600627511739731
1773798437414603300,7.952603271484375,0.00002370213405811228,-0.002892192918807268,-0.006906375754624605
1773798437434567200,7.972567138671875,0.00018615495355334133,-0.0025566346012055874,-0.0062219430692493916
1773798437454530300,7.9925302734375,-0.0009219863568432629,-0.00021758026559837162,-0.006252569612115622
1773798437474494200,8.012494140625,-0.0016431703697890043,-0.002666090615093708,-0.005782521795481443
1773798437494457300,8.032457275390625,-0.0016935041639953852,-0.003372893435880542,-0.008538360707461834
1773798437514420200,8.052420166015626,-0.00012916330888401717,-0.0021821942646056414,-0.009869142435491085
1773798437534384000,8.072384033203125,-0.0015504923649132252,-0.0013936321483924985,-0.008409197442233562
1773798437554347300,8.09234716796875,0.0004689826746471226,-0.002523611532524228,-0.00908564031124115
1773798437574310400,8.112310302734375,-0.000290018244413659,-0.003457582090049982,-0.00755112711340189
1773798437594274300,8.1322744140625,-0.001985120354220271,-0.002013616031035781,-0.006454703398048878
1773798437614237200,8.1522373046875,-0.0013965616235509515,-0.0027268105186522007,-0.008651811629533768
1773798437634201300,8.172201416015625,0.0001430117554264143,-0.0022897860035300255,-0.006223274860531092
1773798437654164200,8.192164306640626,-0.0009539442835375667,-0.002490854589268565,-0.0032730249222368
1773798437674127400,8.21212744140625,-0.0016413062112405896,-0.0025997778866440058,-0.0035217641852796078
1773798437694091300,8.23209130859375,-0.000901480030734092,-0.0028663603588938713,-0.0036884781438857317
1773798437714054400,8.252054443359375,-0.0003968109958805144,-0.0019523634109646082,-0.005155347287654877
1773798437734017000,8.27201708984375,-0.0008261125767603517,-0.0024085629265755415,-0.005622731987386942
1773798437753981400,8.2919814453125,-0.0004575310740619898,-0.0026527747977524996,-0.006113552488386631
1773798437773944000,8.311944091796875,-0.000580036488827318,-0.0025366609916090965,-0.0059662796556949615
1773798437793908500,8.331908447265626,-0.0005853627808392048,-0.0032522522378712893,-0.005540706682950258
1773798437813874200,8.351874267578125,-0.0014772554859519005,-0.0029265477787703276,-0.00446798512712121
1773798437833837300,8.37183740234375,-0.0006482133758254349,-0.003954261541366577,-0.00678307143971324
1773798437853801200,8.39180126953125,0.0006988134700804949,-0.0031795480754226446,-0.006968693342059851
1773798437873764400,8.411764404296875,0.0014386395923793316,-0.0037446708884090185,-0.005263737868517637
1773798437893727200,8.431727294921876,-0.0008170577930286527,-0.002153964713215828,-0.005080512259155512
1773798437913691400,8.45169140625,0.00007243797881528735,-0.003953462466597557,-0.0042144525796175
1773798437933654300,8.471654296875,-0.001121989800594747,-0.0021193434949964285,-0.00660410663112998
1773798437953618200,8.4916181640625,0.0000327568814100232,-0.0035420041531324387,-0.006750847212970257
1773798437973581300,8.511581298828125,-0.000979244359768927,-0.003442135639488697,-0.006417952012270689
1773798437993544400,8.53154443359375,-0.00005406216951087117,-0.0035902075469493866,-0.006981476675719023
1773798438013508400,8.55150830078125,-0.0010423612548038363,-0.003428020980209112,-0.007675230037420988
1773798438033471200,8.57147119140625,0.000023169501218944788,-0.0037084517534822226,-0.006299441214650869
1773798438053434400,8.591434326171875,-0.00018881811411119998,-0.0035273567773401737,-0.006073605269193649
1773798438073398300,8.611398193359374,-0.00027057717670686543,-0.0035446672700345516,-0.005134041886776686
1773798438093361400,8.631361328125,-0.0010958907660096884,-0.003936951048672199,-0.00726430444046855
1773798438113324300,8.65132421875,-0.001751827308908105,-0.003602191573008895,-0.005130313336849213
1773798438133288400,8.671288330078125,0.0004918858758173883,-0.004024302586913109,-0.002603772561997175
1773798438153251300,8.691251220703125,-0.0016050871927291155,-0.00293267285451293,-0.003537210635840893
1773798438173215500,8.711215576171876,-0.0006410228670574725,-0.002415753435343504,-0.004701810888946056
1773798438193178000,8.73117822265625,-0.001202150946483016,-0.0013467605458572507,-0.003984089009463787
1773798438213141200,8.751141357421876,-0.0016029566759243608,-0.0034344124142080545,-0.004897020757198334
1773798438233105200,8.771105224609375,-0.0008974852971732616,-0.0035518580116331577,-0.0033771544694900513
1773798438253068300,8.791068359375,-0.0006889597862027586,-0.0014527543680742383,-0.005891711451113224
1773798438273031200,8.81103125,-0.00011717908637365326,-0.003213636577129364,-0.00515721132978797
1773798438292995300,8.830995361328124,-0.00034914040588773787,-0.003553189570084214,-0.004771851934492588
1773798438312958200,8.850958251953125,-0.000020240024241502397,-0.0025861957110464573,-0.006119944155216217
1773798438332922000,8.870922119140625,0.00039521310827694833,-0.0032471923623234034,-0.0073596457950770855
1773798438352885200,8.89088525390625,-0.0008018778171390295,-0.0049404301680624485,-0.008223574608564377
1773798438372848400,8.910848388671875,-0.00014887070574332029,-0.003495132550597191,-0.006788397673517466
1773798438392812300,8.930812255859376,-0.0013156015193089843,-0.003953196108341217,-0.009674465283751488
1773798438412775200,8.950775146484375,-0.00010093380114994943,-0.002910302486270666,-0.007565241772681475
1773798438432738300,8.97073828125,-0.0002745719102676958,-0.0029374666046351194,-0.006020075641572475
1773798438452702200,8.9907021484375,-0.00042557314736768603,-0.0033593112602829933,-0.006311159115284681
1773798438472665300,9.010665283203124,-0.0013459615875035524,-0.0031907332595437765,-0.00373135507106781
1773798438492629200,9.030629150390626,0.0005427522119134665,-0.0035806200467050076,-0.004256796557456255
1773798438512592400,9.05059228515625,-0.0007190534961409867,-0.0026908579748123884,-0.0030045784078538418
1773798438532555300,9.07055517578125,-0.0001507349224993959,-0.0032615733798593283,-0.005957757588475943
1773798438552519400,9.09051953125,-0.0002234392159152776,-0.0036751623265445232,-0.007349259220063686
1773798438572482300,9.110482421875,0.0012263857061043382,-0.004061320796608925,-0.007399326656013727
1773798438592445400,9.130445556640625,-0.0003350256592966616,-0.004065315239131451,-0.006971090566366911
1773798438612409300,9.150409423828124,0.0005568669876083732,-0.003989681601524353,-0.006789196282625198
1773798438632372500,9.17037255859375,-0.0008591357618570328,-0.0027510453946888447,-0.005817409139126539
1773798438652335400,9.19033544921875,-0.0007014766451902688,-0.00296276668086648,-0.00569996377453208
1773798438672299300,9.21029931640625,-0.0011502192355692387,-0.0037143107037991285,-0.0076115806587040424
1773798438692262400,9.230262451171875,0.0005020058597438037,-0.0031614385079592466,-0.005393167492002249
1773798438712226300,9.250226318359376,-0.0003222425002604723,-0.003091397462412715,-0.005517803598195314
1773798438732189200,9.270189208984375,-0.0014045510906726122,-0.003041063668206334,-0.00350392097607255
1773798438752152300,9.29015234375,-0.0006860303110443056,-0.0026170883793383837,-0.0057076867669820786
1773798438772116200,9.3101162109375,-0.0012516856659203768,-0.0012985573848709464,-0.004185423720628023
1773798438792079000,9.3300791015625,-0.0007331682136282325,-0.0021369203459471464,-0.004734035115689039
1773798438812038400,9.350038330078124,0.0008111988427117467,-0.0022125542163848877,-0.005637113004922867
1773798438832002300,9.370002197265626,-0.00007057376933516935,-0.003728425595909357,-0.006454437039792538
1773798438851965400,9.38996533203125,-0.000627707049716264,-0.0029348034877330065,-0.00535455159842968
1773798438871929300,9.409929443359376,-0.0012258529895916581,-0.002653307281434536,-0.00526613462716341
1773798438891892500,9.429892578125,0.0012604740913957357,-0.0024224112275987864,-0.0049612028524279594
1773798438911855400,9.44985546875,0.0009275790071114898,-0.0026370619889348745,-0.005243497900664806
1773798438931819500,9.469819580078125,-0.000571248063351959,-0.0030093719251453876,-0.00427357479929924
1773798438951782400,9.489782470703124,-0.00032437301706522703,-0.0039087217301130295,-0.007985488511621952
1773798438971745500,9.50974560546875,0.0004135889175813645,-0.0043718451634049416,-0.006009423173964024
1773798438991709400,9.52970947265625,-0.0007206514128483832,-0.0035902075469493866,-0.006593720521777868
1773798439011672600,9.549672607421876,0.0005739112384617329,-0.003485811408609152,-0.006170544307678938
1773798439031635500,9.569635498046875,-0.0013411679537966847,-0.0023582291323691607,-0.005041630007326603
1773798439051599600,9.589599609375,0.000434361572843045,-0.0024658208712935448,-0.005420331843197346
1773798439071562500,9.6095625,-0.00009614011651137844,-0.0032178976107388735,-0.004733502399176359
1773798439091526400,9.6295263671875,0.000850879936479032,-0.0020216056145727634,-0.004817125853151083
1773798439111489500,9.649489501953125,-0.00019867181254085153,-0.0033190976828336716,-0.0046906257048249245
1773798439131452700,9.66945263671875,-0.0005661880713887513,-0.002953445538878441,-0.005035771057009697
1773798439151416600,9.68941650390625,0.0005664543714374304,-0.003808586625382304,-0.005312473513185978
1773798439171379500,9.70937939453125,-0.0008367652189917862,-0.004236822947859764,-0.006485329940915108
1773798439191343600,9.729343505859376,-0.00035420042695477605,-0.0026442527305334806,-0.004720186814665794
1773798439211306500,9.749306396484375,0.00009507485083304346,-0.003437075763940811,-0.005381982307881117
1773798439231269600,9.76926953125,0.0006817692192271352,-0.0028935244772583246,-0.007784952409565449
1773798439251233500,9.789233642578125,0.0002812298189383,-0.002763562137261033,-0.006551376078277826
1773798439271196700,9.80919677734375,0.000505734293255955,-0.0032178976107388735,-0.007104514632374048
1773798439291159300,9.8291591796875,0.0005251753609627485,-0.004453337751328945,-0.007546865846961737
1773798439311123700,9.849123779296875,0.00007909588020993397,-0.002799248555675149,-0.006432333029806614
1773798439331086300,9.86908642578125,0.0004242415598127991,-0.004540423396974802,-0.005555886775255203
1773798439351050500,9.889050537109375,-0.0016319850692525506,-0.0025063008069992065,-0.004575310740619898
1773798439371013400,9.909013427734376,-0.00032437301706522703,-0.0009800433181226254,-0.006192914675921202
1773798439390976500,9.9289765625,-0.0014594122767448425,-0.003326021833345294,-0.006339122075587511
1773798439410940400,9.9489404296875,-0.000639691308606416,-0.0032061797101050615,-0.007102117873728275
1773798439430903600,9.968903564453125,-0.0007209177128970623,-0.0033372072502970695,-0.006645119283348322
1773798439450867500,9.988867431640625,-0.0026383937802165747,-0.004472246393561363,-0.004221909213811159
1773798439470830300,10.008830322265625,-0.0019156117923557758,-0.0010956244077533484,-0.004342017695307732
1773798439490793500,10.02879345703125,-0.002407231368124485,-0.0036666402593255043,-0.005870672408491373
1773798439510757400,10.04875732421875,-0.0017587515758350492,-0.0043683829717338085,-0.004677842371165752
1773798439530720500,10.068720458984375,-0.0007278419216163456,-0.000996821210719645,-0.004766259342432022
1773798439550683400,10.088683349609376,-0.0010876349406316876,-0.003722033929079771,-0.003484213724732399
1773798439570647600,10.1086474609375,0.0005075985100120306,-0.004051733296364546,-0.00487305223941803
1773798439590610400,10.1286103515625,0.00004314320904086344,-0.002710299100726843,-0.00827683787792921
1773798439610574600,10.14857470703125,0.000636495475191623,-0.004342550411820412,-0.008903213776648045
1773798439630537500,10.168537353515624,0.00017070861940737814,-0.00207726564258337,-0.007245395798236132
1773798439650500600,10.18850048828125,0.0006870955694466829,-0.0034999263007193804,-0.006450442597270012
1773798439670464500,10.208464599609375,-0.0009867012267932296,-0.0019441075855866075,-0.00484295841306448
1773798439690427600,10.228427734375,0.0008207862265408039,-0.0031590417493134737,-0.0049617355689406395
1773798439710390500,10.248390625,-0.0010120011866092682,-0.0022037657909095287,-0.0006298375665210187
1773798439730354400,10.2683544921875,-0.0005906891310587525,-0.0034706315491348505,-0.0024628913961350918
1773798439750317600,10.288317626953125,-0.00006604639202123508,-0.0020509003661572933,-0.0054152715019881725
1773798439770281500,10.308281494140624,0.001005609636195004,-0.003034672001376748,-0.006076534744352102
1773798439790244600,10.32824462890625,-0.0012263857061043382,-0.002787530655041337,-0.0055215316824615
1773798439810207700,10.348207763671875,-0.0018399780383333564,-0.003451456781476736,-0.007889614440500736
1773798439830172000,10.368171875,0.0013859090395271778,-0.003756921272724867,-0.005588909611105919
1773798439850134800,10.388134765625,0.0002508697798475623,-0.0037918086163699627,-0.005193963181227446
1773798439870097700,10.40809765625,0.00037523938226513565,-0.002379800658673048,-0.007183876819908619
1773798439890061800,10.428061767578125,-0.0021491709630936384,-0.003703924361616373,-0.007348992861807346
1773798439910024700,10.448024658203124,0.00014194648247212172,-0.0037297571543604136,-0.006013950332999229
1773798439929988900,10.46798876953125,-0.0002306297537870705,-0.0031731564085930586,-0.005801962688565254
1773798439949951700,10.48795166015625,0.0006570018595084548,-0.0021888520568609238,-0.005832589231431484
1773798439969914600,10.50791455078125,-0.0010753844399005175,-0.001895105466246605,-0.00566933723166585
1773798439989878500,10.52787841796875,-0.0003866909828502685,-0.0024586303625255823,-0.0065649584867060184
1773798440009841700,10.547841552734376,0.00027324032271280885,-0.0032916669733822346,-0.005474660079926252
1773798440029805600,10.5678056640625,-0.0007326356135308743,-0.0035744947381317616,-0.007108243182301521
1773798440049768700,10.587768798828124,-0.00042530681821517646,-0.004101268015801907,-0.004673581570386887
1773798440069731800,10.60773193359375,-0.0013550163712352514,-0.003447728231549263,-0.005347361322492361
1773798440089695700,10.62769580078125,0.0008977515972219408,-0.0022280006669461727,-0.006275206338614225
1773798440109658600,10.64765869140625,-0.001071123406291008,-0.0036069853231310844,-0.004554804414510727
1773798440129621800,10.667621826171874,-0.002359294332563877,-0.0024501082953065634,-0.005226986017078161
1773798440149585700,10.687585693359376,0.0003736414946615696,-0.0035486621782183647,-0.005857889074832201
1773798440169548800,10.707548828125,-0.0002170476218452677,-0.0030924626626074314,-0.006346046458929777
1773798440189512700,10.7275126953125,-0.002037850907072425,-0.003534547286108136,-0.005538842175155878
1773798440209475800,10.747475830078125,0.000297475082334131,-0.0033017871901392937,-0.006837399676442146
1773798440229438700,10.767438720703124,-0.00030306773260235786,-0.0028477180749177933,-0.007089334540069103
1773798440249403000,10.78740283203125,-0.00047351003740914166,-0.0022778017446398735,-0.004804608877748251
1773798440269365800,10.80736572265625,-0.0003398193512111902,-0.0026732811238616705,-0.005234709475189447
1773798440289329700,10.82732958984375,-0.0009297095239162445,-0.00285011506639421,-0.0059838565066456795
1773798440309292800,10.847292724609375,-0.0005012069013901055,-0.003924167715013027,-0.00643632747232914
1773798440329256000,10.867255859375,-0.0012000204296782613,-0.003457049373537302,-0.00640809815376997
1773798440349219800,10.8872197265625,-0.0012998889433220029,-0.002772350562736392,-0.005050951149314642
1773798440369182700,10.9071826171875,-0.0006258428329601884,-0.0031246868893504143,-0.0057100835256278515
1773798440389145900,10.927145751953125,-0.00043569316039793193,-0.002926813904196024,-0.005313538946211338
1773798440409109800,10.94710986328125,-0.00048363005043938756,-0.0021917815320193768,-0.004878911189734936
1773798440429073000,10.967072998046875,-0.001645567244850099,-0.003169161733239889,-0.004595817066729069
1773798440449036800,10.987036865234375,0.00027324032271280885,-0.004604605492204428,-0.003579821204766631
1773798440469000000,11.007,0.0010266485624015331,-0.003591006388887763,-0.0062461779452860355
1773798440488962600,11.026962646484375,-0.0004628573951777071,-0.002395513467490673,-0.004792091902345419
1773798440508927000,11.046927001953126,0.0000857537888805382,-0.003254116512835026,-0.005788912996649742
1773798440528889600,11.0668896484375,0.00036991306114941835,-0.0035001926589757204,-0.00691995769739151
1773798440548853800,11.086853759765624,0.0003733751946128905,-0.002070873975753784,-0.008284294977784157
1773798440568816600,11.106816650390625,-0.0008655273704789579,-0.002751844236627221,-0.008594021201133728
1773798440588779800,11.12677978515625,0.0001613875647308305,-0.0024117587599903345,-0.00845420453697443
1773798440608743700,11.14674365234375,-0.0006921555614098907,-0.0057561565190553665,-0.006974552292376757
1773798440628706800,11.166706787109375,-0.0007291734800674021,-0.004912200383841991,-0.005241101142019033
1773798440648670700,11.186670654296876,0.0003755057114176452,-0.002484462922438979,-0.0062488410621881485
1773798440668633600,11.206633544921875,-0.002371544949710369,-0.002974750939756632,-0.0052203284576535225
1773798440688596700,11.2265966796875,0.0019209380261600018,-0.0018434401135891676,-0.004644020460546017
1773798440708560600,11.246560546875,-0.0009012137306854129,-0.0041036647744476795,-0.005733519326895475
1773798440728523800,11.266523681640624,-0.0000015978966985130683,-0.0018341189716011286,-0.005288239102810621
1773798440748487700,11.28648779296875,-0.0019387812353670597,-0.0031499869655817747,-0.005125786177814007
1773798440768450800,11.306450927734375,-0.0006735134520567954,-0.00281948852352798,-0.0062360577285289764
1773798440788413700,11.32641357421875,0.0002972087822854519,-0.0027332021854817867,-0.004679440520703793
1773798440808378400,11.34637841796875,0.00008468852320220321,-0.004546015989035368,-0.0041007352992892265
1773798440828341500,11.366341552734376,-0.00015446334145963192,-0.002400839701294899,-0.005072522908449173
1773798440848305400,11.386305419921875,-0.0014961638953536749,-0.003326820908114314,-0.006150570698082447
1773798440868268500,11.4062685546875,-0.0012831110507249832,-0.002909503411501646,-0.005160673521459103
1773798440888231200,11.426231201171875,0.00028815402765758336,-0.00424241553992033,-0.005620335228741169
1773798440908195300,11.4461953125,-0.000886566296685487,-0.0025363946333527565,-0.005016862880438566
1773798440928158200,11.466158203125,-0.0007392935222014785,-0.0035712989047169685,-0.006701578386127949
1773798440948122400,11.486122314453125,0.000031425301131093875,-0.003344131400808692,-0.004472246393561363
1773798440968085200,11.506085205078126,-0.00042743736412376165,-0.0033997914288192987,-0.005146825220435858
1773798440988048400,11.52604833984375,-0.002865028567612171,-0.0017986990278586745,-0.005277053453028202
1773798441008012300,11.54601220703125,0.00011584750609472394,-0.0033949976786971092,-0.004563859198242426
1773798441027975400,11.565975341796875,-0.0006572681595571339,-0.002478870330378413,-0.002153698354959488
1773798441047939300,11.585939208984374,-0.000254331884207204,-0.0026349315885454416,-0.004539624322205782
1773798441067902200,11.605902099609375,0.0003731088654603809,-0.0021840583067387342,-0.0057372478768229485
1773798441087865300,11.625865234375,0.00045859633246436715,-0.003930825740098953,-0.0054277884773910046
1773798441107829200,11.645829345703126,0.00008974852971732616,-0.0020248014479875565,-0.00634924229234457
1773798441127792400,11.66579248046875,-0.0005374259199015796,-0.0025012409314513206,-0.008278968743979931
1773798441147756300,11.68575634765625,-0.0015701997326686978,-0.003972104750573635,-0.007149522192776203
1773798441167719400,11.705719482421875,-0.0004577973741106689,-0.0025590313598513603,-0.0065561700612306595
1773798441187682300,11.725682373046874,0.0009419600828550756,-0.0011827098205685616,-0.006894391495734453
1773798441207646500,11.745646484375,0.0008511462947353721,-0.003864513011649251,-0.008273376151919365
1773798441227609300,11.765609375,-0.00009614011651137844,-0.00410499656572938,-0.006619553081691265
1773798441247573200,11.7855732421875,0.0007677893154323101,-0.002745985286310315,-0.005576393101364374
1773798441267536400,11.805536376953125,0.00009454221435589716,-0.002927080262452364,-0.0035369442775845528
1773798441287499500,11.82549951171875,-0.0009249158320017159,-0.0027321369852870703,-0.002758502261713147
1773798441307463400,11.84546337890625,-0.00048123320448212326,-0.0031316110398620367,-0.0037089844699949026
1773798441327426600,11.865426513671874,0.0009068063227459788,-0.002642654813826084,-0.004673847462981939
1773798441347390500,11.885390380859375,0.0011430287268012762,-0.0022338596172630787,-0.003638677066192031
1773798441367353300,11.905353271484374,0.0008080030675046146,-0.004578240215778351,-0.005154015496373177
1773798441387316500,11.92531640625,0.0008732505375519395,-0.0027510453946888447,-0.006187322083860636
1773798441407280400,11.9452802734375,-0.002139317337423563,-0.0030629015527665615,-0.007620102725923061
1773798441427243500,11.965243408203126,-0.00040027310024015605,-0.0030032468494027853,-0.008279501460492611
1773798441447207400,11.98520751953125,0.00021438446128740907,-0.004252269398421049,-0.006925816647708416
1773798441467170600,12.005170654296874,0.0011014834744855762,-0.0013781858142465353,-0.0067630973644554615
1773798441487133200,12.02513330078125,-0.0009185242815874517,-0.004693288821727037,-0.0057471017353236675
1773798441507097600,12.04509765625,-0.0006082659820094705,-0.0025891251862049103,-0.005145493429154158
1773798441527060200,12.065060302734375,-0.000800279900431633,-0.0034490597900003195,-0.005882923025637865
1773798441547024400,12.0850244140625,-0.0007816377910785377,-0.0011920308461412787,-0.006055762059986591
1773798441566987300,12.1049873046875,-0.0001728391507640481,-0.004707403481006622,-0.007281082216650248
1773798441586951400,12.124951416015625,-0.00041278995922766626,-0.0013222594279795885,-0.005018993280827999
1773798441606914300,12.144914306640626,-0.001076715998351574,-0.0024956483393907547,-0.007871771231293678
1773798441626877200,12.164877197265625,0.00035206988104619086,-0.0030487868934869766,-0.008039284497499466
1773798441646841300,12.18484130859375,0.0007507451227866113,-0.003203782718628645,-0.010910438373684883
1773798441666804200,12.20480419921875,0.0007326356135308743,-0.003221625927835703,-0.01025769766420126
1773798441686768400,12.224768310546875,-0.0003126551164314151,-0.0013622068800032139,-0.007607852108776569
1773798441706731300,12.244731201171875,-0.0008285093936137855,-0.001865544356405735,-0.005364671815186739
1773798441726694400,12.2646943359375,-0.00033396040089428425,-0.00358834327198565,-0.0024027039762586355
1773798441746658300,12.284658203125,-0.0009025452891364694,-0.0035931370221078396,-0.0034296188969165087
1773798441766621400,12.304621337890625,-0.000499875342939049,-0.0025933862198144197,-0.0038634478114545345
1773798441786585300,12.32458544921875,-0.00012223910016473383,-0.002523078816011548,-0.006284261122345924
1773798441806548000,12.3445478515625,-0.0004348942020442337,-0.0027896612882614136,-0.0029113676864653826
1773798441826510800,12.3645107421875,-0.0008069378091022372,-0.0034735610242933035,-0.004513259045779705
