time,seconds_elapsed,z,y,x
1773798429519085000,0.0570849609375,0.0006986189400777221,0.0011542403372004628,-0.0001889411360025406
1773798429539049000,0.077049072265625,0.0013024834915995598,-0.000248707365244627,-0.000814222265034914
1773798429559011800,0.09701171875,0.0004434623697306961,0.0003277712967246771,-0.0007295263931155205
1773798429578976000,0.11697607421875,-0.00005866971332579851,0.00037281750701367855,0.0011466601863503456
1773798429598939000,0.13693896484375,0.0008818897185847163,0.0004947194829583168,-0.0005199708975851536
1773798429618902000,0.156902099609375,0.0006755267386324704,0.0002706996165215969,-0.001485451590269804
1773798429638866000,0.176865966796875,0.0010478352196514606,-0.000002827262505888939,-0.0010056942701339722
1773798429658829000,0.1968291015625,0.0013059631455689669,-0.000199486268684268,0.0011497200466692448
1773798429678793000,0.21679296875,0.0003690997255034745,-0.000154922716319561,0.00005984073504805565
1773798429698756000,0.236756103515625,-0.00042092951480299234,0.0014280382310971618,0.0007881433703005314
1773798429718719000,0.256718994140625,-0.0001841600751504302,-0.00013338052667677402,0.00031670043244957924
1773798429738683000,0.276682861328125,-0.0007943580858409405,0.00035129860043525696,-0.000789581798017025
1773798429758646000,0.29664599609375,0.0008010000456124544,0.00016375305131077766,0.000531868077814579
1773798429778610000,0.31660986328125,-0.001322779688052833,0.00046988390386104584,-0.00005746213719248772
1773798429798573800,0.33657373046875,-0.0006219913484528661,0.0007281049620360136,-0.0006325766444206238
1773798429818536700,0.35653662109375,0.0006573816644959152,0.000055528245866298676,-0.0005501755513250828
1773798429838500900,0.3765009765625,-0.0011629023356363177,0.0010152870090678334,-0.0008518341928720474
1773798429858463700,0.396463623046875,-0.00014533702051267028,-0.0008359511848539114,0.00020490866154432297
1773798429878427600,0.416427734375,-0.0018349175807088614,0.00022870651446282864,-0.000311355572193861
1773798429898390800,0.436390869140625,-0.0003080235037487,-0.00009692949242889881,0.0008162548765540123
1773798429918354700,0.456354736328125,0.0005200139130465686,-0.0005198325961828232,-0.00003804778680205345
1773798429938317800,0.47631787109375,0.000792225357145071,-0.0008028929587453604,0.00008434057235717773
1773798429958280700,0.49628076171875,0.0001752035750541836,-0.0011087888851761818,-0.0004933406598865986
1773798429978244900,0.516244873046875,-0.00001990972668863833,0.0008147575426846743,0.0006121261976659298
1773798429998207700,0.536207763671875,-0.002381799044087529,0.0010664728470146656,0.000038971658796072006
1773798430018172000,0.556171875,0.00022991833975538611,-0.000654999865218997,0.001318938098847866
1773798430038134800,0.576134765625,0.0002757929323706776,-0.0003204396925866604,-0.00048008840531110764
1773798430058098000,0.596097900390625,-0.00005925967707298696,0.00033971783705055714,-0.0007860283367335796
1773798430078061800,0.616061767578125,-0.00034076295560225844,0.00022487016394734383,0.0014437539502978325
1773798430098025000,0.63602490234375,0.002214242471382022,-0.0009043239988386631,0.0015636230818927288
1773798430117988900,0.65598876953125,0.00034109322587028146,-0.0009657861664891243,0.0013158186338841915
1773798430137951700,0.67595166015625,0.00036315154284238815,0.000501186354085803,0.0006001507863402367
1773798430157914600,0.69591455078125,0.0012659815838560462,0.001370566664263606,0.000116709154099226
1773798430177878800,0.715878662109375,0.0002571640070527792,-0.001756411511451006,-0.0010060355998575687
1773798430197841700,0.735841552734375,-0.00012345353025011718,0.0008526903111487627,0.0003994470462203026
1773798430217805800,0.755805908203125,-0.00018794098286889493,-0.00033739395439624786,-0.0015715667977929115
1773798430237768700,0.775768798828125,0.00022380090376827866,0.00026131258346140385,-0.0008388631977140903
1773798430257731600,0.795731689453125,-0.00015296871424652636,0.0005828149151057005,0.0014800308272242546
1773798430277695700,0.81569580078125,0.0013033893192186952,-0.00019374326802790165,-0.0008908654563128948
1773798430297658600,0.83565869140625,-0.0003569790569599718,-0.0004751705564558506,0.0011894064955413342
1773798430317621800,0.855621826171875,0.0009283662075176835,-0.00008017034269869328,0.0012194644659757614
1773798430337585700,0.875585693359375,0.0012921669986099005,0.00030217948369681835,0.0006840829737484455
1773798430357548800,0.895548828125,0.0004980319645255804,-0.001560277072712779,0.0014003356918692589
1773798430377512700,0.9155126953125,0.0006236691842786968,-0.00025865971110761166,0.0003879969008266926
1773798430397475800,0.935475830078125,0.001201449427753687,-0.00017856573686003685,0.0005491301417350769
1773798430417438700,0.955438720703125,-0.00028171861777082086,0.00014784722588956356,-0.0004215710796415806
1773798430437402600,0.975402587890625,-0.0015844422159716487,0.00023972638882696629,0.000468231737613678
1773798430457365800,0.99536572265625,-0.0006893130484968424,-0.0007072596345096827,-0.000390651635825634
1773798430477329700,1.01532958984375,-0.00011717472807504237,-0.0008351164869964123,-0.00019244803115725517
1773798430497292800,1.035292724609375,-0.00041073004831559956,-0.0015010759234428406,-0.000006278511136770248
1773798430517255700,1.055255615234375,0.000868111674208194,-0.0005290003027766943,-0.0005278019234538078
1773798430537219800,1.0752197265625,0.0013047063257545233,-0.0004507717676460743,0.000586425419896841
1773798430557182700,1.0951826171875,0.00019730076019186527,-0.00220888270996511,0.0010555763728916645
1773798430577147000,1.11514697265625,0.000760353752411902,-0.00043828366324305534,0.0011525792069733143
1773798430597109800,1.13510986328125,0.000193947518710047,0.00037534814327955246,0.0005633989349007607
1773798430617073000,1.155072998046875,0.0006266928976401687,0.0007873584982007742,-0.0020699654705822468
1773798430637036800,1.175036865234375,-0.0005837627104483545,0.001690434291958809,0.0007334793917834759
1773798430657000000,1.195,0.001082028029486537,-0.00045018037781119347,-0.0007678051479160786
1773798430676963800,1.2149638671875,-0.0002555449609644711,0.000495996093377471,0.00017455127090215683
1773798430696926700,1.2349267578125,0.000472850922960788,0.0007516997866332531,-0.000029651448130607605
1773798430716889900,1.254889892578125,0.0003085438220296055,0.0001245343592017889,-0.0002568061463534832
1773798430736853800,1.274853759765625,-0.0000400054850615561,-0.00017057638615369797,-0.0000712755136191845
1773798430756817000,1.29481689453125,-0.00014977299724705517,-0.0012122397311031818,0.00018575182184576988
1773798430776780800,1.31478076171875,-0.0008152488735504448,3.902241587638855e-7,0.0004862109199166298
1773798430796744000,1.334743896484375,0.001169357798062265,0.00028775190003216267,0.001390236895531416
1773798430816706600,1.35470654296875,0.00008645842899568379,0.0009500968735665083,0.0007055019959807396
1773798430836670700,1.374670654296875,0.0013944691745564342,0.0006960930768400431,0.0027849525213241577
1773798430856633600,1.394633544921875,0.0009923670440912247,-0.0008202684111893177,0.00031220773234963417
1773798430876596700,1.4145966796875,-0.001320757670328021,-0.0009044012986123562,-0.002054968848824501
1773798430896560600,1.434560546875,0.0001691183279035613,0.00024811853654682636,-0.0010522287338972092
1773798430916523800,1.454523681640625,-0.0003069696540478617,0.0015415098750963807,0.0009428276680409908
1773798430936487700,1.47448779296875,-0.0015620393678545952,-0.0008805852849036455,-0.0008153780363500118
1773798430956450800,1.494450927734375,0.0007905759266577661,0.00025483942590653896,-0.0007014288567006588
1773798430976413700,1.51441357421875,-0.0003876566479448229,0.0002862631808966398,-0.0011040344834327698
1773798430996377600,1.534377685546875,-0.0005696246516890824,-0.00019953632727265358,-0.0003932011313736439
1773798431016340700,1.5543408203125,0.0006610187701880932,0.00040584104135632515,-0.002355540171265602
1773798431036304600,1.5743046875,-0.0005829811561852694,-0.0011474546045064926,-0.0011300048790872097
1773798431056267800,1.594267822265625,0.00013978913193568587,0.0004517296329140663,-0.002899794839322567
1773798431076230700,1.614230712890625,-0.0003104588540736586,-0.0004079702775925398,-0.0029403604567050934
1773798431096194800,1.63419482421875,0.0008250396931543946,-0.0002487774472683668,0.00037258630618453026
1773798431116157700,1.65415771484375,0.0009629730484448373,-0.0014639936853200197,0.0008415626361966133
1773798431136120800,1.674120849609375,-0.0018417303217574954,-0.0005749878473579884,0.0009201429784297943
1773798431156084700,1.694084716796875,-0.0000882311724126339,0.0002223679330199957,0.000030251219868659973
1773798431176047900,1.7140478515625,-0.00026046214043162763,0.0007011741399765015,-0.0012005958706140518
1773798431196011800,1.73401171875,-0.00002912373747676611,-0.0016112804878503084,-0.0005039144307374954
1773798431215975000,1.753974853515625,0.0005038283416070044,-0.0005414041224867105,-0.0007925978861749172
1773798431235937800,1.773937744140625,0.0007296997355297208,0.0005353174638003111,-0.0036069611087441444
1773798431255901700,1.793901611328125,-0.0018459358252584934,0.00028428295627236366,-0.0037848250940442085
1773798431275864800,1.81386474609375,-0.0014437799109146,0.0001358971931040287,-0.0007798145525157452
1773798431295828700,1.833828857421875,0.000617773097474128,-0.000015903031453490257,-0.00012813927605748177
1773798431315792000,1.8537919921875,-0.0005872622132301331,0.0004550614394247532,0.0008077388629317284
1773798431335754800,1.873754638671875,-0.0010431762784719467,0.0016136638587340713,0.006106045562773943
1773798431355719000,1.893718994140625,-0.00177596730645746,0.002104703802615404,0.005035163834691048
1773798431375681500,1.913681640625,-0.000558548781555146,0.0007216529920697212,0.003916693385690451
1773798431395646000,1.93364599609375,-0.0006688940338790417,-0.000027788104489445686,0.0023400720674544573
1773798431415608600,1.953608642578125,-0.0016069539124146104,0.00036350730806589127,0.0005988944321870804
1773798431435571700,1.97357177734375,-7.26344296708703e-7,-0.000032066600397229195,-0.002501268405467272
1773798431455535600,1.99353564453125,0.00025049372925423086,-0.0009404027368873358,-0.0031790565699338913
1773798431475498800,2.013498779296875,0.00002953424700535834,0.0010574294719845057,-0.001458088867366314
1773798431495461600,2.033461669921875,0.00013968409621156752,-0.0004430187400430441,-0.0007595699280500412
1773798431515425800,2.05342578125,-0.001083257724530995,0.0017642866587266326,-0.001432281918823719
1773798431535388700,2.073388671875,0.0004713262023869902,0.0006231097504496574,-0.000478377565741539
1773798431555352600,2.0933525390625,0.0002525901363696903,0.00044504296965897083,-0.002561209723353386
1773798431575315700,2.113315673828125,0.00017202674644067883,-0.0010947652626782656,-0.0006037815473973751
1773798431595278800,2.13327880859375,-0.0005231649847701192,0.00020531262271106243,-0.00071325758472085
1773798431615242800,2.15324267578125,-0.00015203471411950886,-0.00009532761760056019,-0.0010109632275998592
1773798431635205600,2.17320556640625,-0.0008212397806346416,-0.0010754824616014957,-0.00009271223098039627
1773798431655169800,2.193169677734375,-0.0016456374432891607,-0.00007152254693210125,-0.0005070935003459454
1773798431675132700,2.213132568359375,-0.00005830510053783655,0.0007590497843921185,0.001049271784722805
1773798431695095800,2.233095703125,0.0014620916917920113,0.0013446732191368937,0.00367883057333529
1773798431715059700,2.253059814453125,0.00029687577625736594,0.0009250056464225054,0.0016337744891643524
1773798431735022800,2.27302294921875,-0.0010194712085649371,-0.0007745274342596531,0.0016625686548650265
1773798431754985700,2.29298583984375,-0.0012338536325842142,0.0002544138114899397,0.0005165836773812771
1773798431774950000,2.312949951171875,-0.00041836564196273685,0.000812129583209753,-0.0017017577774822712
1773798431794912000,2.332912109375,-0.000003004941390827298,0.0011695082066580653,-0.0015068384818732738
1773798431814876200,2.352876220703125,0.0005260033067315817,0.0009142989292740822,-0.0014791670255362988
1773798431834839000,2.372839111328125,-0.0012205574894323945,0.001321414834819734,0.0006747976876795292
1773798431854802200,2.39280224609375,0.0007823796477168798,-0.0012746015563607216,0.00234832800924778
1773798431874766000,2.41276611328125,0.0012061484158039093,0.0009128176607191563,0.0027147834189236164
1773798431894729200,2.432729248046875,0.00029048690339550376,0.00045289075933396816,0.0004087216220796108
1773798431914693000,2.452693115234375,0.000972224457655102,0.00008311565034091473,-0.0005955691449344158
1773798431934656300,2.47265625,0.0005869797896593809,-0.0009321959223598242,-0.001335100270807743
1773798431954619100,2.492619140625,-0.000054603180615231395,-0.0003218830097466707,0.0002226009964942932
1773798431974583000,2.5125830078125,-0.0008328882395289838,0.0007326195482164621,-0.0005918960087001324
1773798431994546200,2.532546142578125,0.0007644678116776049,0.0003161309286952019,0.00012630224227905273
1773798432014510000,2.552510009765625,-0.0008935225196182728,-0.000729074003174901,-0.0003112712875008583
1773798432034473200,2.57247314453125,-0.00008990391506813467,-0.0005460174288600683,-0.0010874047875404358
1773798432054436000,2.59243603515625,-0.00006964561180211604,0.00007337634451687336,-0.0004593273624777794
1773798432074400300,2.612400146484375,0.0005364533280953765,-0.000525330426171422,0.0007633487693965435
1773798432094363100,2.632363037109375,0.0003674441250041127,0.0006094842683523893,0.0006322297267615795
1773798432114326300,2.652326171875,-0.0003661732189357281,0.00008704699575901031,0.0021847260650247335
1773798432134290200,2.672290283203125,0.00019681549747474492,-0.0004278991837054491,0.0015092776156961918
1773798432154253300,2.69225341796875,-0.00017951391055248678,-0.00009656045585870743,0.0002619549632072449
1773798432174217200,2.71221728515625,0.00035151912015862763,-0.000202669994905591,0.00005364231765270233
1773798432194180400,2.732180419921875,-0.00031285081058740616,-0.001026613637804985,-0.00015391595661640167
1773798432214143200,2.752143310546875,-0.0005651632091030478,-0.00027762469835579395,-0.0006445096805691719
1773798432234107100,2.772107177734375,0.00010514554742258042,-0.0001889204140752554,-0.0016109156422317028
1773798432254070300,2.7920703125,-0.000463348813354969,0.00004962598904967308,-0.00166979618370533
1773798432274033200,2.812033203125,-0.001172559568658471,-0.0005029793828725815,-0.0006217663176357746
1773798432293997000,2.8319970703125,0.0007379084127023816,0.0005681880284100771,-0.0021145385690033436
1773798432313960200,2.851960205078125,0.00039037701208144426,0.0004786718636751175,0.0002512051723897457
1773798432333924000,2.871924072265625,0.0006077165016904473,0.0005231059622019529,0.0008617709390819073
1773798432353887000,2.891886962890625,-0.0018413439393043518,-0.0004775095731019974,0.00027394993230700493
1773798432373850000,2.91185009765625,-0.001027510385029018,0.00034435256384313107,0.0006256233900785446
1773798432393814000,2.93181396484375,0.0004765787743963301,0.0014214710099622607,0.001956599997356534
1773798432413777200,2.951777099609375,0.0004995876224711537,-0.0006147187668830156,0.0024579574819654226
1773798432433741000,2.971740966796875,-0.0011069702450186014,-0.0004296868573874235,0.0012496658600866795
1773798432453704200,2.9917041015625,0.0010361589957028627,0.000501210568472743,-0.0014410195872187614
1773798432473667000,3.0116669921875,0.0003869397914968431,0.0006763297133147717,-0.0007069632411003113
1773798432493631200,3.03163134765625,-0.00061538175214082,0.0004900260828435421,-0.00047829514369368553
1773798432513594000,3.051593994140625,-0.0014752363786101341,0.0012477666605263948,-0.000597451813519001
1773798432533557200,3.07155712890625,-0.00039093635859899223,0.0003574928268790245,-0.0005153338424861431
1773798432553521200,3.091521240234375,0.000043256120989099145,0.0004248498007655144,-0.00039427075535058975
1773798432573484300,3.111484375,-0.00020863505778834224,-0.0005629896186292171,-0.001131049357354641
1773798432593448200,3.1314482421875,-0.0018488920759409666,-0.0013057165779173374,-0.00022835331037640572
1773798432613411000,3.1514111328125,0.0005507157184183598,0.000521055655553937,-0.0005356059409677982
1773798432633374200,3.171374267578125,0.0003803771687671542,0.0011554743396118283,-0.0006720526143908501
1773798432653338000,3.191338134765625,-0.001209433190524578,-0.0016790938097983599,0.00004439661279320717
1773798432673301200,3.21130126953125,0.0005994202219881117,-0.000050380825996398926,0.0003362060524523258
1773798432693264100,3.23126416015625,-0.00039696184103377163,-0.0008485475555062294,0.0006006108596920967
1773798432713228300,3.251228271484375,0.00012535526184365153,-0.00017167790792882442,-0.000630783848464489
1773798432733191200,3.271191162109375,-0.00008902483386918902,0.0010995345655828714,0.0011153742671012878
1773798432753155300,3.2911552734375,0.0000345842563547194,-0.000705760670825839,-0.000002993270754814148
1773798432773118200,3.3111181640625,-0.00015392244677059352,-0.0005976145621389151,-0.0007714652456343174
1773798432793081300,3.331081298828125,-0.0016834343550726771,-0.00013357377611100674,-0.0013637044467031956
1773798432813046300,3.35104638671875,0.0001876895548775792,0.00021299999207258224,-0.0008129626512527466
1773798432833009200,3.371009033203125,-0.0006610862328670919,0.000889831455424428,0.00006279675289988518
1773798432852972300,3.39097216796875,0.0012520032469183207,-0.0002161795273423195,0.0012298631481826305
1773798432872936200,3.410936279296875,-0.0008085389854386449,-0.0009396951645612717,0.00240308721549809
1773798432892899300,3.4308994140625,0.0005935088847763836,0.0009328022133558989,-0.00029996829107403755
1773798432912863200,3.45086328125,-0.0006241591763682663,0.00026780785992741585,-0.0021425485610961914
1773798432932826400,3.470826416015625,0.000805328250862658,-0.0008533091749995947,-0.002003307919949293
1773798432952789200,3.490789306640625,0.001892738277092576,-0.0006981899496167898,0.0011800937354564667
1773798432972753400,3.51075341796875,-0.00021447436301968992,0.00013443292118608952,-0.001498586032539606
1773798432992716300,3.53071630859375,-0.00022253458155319095,0.0000027990899980068207,-0.0011518392711877823
1773798433012680200,3.55068017578125,0.0002277705498272553,-0.0003041001036763191,-0.001440608873963356
1773798433032643300,3.570643310546875,-0.00014631185331381857,-0.0010505421087145805,0.00006932159885764122
1773798433052606500,3.5906064453125,0.0003573250724002719,-0.001355134416371584,-0.000549880787730217
1773798433072570400,3.6105703125,0.0006406315369531512,0.00017504580318927765,0.001302987802773714
1773798433092533200,3.630533203125,-0.0008371058502234519,0.0007664973381906748,0.00016947975382208824
1773798433112496400,3.650496337890625,0.00007570130401290953,-0.0004392636474221945,0.0027836316730827093
1773798433132460300,3.670460205078125,-0.0002410917659290135,-0.0007715134415775537,0.0021133844275027514
1773798433152423400,3.69042333984375,-0.0025180175434798002,0.0007362321484833956,0.000380632933229208
1773798433172387300,3.71038720703125,0.000004829547833651304,0.00021623237989842892,0.0007997071370482445
1773798433192350500,3.7303505859375,-0.0003482979955151677,0.0004637627862393856,-0.0006091129034757614
1773798433212313000,3.75031298828125,0.0010252201464027166,0.0003786059096455574,-0.0014808401465415955
1773798433232277500,3.770277587890625,0.0005350918509066105,-0.0009503259789198637,-0.002156879287213087
1773798433252240100,3.790240234375,-0.0003914663684554398,0.000153066823258996,-0.002023030538111925
1773798433272203300,3.810203369140625,-0.00037989194970577955,0.0012727953726425767,-0.0007017217576503754
1773798433292167200,3.830167236328125,-0.00022459254250861704,0.0010231973137706518,0.000166991725564003
1773798433312130300,3.85013037109375,-0.00022331232321448624,0.00015212944708764553,0.0009320531971752644
1773798433332094200,3.87009423828125,-0.0005388321587815881,0.0010460579069331288,0.000868610106408596
1773798433352057300,3.890057373046875,-0.0010336992563679814,-0.00032711797393858433,0.001580554060637951
1773798433372020200,3.910020263671875,-0.00007718743290752172,0.0010021704947575927,0.002870830474421382
1773798433391984000,3.929984130859375,0.0005981555441394448,0.0009875026298686862,0.003026966704055667
1773798433411947300,3.949947265625,0.00024365345598198473,-0.000006181420758366585,0.001467208843678236
1773798433431910400,3.969910400390625,-0.0009279013611376286,0.0007418200839310884,0.0008071898482739925
1773798433451874300,3.989874267578125,-0.000447910453658551,0.00010023429058492184,0.0007799332961440086
1773798433471837200,4.009837158203125,0.00008837468340061605,0.0012986892834305763,-0.0007730633951723576
1773798433491801300,4.02980126953125,0.0005067442543804646,-0.0001871765125542879,-0.002801591996103525
1773798433511764200,4.04976416015625,0.000113560730824247,-0.00041253981180489063,-0.0015238486230373383
1773798433531727400,4.069727294921875,-0.0008365653920918703,0.00013989978469908237,-0.00015515321865677834
1773798433551691300,4.089691162109375,-0.00034966995008289814,-0.000728474697098136,0.00022117653861641884
1773798433571654400,4.109654296875,-0.001226303749717772,-0.0016150935553014278,-0.0011822138912975788
1773798433591617300,4.1296171875,-0.0006086805951781571,0.00003834418021142483,0.0008295513689517975
1773798433611581400,4.14958154296875,0.0006477936985902488,0.00035968259908258915,-0.0014396533370018005
1773798433631544300,4.16954443359375,0.0017134983791038394,-0.0005077349487692118,-0.0013542757369577885
1773798433651508200,4.18950830078125,0.0012523888144642115,0.0013355773407965899,-0.0008457377552986145
1773798433671471400,4.209471435546875,0.0004922846565023065,-0.00032477756030857563,0.0003416091203689575
1773798433691434500,4.2294345703125,0.0006458820425905287,-0.00032032793387770653,0.00012701470404863358
1773798433711398400,4.2493984375,-0.00047523941611871123,-0.0023623136803507805,0.00038528209552168846
1773798433731361300,4.269361328125,0.0010022902861237526,-0.0002715571317821741,0.0009811930358409882
1773798433751324200,4.28932421875,-0.0008614987600594759,0.0006408039480447769,0.0006169243715703487
1773798433771288300,4.309288330078125,0.00028553284937515855,-0.0002809083089232445,0.00028827041387557983
1773798433791251200,4.329251220703125,0.00006333725468721241,0.00047039310447871685,-0.0021905037574470043
1773798433811213800,4.3492138671875,0.0002863294503185898,-0.0006906620692461729,-0.00171952648088336
1773798433831176700,4.3691767578125,-0.0004615116340573877,0.0019552381709218025,-0.0006051515229046345
1773798433851139800,4.389139892578125,-0.0009276069467887282,-0.0004020044580101967,0.00046310247853398323
1773798433871103700,4.409103759765625,-0.0015375701477751136,0.0006194435991346836,-0.0007353117689490318
1773798433891066600,4.429066650390625,0.0012400225969031453,-0.0008874137420207262,-0.0008469270542263985
1773798433911029500,4.449029541015625,-0.00010032474528998137,-0.00023040617816150188,0.0019319544080644846
1773798433930993700,4.46899365234375,0.0007903216755948961,0.0010547853307798505,0.0027462465222924948
1773798433950956500,4.48895654296875,0.0007922091754153371,0.00014506187289953232,0.0021377645898610353
1773798433970920400,4.50892041015625,0.000042644242057576776,-0.0004993127658963203,0.0006120139732956886
1773798433990883600,4.528883544921875,0.0015832441858947277,-0.0004329499788582325,0.00027209287509322166
1773798434010846700,4.5488466796875,-0.0005555303068831563,-0.00047124316915869713,-0.0016100327484309673
1773798434030810600,4.568810546875,0.0006670778384432197,0.0013482064241543412,0.000811596866697073
1773798434050773500,4.5887734375,-0.0009707895806059241,-0.0006125839427113533,-0.0006386162713170052
1773798434070737700,4.608737548828125,-0.0013219346292316914,0.0008976201061159372,0.00046363892033696175
1773798434090700500,4.628700439453125,0.00010748810018412769,-0.0003794638905674219,-0.0002489909529685974
1773798434110663700,4.64866357421875,0.00041481654625386,-0.0010626311413943768,-0.0008150017820298672
1773798434130627600,4.668627685546875,-0.0011371731525287032,0.0011856151977553964,-0.0035679079592227936
1773798434150590700,4.6885908203125,-0.0011388715356588364,-0.0005236072465777397,-0.003710390068590641
1773798434170553600,4.7085537109375,0.0008205166086554527,0.0004029122646898031,-0.002288524992763996
1773798434190517800,4.728517822265625,-0.000692067202180624,0.0001057768240571022,-0.0007055071182549
1773798434210480600,4.748480712890625,-0.000555190839804709,0.002089753048494458,0.0022321639116853476
1773798434230444500,4.768444580078125,-0.001392678590491414,-0.00024893274530768394,0.00041303224861621857
1773798434250407700,4.78840771484375,-0.001636624801903963,-0.0005507911555469036,-0.0000591818243265152
1773798434270370800,4.808370849609375,0.00003584072692319751,0.00005359388887882233,-0.0005910247564315796
1773798434290334700,4.828334716796875,0.0005948567995801568,0.0010751355439424515,0.0010336018167436123
1773798434310297600,4.848297607421875,0.0016565101686865091,0.0014812606386840343,0.0020543322898447514
1773798434330260700,4.8682607421875,0.000619352504145354,-0.00015355623327195644,0.0013328730128705502
1773798434350224600,4.888224609375,0.00023069887538440526,0.0011422816896811128,0.0005461103282868862
1773798434370187800,4.908187744140625,0.00017654127441346645,0.0003893983084708452,0.0006878538988530636
1773798434390151700,4.928151611328125,0.0007922587683424354,0.0015606980305165052,0.002378348493948579
1773798434410114800,4.94811474609375,0.0003604835656005889,0.0011360313510522246,-0.00005395989865064621
1773798434430077400,4.968077392578125,-0.0005275643197819591,0.0014416818739846349,0.00047808047384023666
1773798434450041900,4.988041748046875,-0.0009210234275087714,0.00022209994494915009,-0.001829240471124649
1773798434470004500,5.00800439453125,-0.000752369174733758,0.0012535691494122148,0.000624336302280426
1773798434489967600,5.027967529296875,-0.0012745828134939075,0.0009455590043216944,0.00005453033372759819
1773798434509931500,5.047931640625,-0.0005870668683201075,0.0006384933367371559,-0.001296432688832283
1773798434529894700,5.067894775390625,-0.0006729751476086676,-0.00022374861873686314,-0.0007553156465291977
1773798434549858600,5.087858642578125,-0.0002996049588546157,0.0013672929489985108,-0.0014156387187540531
1773798434569821700,5.10782177734375,-0.0018008225597441196,0.000946930842474103,-0.000925715547055006
1773798434589784600,5.12778466796875,-0.00014576149987988174,0.00041013280861079693,-0.0008252314291894436
1773798434609748500,5.14774853515625,-0.0010851476108655334,0.0008055842481553555,-0.001199343241751194
1773798434629711600,5.167711669921875,0.00043353193905204535,0.00037929159589111805,0.0010776743292808533
1773798434649674800,5.1876748046875,0.00006338991806842387,-0.0002484831493347883,-0.0008478430099785328
1773798434669638700,5.207638671875,-0.0003031782107427716,0.0007477840408682823,-0.00021401140838861465
1773798434689601500,5.2276015625,-0.00022844591876491904,0.0001988755539059639,0.0007781265303492546
1773798434709565700,5.247565673828125,-0.000004239060217514634,0.0004737286362797022,-0.00006378395482897758
1773798434729528600,5.267528564453125,-0.00008047994924709201,-0.0002210903912782669,0.000001682434231042862
1773798434749491700,5.28749169921875,0.000056289893109351397,-0.0013899717014282942,-0.0009921174496412277
1773798434769455600,5.30745556640625,-0.0002592449600342661,0.0006247758865356445,0.00024973973631858826
1773798434789418800,5.327418701171875,-0.0003270710585638881,0.0005206302739679813,-0.0018346733413636684
1773798434809384700,5.347384765625,0.00046007055789232254,-0.0005748018156737089,0.0002862149849534035
1773798434829347600,5.36734765625,0.0003519369347486645,0.0007255051750689745,0.0024294459726661444
1773798434849310500,5.387310546875,-0.0010224515572190285,0.002222952898591757,0.0007062694057822227
1773798434869274600,5.407274658203125,0.00034883193438872695,0.00016019586473703384,-0.00004458846524357796
1773798434889237500,5.427237548828125,-0.0010591086465865374,-0.0005580051802098751,0.00006647687405347824
1773798434909200400,5.447200439453125,-0.0006155554438009858,0.0003646640107035637,0.00009457441046833992
1773798434929164300,5.467164306640625,0.0005229356465861201,-0.0004700552672147751,-0.0012916633859276772
1773798434949127400,5.48712744140625,-0.0005593791138380766,0.00035503855906426907,-0.0002964925952255726
1773798434969091300,5.50709130859375,0.0013512757141143084,-0.0008105151355266571,-0.0012888121418654919
1773798434989054500,5.527054443359375,-0.0009439914720132947,0.001664607785642147,-0.0004813428968191147
1773798435009017300,5.547017333984375,-0.0014770700363442302,-0.0007926044054329395,0.00021901540458202362
1773798435028981500,5.5669814453125,0.0005355304456315935,-0.00017795758321881294,0.0004217042587697506
1773798435048944400,5.5869443359375,0.00013489917910192162,0.0015216419706121087,0.0003559710457921028
1773798435068907500,5.606907470703125,-0.0013095502508804202,0.0004649613983929157,-0.00019850581884384155
1773798435088871400,5.626871337890625,-0.0002961720747407526,-0.00017921184189617634,0.001123734749853611
1773798435108834600,5.64683447265625,-0.0004078499914612621,-0.0006112612318247557,0.00038351956754922867
1773798435128798500,5.666798583984375,0.0018435502424836159,-0.0007695681415498257,-0.0004229065962135792
1773798435148761600,5.68676171875,-0.00020768988179042935,0.000041851773858070374,0.000568220391869545
1773798435168724500,5.706724365234375,-0.0009407263714820147,-0.0004052738659083843,-0.0009384928271174431
1773798435188688600,5.726688720703125,-0.00044343480840325356,0.00022345618344843388,-0.0007280106656253338
1773798435208651500,5.746651611328125,0.0008662613108754158,-0.0008970785420387983,0.00015718210488557816
1773798435228615400,5.766615478515625,0.0009277109638787806,-0.00004321848973631859,0.002655892865732312
1773798435248578600,5.78657861328125,-0.0004483556840568781,0.00038927351124584675,-0.0007826457731425762
1773798435268541700,5.806541748046875,-0.00016947626136243343,0.0007572812028229237,0.00003992486745119095
1773798435288505600,5.826505615234375,-0.0003675097250379622,0.00000263238325715065,-0.0013823416084051132
1773798435308468500,5.846468505859375,-0.0007066231337375939,0.0011254610726609826,-0.00024587148800492287
1773798435328431600,5.866431640625,-0.0001383272756356746,0.0007280041463673115,-0.00026170210912823677
1773798435348395500,5.8863955078125,-0.00016171118477359414,-0.0006482778117060661,0.0002866690047085285
1773798435368358700,5.906358642578125,-0.0012140547623857856,0.00031729787588119507,-0.00037360750138759613
1773798435388322600,5.926322509765625,0.00040466824430041015,0.00020120013505220413,-0.000018225982785224915
1773798435408285700,5.94628564453125,0.000503742543514818,0.0002951151691377163,0.0011688098311424255
1773798435428248300,5.966248291015625,0.0011279506143182516,-0.0010054369922727346,-0.0003367271274328232
1773798435448212500,5.98621240234375,0.00014052062761038542,0.000028268201276659966,-0.0011857212521135807
1773798435468175400,6.00617529296875,-0.0005565686733461916,-0.00016087433323264122,-0.00022958684712648392
1773798435488138500,6.026138427734375,0.00010743728489615023,-0.0007102303206920624,-0.0015430930070579052
1773798435508102400,6.046102294921875,0.0011973670916631818,-0.0003552685957401991,-0.001835215836763382
1773798435528065500,6.0660654296875,0.0005728856194764376,0.0009341283002868295,-0.00034018978476524353
1773798435548029400,6.086029541015625,-0.000025233253836631775,-0.0008886642754077911,0.0006435164250433445
1773798435567992600,6.10599267578125,0.0001267654006369412,-0.0013514119200408459,-0.0010169628076255322
1773798435587955500,6.12595556640625,-0.000565842492505908,-0.00009999563917517662,0.00089232437312603
1773798435607919400,6.14591943359375,-0.0010751283261924982,0.0004736967384815216,0.0006238450296223164
1773798435627882500,6.165882568359375,-0.0007546488777734339,0.00040969857946038246,0.0004265252500772476
1773798435647846400,6.185846435546875,-0.00132475805003196,0.0014293324202299118,0.0014645978808403015
1773798435667809500,6.2058095703125,-0.0007696462562307715,-0.0002278981264680624,0.0008172895759344101
1773798435687772400,6.2257724609375,0.0005295439041219652,-0.00035810586996376514,0.0014516846276819706
1773798435707736600,6.245736572265625,0.0007560221129097044,0.0014465106651186943,0.0004448140971362591
1773798435727699500,6.265699462890625,-0.0013652313500642776,0.000018368009477853775,0.002071614842861891
1773798435747662600,6.28566259765625,0.0003560079785529524,0.0005655374843627214,0.0002053612843155861
1773798435767626500,6.30562646484375,0.0011194504331797361,-0.0009922243189066648,-0.0007291636429727077
1773798435787589600,6.325589599609375,0.00047411880223080516,0.0008300691843032837,0.000832894816994667
1773798435807552500,6.345552490234375,-0.0011400614166632295,0.00017696991562843323,-0.0004455684684216976
1773798435827515600,6.365515625,-0.0002787285193335265,-0.00039270310662686825,-0.00036942167207598686
1773798435847478300,6.385478271484375,0.000319801241857931,-0.0004194274079054594,-0.0002142973244190216
1773798435867442700,6.405442626953125,0.000003319408278912306,0.0004087863489985466,-0.0010474398732185364
1773798435887405300,6.4254052734375,-0.0002766530669759959,0.0003401839639991522,0.0004839971661567688
1773798435907368400,6.445368408203125,-0.0012158339377492666,0.0007182362023741007,-0.0018815882503986359
1773798435927332400,6.465332275390625,0.0006479043513536453,0.0008557930123060942,0.0008875392377376556
1773798435947295500,6.48529541015625,0.001093160710297525,-0.001406507333740592,-0.00044733472168445587
1773798435967259400,6.50525927734375,-0.001439389307051897,-0.00030993414111435413,0.00026889657601714134
1773798435987222500,6.525222412109375,-0.00007040562923066318,-0.0009516386780887842,-0.00034087197855114937
1773798436007185400,6.545185302734375,-0.0000031915842555463314,0.0001898657064884901,0.0004266989417374134
1773798436027149300,6.5651494140625,0.001965150935575366,-0.0011752641294151545,-0.00032620131969451904
1773798436047112400,6.585112548828125,-0.000786000513471663,0.0005069107282906771,-0.00039642350748181343
1773798436067075600,6.60507568359375,-0.0003951780672650784,0.0000015730038285255432,0.0016285781748592854
1773798436087039500,6.62503955078125,0.0002277908643009141,0.00027444097213447094,-0.0003382321447134018
1773798436107002600,6.645002685546875,0.00011878841905854642,0.0003965888172388077,-0.0005095507949590683
1773798436126966500,6.664966552734375,0.0006170608103275299,0.00019647320732474327,0.0010994668118655682
1773798436146929400,6.684929443359375,-0.000011312513379380107,0.00041498919017612934,0.0015185428783297539
1773798436166892500,6.704892578125,0.0002812813618220389,-0.00020986399613320827,0.0006803213618695736
1773798436186856400,6.7248564453125,-0.00010562784154899418,-0.00012915278784930706,0.0007862960919737816
1773798436206819600,6.744819580078125,0.00025799009017646313,-0.0015334265772253275,-0.0006654956378042698
1773798436226783500,6.764783447265625,-0.0011455533094704151,0.0010337969288229942,-0.0012077605351805687
1773798436246746600,6.78474658203125,0.001061045448295772,-0.00008217175491154194,-0.0015118210576474667
1773798436266709500,6.80470947265625,-0.00012477050768211484,-0.00019695796072483063,-0.0018959175795316696
1773798436286673700,6.824673583984375,0.000597346224822104,0.00041978759691119194,-0.0013966537080705166
1773798436306636500,6.844636474609375,0.00025722821010276675,-0.0007548488210886717,-0.0008006743155419827
1773798436326599700,6.864599609375,0.00026152771897614,-0.0004905413370579481,-0.0011663571931421757
1773798436346563600,6.8845634765625,0.00047635292867198586,-0.00020799110643565655,0.000677026342600584
1773798436366526700,6.904526611328125,0.0008743120124563575,0.00011583114974200726,0.002120314398780465
1773798436386490600,6.92449072265625,-0.000475892738904804,0.00029722973704338074,0.0031890575774013996
1773798436406453500,6.94445361328125,-0.0011162067530676723,0.00033290591090917587,0.0014143520966172218
1773798436426416400,6.96441650390625,0.00044802381307817996,0.0007803572807461023,0.0010118717327713966
1773798436446380500,6.984380615234375,-0.001685886294580996,-0.0001397361047565937,0.0014443546533584595
1773798436466343400,7.004343505859375,-0.00010622182162478566,-0.0004844747018069029,-0.0007238173857331276
1773798436486306300,7.024306396484375,0.00017206292250193655,-0.0012101358734071255,-0.0011200206354260445
1773798436506270500,7.0442705078125,0.0008928548777475953,-0.0006140200421214104,-0.0006872382946312428
1773798436526233300,7.0642333984375,-0.0003132857382297516,0.0005161506123840809,0.00036961957812309265
1773798436546197500,7.084197509765625,-0.00047818972961977124,-0.00009490782395005226,-0.0005100071430206299
1773798436566160400,7.104160400390625,0.0006762697594240308,0.000024998793378472328,-0.00021742796525359154
1773798436586123500,7.12412353515625,0.0017752191051840782,0.0008153948001563549,-0.0002219737507402897
1773798436606087400,7.14408740234375,-0.0005126582691445947,-0.0012955793645232916,0.00038679735735058784
1773798436626050600,7.164050537109375,-0.0005803125677630305,0.0005139163695275784,-0.00039442069828510284
1773798436646013400,7.184013427734375,-0.000625401153229177,0.0002144165337085724,0.0004589199088513851
1773798436665977600,7.2039775390625,0.0016264555742964149,-0.0002869879826903343,0.0009996728040277958
1773798436685940500,7.2239404296875,0.00012623489601537585,0.0008699598256498575,0.0003185039386153221
1773798436705904400,7.243904296875,-0.00022024681675247848,-0.0000034922268241643906,-0.00009016040712594986
1773798436725867500,7.263867431640625,0.001175630372017622,-0.0010972933378070593,-0.0005362508818507195
1773798436745830700,7.28383056640625,-0.0003558081516530365,-0.00038714753463864326,-0.00308783445507288
1773798436765794600,7.303794677734375,-0.0002569381322246045,-0.0010563530959188938,-0.0008463170379400253
1773798436785757400,7.32375732421875,-0.0005945900920778513,0.00024192617274820805,-0.001976190134882927
1773798436805721300,7.343721435546875,-0.0003833507653325796,0.00036222534254193306,-0.00039818137884140015
1773798436825684200,7.363684326171875,-0.0014490190660580993,-0.0010741152800619602,0.0013887551613152027
1773798436845647400,7.3836474609375,0.0011110802879557014,0.0007898802869021893,0.002010682597756386
1773798436865611300,7.403611328125,0.0013444222277030349,0.000007344875484704971,0.0009038308635354042
1773798436885574400,7.423574462890625,-0.0008913532947190106,-0.0008205047342926264,-0.0004483163356781006
1773798436905537300,7.443537353515625,0.0010333126410841942,-0.00023116637021303177,-0.000011861789971590042
1773798436925501400,7.46350146484375,0.00021316506899893284,-0.00007531745359301567,0.0001316247507929802
1773798436945464000,7.483464111328125,-0.00014231636305339634,-0.0005844570696353912,0.0007218364626169205
1773798436965428500,7.503428466796875,-0.00003366693272255361,-0.001149493269622326,0.0005662334151566029
1773798436985391000,7.52339111328125,0.0002785839606076479,-0.0011575918179005384,0.0011109602637588978
1773798437005354200,7.543354248046875,0.0003913233522325754,-0.0015776490326970816,0.0007613785564899445
1773798437025318100,7.563318115234375,0.00010218715760856867,-0.0001898773480206728,0.0007480601780116558
1773798437045281300,7.58328125,-0.00007535374606959522,-0.0007782150059938431,0.0005899062380194664
1773798437065244200,7.603244140625,0.0012026132317259908,0.00003888225182890892,0.0005848882719874382
1773798437085208000,7.6232080078125,-0.0000468393845949322,0.0000062230974435806274,0.0008150897920131683
1773798437105171200,7.643171142578125,0.0006259439396671951,-0.0005660520400851965,-0.00020163366571068764
1773798437125135000,7.663135009765625,0.00040213397005572915,-0.00029521179385483265,-0.00010790955275297165
1773798437145098200,7.68309814453125,-0.0008775967871770263,0.00123273313511163,-0.0009964397177100182
1773798437165061000,7.70306103515625,0.0007320464355871081,0.0014927842421457171,-0.00035816989839076996
1773798437185025300,7.723025390625,0.0011196616105735302,-0.0005437335930764675,-0.0007454794831573963
1773798437204988200,7.74298828125,-0.0001847239036578685,0.0003828092012554407,-0.001181481871753931
1773798437224951300,7.762951416015625,0.0003297451767139137,-0.00012107496149837971,-0.0005918443202972412
1773798437244915200,7.782915283203125,0.0002907589660026133,-0.0006237162742763758,-0.00010041194036602974
1773798437264878300,7.80287841796875,-0.0013084763195365667,0.000004017027094960213,0.00015707779675722122
1773798437284842200,7.82284228515625,0.0004109059809707105,-0.0009897348936647177,0.0008783731609582901
1773798437304805400,7.842805419921875,0.00024740761728025973,0.0005253204144537449,0.0016517299227416515
1773798437324768300,7.862768310546875,-0.001251786481589079,-0.0014771136920899153,0.001392558217048645
1773798437344732200,7.882732177734375,0.00140370090957731,0.00024160277098417282,-0.0004928437992930412
1773798437364695300,7.9026953125,-0.0000017481797840446234,-0.0004082845989614725,-0.0013071782886981964
1773798437384658400,7.922658447265625,0.0009197904728353024,0.00044704112224280834,0.00033982936292886734
1773798437404622300,7.942622314453125,-0.0018588645616546273,-0.00010202615521848202,-0.000625938642770052
1773798437424585200,7.962585205078125,-0.0004081111110281199,0.0017120756674557924,0.0005784626118838787
1773798437444549400,7.98254931640625,-0.0012029544450342655,-0.000399961369112134,-0.0011328221298754215
1773798437464512300,8.00251220703125,0.0014315503649413586,-0.001957787200808525,-0.0007339762523770332
1773798437484475100,8.02247509765625,0.001149060670286417,-0.0008551168721169233,0.001991611672565341
1773798437504439300,8.042439208984375,-0.0003534841234795749,-0.0005171839147806168,0.0034228076692670584
1773798437524402200,8.062402099609375,-0.00020514888456091285,0.000220542773604393,0.0014874264597892761
1773798437544365000,8.082364990234375,-0.00022408069344237447,0.0011458729859441519,0.0037216576747596264
1773798437564329200,8.1023291015625,-0.0001846720406319946,0.0008483140263706446,-0.000203009694814682
1773798437584292000,8.1222919921875,0.00008196011185646057,-0.00017014238983392715,0.001920822774991393
1773798437604256300,8.14225634765625,-0.0009529872913844883,-0.001388550503179431,0.00004545506089925766
1773798437624219100,8.16221923828125,-0.00013530300930142403,-0.00009244331158697605,0.000736127607524395
1773798437644182300,8.182182373046874,-0.00005280948244035244,-0.0012262982781976461,-0.002852886915206909
1773798437664146200,8.202146240234375,0.0007851098198443651,0.0006926457863301039,-0.0013016648590564728
1773798437684109300,8.222109375,0.0008028986630961299,-0.0006448761560022831,-0.002240455709397793
1773798437704072200,8.242072265625,0.0009767482988536358,0.0010916662868112326,-0.0033438405953347683
1773798437724036000,8.2620361328125,-0.0004884724039584398,-0.00019668089225888252,-0.0015482152812182903
1773798437743999200,8.281999267578126,0.0005361155490390956,-0.0011914363130927086,-0.0009682122617959976
1773798437763962400,8.30196240234375,0.000059551530284807086,0.0002646383363753557,-0.0009024017490446568
1773798437783926300,8.32192626953125,-0.0002661207690834999,-0.0013375666458159685,-0.0010738670825958252
1773798437803892500,8.341892578125,-0.0004905362729914486,-0.00006928318180143833,-0.0005374294705688953
1773798437823856400,8.3618564453125,-0.0007265701424330473,-0.0006095513235777617,0.0006071752868592739
1773798437843819300,8.3818193359375,0.00020101566042285413,-0.0008157449774444103,-0.00018165120854973793
1773798437863782400,8.401782470703125,-0.0007038729963824153,-0.0002368600107729435,0.002020555781200528
1773798437883746300,8.421746337890625,-0.0008616366540081799,0.000006567453965544701,-0.00005144951865077019
1773798437903709200,8.441709228515625,0.0006987207452766597,0.00022807810455560684,0.000015032477676868439
1773798437923672300,8.46167236328125,0.00012860080460086465,-0.00019424431957304478,0.0012135985307395458
1773798437943636200,8.48163623046875,-0.000277636427199468,0.0006113520357757807,0.00013181008398532867
1773798437963599000,8.50159912109375,-0.00034116770257242024,0.00023852824233472347,0.0012388373725116253
1773798437983563300,8.521563232421874,-0.0013102873926982284,-0.000026888446882367134,0.0012373868376016617
1773798438003526100,8.541526123046875,-0.00014868748257867992,-0.00038786930963397026,0.0007836669683456421
1773798438023489300,8.5614892578125,-0.0001639261026866734,-0.0005157929845154285,0.00025352276861667633
1773798438043453200,8.581453125,-0.00125116144772619,-0.0006798973772674799,0.0022887683007866144
1773798438063416300,8.601416259765625,-0.0010745679028332233,-0.00029048859141767025,0.002132524736225605
1773798438083379200,8.621379150390625,0.0004373447736725211,-0.0007245596498250961,-0.0001311316154897213
1773798438103343400,8.64134326171875,-0.0006783053977414966,-0.0009687670972198248,-0.0016289199702441692
1773798438123306200,8.66130615234375,0.00017321467748843133,0.0014212591340765357,-0.0014669816009700298
1773798438143270100,8.681270263671875,0.0014471345348283648,-0.0018362740520387888,-0.001976125407963991
1773798438163233300,8.7012333984375,0.0006779628456570208,-0.00039981910958886147,-0.0017717201262712479
1773798438183196400,8.721196533203125,-0.0004695540410466492,0.00224624527618289,-0.0008351667784154415
1773798438203160300,8.741160400390624,0.0003953681152779609,0.00030317995697259903,-0.0008560009300708771
1773798438223123200,8.761123291015625,0.0015851827338337898,-0.0010166298598051071,-0.0025463253259658813
1773798438243086300,8.78108642578125,-0.000007767433999106288,0.00027297413907945156,-0.0025772089138627052
1773798438263050200,8.80105029296875,0.00008863623952493072,0.0010968103306367993,-0.0007005860097706318
1773798438283013400,8.821013427734375,0.0003193268785253167,0.000507027143612504,-0.0003356887027621269
1773798438302977300,8.840977294921874,0.000878538703545928,-0.0010920381173491478,-0.0020404262468218803
1773798438322940400,8.8609404296875,0.000265051843598485,0.0009196614846587181,0.000023862812668085098
1773798438342903300,8.8809033203125,-0.0006934389821253717,-0.0006008963100612164,0.0024766060523688793
1773798438362867500,8.900867431640625,-0.002065060194581747,0.0011750452686101198,0.0021494626998901367
1773798438382830300,8.920830322265624,0.0002297816681675613,0.0024182419292628765,0.0028766142204403877
1773798438402793500,8.94079345703125,0.0016691710334271193,-0.0001563364639878273,0.0011180248111486435
1773798438422757400,8.96075732421875,0.00010782771278172731,0.00047977245412766933,-0.0003299424424767494
1773798438442720300,8.98072021484375,-0.0007392400875687599,-0.00026850425638258457,0.0003799120895564556
1773798438462683100,9.00068310546875,0.00039382537943311036,0.00024852133356034756,-0.0012837853282690048
1773798438482647300,9.020647216796876,0.0019128380808979273,-0.0012291539460420609,-0.0024475352838635445
1773798438502610200,9.040610107421875,-0.00024915821268223226,-0.00021571852266788483,-0.003057556226849556
1773798438522574000,9.060573974609374,-0.0016596766654402018,-0.0012482483871281147,-0.0012469328939914703
1773798438542537200,9.080537109375,0.00001733863609842956,0.0014551935018971562,0.0005283248610794544
1773798438562500400,9.100500244140624,0.000723612611182034,-0.0002554564271122217,0.00038557033985853195
1773798438582464300,9.12046435546875,0.0002398780343355611,0.001337704830802977,0.0024865346495062113
1773798438602427100,9.14042724609375,-0.0012241511140018702,0.00022798939608037472,0.0016908179968595505
1773798438622390300,9.160390380859376,0.0003379437839612365,0.000507197342813015,0.0010263114236295223
1773798438642354200,9.180354248046875,-0.001223475206643343,0.000492327380925417,0.0001765238121151924
1773798438662317300,9.2003173828125,0.00019377061107661575,0.000009215902537107468,-0.0003175209276378155
1773798438682281200,9.22028125,-0.0016334743704646826,0.0005246542859822512,0.0014239526353776455
1773798438702244400,9.240244384765624,0.0010471956338733435,-0.0009001400321722031,0.001438838429749012
1773798438722207200,9.260207275390625,-0.0011250952957198024,0.000060863327234983444,0.0002015293575823307
1773798438742171400,9.28017138671875,-0.0004249984340276569,0.00009683030657470226,-0.0005225520581007004
1773798438762134300,9.30013427734375,-0.0007435118313878775,-0.0006337875965982676,-0.0008002179674804211
1773798438782097400,9.320097412109375,-0.00003068981459364295,-0.0010037252213805914,-0.00011015404015779495
1773798438802057500,9.340057373046875,-0.00005996663821861148,0.0008502276614308357,-0.0016165394335985184
1773798438822020600,9.3600205078125,0.0001639861729927361,0.00006973044946789742,-0.0010374770499765873
1773798438841983500,9.3799833984375,0.000149854167830199,-0.0002485106233507395,-0.0004970780573785305
1773798438861947600,9.39994775390625,-0.00036229868419468403,-0.0009550421964377165,-0.00140725402161479
1773798438881910500,9.41991064453125,0.00024499199935235083,-0.0007174138445407152,-0.0002148258499801159
1773798438901874400,9.43987451171875,0.0006188135012052953,-0.00010409904643893242,-0.00044631725177168846
1773798438921837600,9.459837646484376,0.00022412337420973927,0.0010038421023637056,-0.0013068686239421368
1773798438941800700,9.47980078125,0.0008391067385673523,-0.00034279096871614456,-0.0004181903786957264
1773798438961764600,9.4997646484375,0.0008250460377894342,-0.00009077670983970165,0.0002133585512638092
1773798438981727500,9.5197275390625,-0.00026806953246705234,0.0010940266074612737,0.0015230774879455566
1773798439001690400,9.5396904296875,-0.000663063838146627,0.0002223930787295103,0.0005795340985059738
1773798439021654500,9.559654541015625,0.0007524889660999179,-0.0005512593779712915,0.0007430496625602245
1773798439041617400,9.579617431640624,0.0001795247517293319,0.0007211859337985516,0.00015022046864032745
1773798439061581600,9.59958154296875,0.00007334770634770393,-0.0003539340104907751,-0.0008615166880190372
1773798439081544400,9.61954443359375,0.000829160213470459,-0.00009381072595715523,-0.0012774900533258915
1773798439101507300,9.63950732421875,0.000252436293521896,-0.00008833035826683044,-0.0000074482522904872894
1773798439121471500,9.659471435546875,0.0010082867229357362,-0.0006253081373870373,0.0009764907881617546
1773798439141434400,9.679434326171876,-0.00022571414592675865,-0.00011416268534958363,0.0017540832050144672
1773798439161397500,9.6993974609375,0.000020614243112504482,0.0005142604932188988,-0.00001703854650259018
1773798439181361400,9.719361328125,0.0004165309655945748,-0.0004941304214298725,0.0008858363144099712
1773798439201324500,9.739324462890625,-0.0006802017451263964,0.0005669184029102325,0.00007876008749008179
1773798439221288400,9.759288330078125,0.00010941177606582642,-0.000184166943654418,0.0012808460742235184
1773798439241251600,9.77925146484375,-0.001132578356191516,0.00009789573960006237,0.00002344604581594467
1773798439261214500,9.79921435546875,-0.0006393905496224761,-0.000865135807543993,0.0004024920053780079
1773798439281178400,9.819178466796876,0.000589983887039125,-0.0003307492006570101,0.0006965436041355133
1773798439301141500,9.8391416015625,-0.0016522317891940475,-0.0002392635215073824,0.0016785431653261185
1773798439321105400,9.85910546875,-0.000598421785980463,0.0007999448571354151,-0.0001120823435485363
1773798439341068500,9.879068603515625,-0.0000652230519335717,0.00026457500644028187,-0.0020832358859479427
1773798439361031400,9.899031494140624,0.00009837033576332033,0.0018770709866657853,0.00010361755266785622
1773798439380995600,9.91899560546875,0.0005247825174592435,-0.0014437248464673758,-0.0005652173422276974
1773798439400958500,9.93895849609375,-0.0005439313827082515,-0.00020320643670856953,0.0010033808648586273
1773798439420921600,9.958921630859376,0.00020396136096678674,-0.0005268955137580633,0.0014246967621147633
1773798439440885500,9.978885498046875,-0.00005394636536948383,0.0003418363630771637,0.00010013114660978317
1773798439460848600,9.9988486328125,-0.00012283388059586287,-0.0002540240529924631,-0.0011728755198419094
1773798439480812500,10.0188125,-0.000603271066211164,0.0007377825677394867,-0.0009396341629326344
1773798439500775700,10.038775634765624,0.0002816648338921368,0.000028167152777314186,-0.0009103650227189064
1773798439520738600,10.058738525390625,0.0011062390403822064,0.0004158697556704283,-0.0003310106694698334
1773798439540702500,10.078702392578125,-0.0011336631141602993,-0.0012571315746754408,-0.004107642453163862
1773798439560665600,10.09866552734375,-0.000917258090339601,-0.0007723812013864517,-0.001369620207697153
1773798439580628500,10.11862841796875,0.0005747851682826877,-0.0001218477264046669,-0.0009997524321079254
1773798439600592600,10.138592529296876,-0.0011263162596151233,0.000771453371271491,0.00230527576059103
1773798439620555500,10.158555419921875,-0.00001327169593423605,-0.0015597816091030836,0.0020246149506419897
1773798439640519700,10.178519775390624,-0.0003939160378649831,-0.0009337668307125568,0.0012649605050683022
1773798439660482300,10.198482421875,0.000614267133641988,-0.00007273256778717041,0.002119316952303052
1773798439680445400,10.218445556640624,-0.0005553077789954841,-0.0014121350832283497,0.00025002937763929367
1773798439700409300,10.238409423828125,0.0014040498062968254,-0.000563683221116662,-0.002462808508425951
1773798439720372500,10.25837255859375,-0.0010408806847408414,-0.001652250997722149,-0.0021255258470773697
1773798439740336400,10.27833642578125,0.0010818792507052422,0.0002823062241077423,-0.0013470668345689774
1773798439760299500,10.298299560546875,0.0001522065285826102,-0.0011424534022808075,-0.00036541325971484184
1773798439780262400,10.318262451171876,0.0005601756274700165,-0.00009938539005815983,0.0010787760838866234
1773798439800226600,10.3382265625,-0.0009526016074232757,-0.00022974517196416855,-0.0009065507911145687
1773798439820189700,10.358189697265624,0.00011115166125819087,0.00011731102131307125,-0.0002318061888217926
1773798439840152800,10.37815283203125,-0.0003596655442379415,0.0007964710239320993,-0.0011730631813406944
1773798439860116700,10.39811669921875,0.00006962890620343387,-0.0004680987913161516,-0.00013311346992850304
1773798439880080000,10.418079833984375,-0.0010912149446085095,-0.00013735704123973846,0.00010242918506264687
1773798439900043800,10.438043701171875,0.002358211437240243,-0.00040278444066643715,0.0006779972463846207
1773798439920006700,10.458006591796876,-0.0010921721113845706,-0.00031613814644515514,0.0017230124212801456
1773798439939969800,10.4779697265625,-0.0010018011089414358,-0.0005345193203538656,-0.00027449289336800575
1773798439959933700,10.49793359375,-0.00024556199787184596,-0.0007903364021331072,0.00006347242742776871
1773798439979896800,10.517896728515625,-0.0008906112052500248,-0.00045112031511962414,-0.00030657555907964706
1773798439999859700,10.537859619140624,0.00043154487502761185,0.0004900346975773573,-0.0017048455774784088
1773798440019823900,10.557823974609375,-0.00023203319869935513,-0.00009215855970978737,-0.00045100273564457893
1773798440039786800,10.577786865234375,-0.0006953579722903669,-0.0004565538838505745,0.00036950455978512764
1773798440059751000,10.5977509765625,0.0004600569955073297,-0.00010942458175122738,-0.002524854615330696
1773798440079713800,10.6177138671875,0.0004522037925198674,0.0005920557305216789,0.0009009442292153835
1773798440099677000,10.637677001953126,0.0015245883259922266,-0.0007121972739696503,-0.0008593066595494747
1773798440119640800,10.657640869140625,-0.0007114681066013873,0.0004814709536731243,-0.00037698401138186455
1773798440139604000,10.67760400390625,-0.0006315312348306179,0.0004454574082046747,0.0005946769379079342
1773798440159568000,10.69756787109375,-0.000052240968216210604,0.000916552497074008,0.0006176917813718319
1773798440179530800,10.71753076171875,-0.00040714212809689343,0.0013765123439952731,0.00030914507806301117
1773798440199493600,10.73749365234375,-0.0006203276570886374,0.00027317856438457966,-0.00032839784398674965
1773798440219457800,10.757457763671875,0.00020663240866269916,-0.0007443237118422985,0.00005872361361980438
1773798440239420700,10.777420654296876,0.0014633984537795186,0.0005883241537958384,0.0008505573496222496
1773798440259383600,10.797383544921875,0.0002784811076708138,-0.00042684213258326054,0.0005963179282844067
1773798440279347700,10.81734765625,0.0006462974124588072,0.0001119829248636961,0.00021608686074614525
1773798440299310600,10.837310546875,-0.0016325181350111961,0.00037476024590432644,0.0007774429395794868
1773798440319274800,10.857274658203124,-0.00007026334060356021,0.0006850482895970345,-0.0005032294429838657
1773798440339237600,10.877237548828125,0.000038145051803439856,-0.00006543705239892006,-0.0003983238711953163
1773798440359200800,10.89720068359375,0.0004281836736481637,0.0007690128404647112,0.0009417226538062096
1773798440379164700,10.91716455078125,-0.0000328273163177073,-0.0013157024513930082,0.0002834713086485863
1773798440399127800,10.9371279296875,0.0006435132236219943,-0.0003809747286140919,-0.0008892063051462173
1773798440419091700,10.957091796875,-0.00016393035184592009,0.0004029972478747368,-0.0012637213803827763
1773798440439054800,10.977054931640625,0.0013079249765723944,-0.0008497918024659157,-0.0008355681784451008
1773798440459017700,10.997017822265626,0.0016688951291143894,-0.0007933767046779394,0.0008588451892137527
1773798440478981600,11.016981689453125,-0.00002595869591459632,0.0003756806254386902,0.00006601260975003242
1773798440498944800,11.03694482421875,-0.0014509973116219044,0.001694828039035201,-0.000776712317019701
1773798440518908700,11.05690869140625,-0.001930922269821167,-0.00044489046558737755,-0.000010825693607330322
1773798440538871800,11.076871826171875,0.0005344280507415533,-0.000008120900020003319,0.000518393237143755
1773798440558834700,11.096834716796875,-0.00040660990634933114,0.00038939621299505234,0.0006117736920714378
1773798440578798800,11.116798828125,0.0002527608594391495,0.0008614922408014536,0.0016869409009814262
1773798440598761700,11.13676171875,0.0003239255747757852,0.0013386725913733244,0.0010465928353369236
1773798440618724900,11.156724853515625,0.00120473001152277,-0.001312730833888054,0.0011791759170591831
1773798440638688800,11.176688720703124,0.0007538064965046942,0.0014159702695906162,0.0003177886828780174
1773798440658652000,11.19665185546875,-0.0009470680961385369,-0.00020983791910111904,0.0008639856241643429
1773798440678615800,11.21661572265625,-0.0010790093801915646,-0.00021815160289406776,0.0006244359537959099
1773798440698579000,11.236578857421875,0.00043685012497007847,-0.00120719731785357,-0.0007376126013696194
1773798440718541800,11.256541748046875,-0.00043662430834956467,0.0005107047036290169,0.0013119284994900227
1773798440738505700,11.276505615234376,0.00045656171278096735,0.0020446493290364742,-0.00039723794907331467
1773798440758468900,11.29646875,0.0001987877330975607,0.0018015364184975624,0.000040767714381217957
1773798440778432800,11.316432861328124,0.0016486103413626552,0.00034491904079914093,-0.0009489860385656357
1773798440798395600,11.336395751953125,0.000890805502422154,0.0005355717148631811,-0.0020752698183059692
1773798440818359300,11.356359375,0.00022051380074117333,-0.0013763343449681997,-0.0008899425156414509
1773798440838323500,11.376323486328126,0.000034955679439008236,0.001002454198896885,0.00044822879135608673
1773798440858286300,11.396286376953125,0.00008620903827250004,-0.0006153772119432688,-0.00021416880190372467
1773798440878250200,11.416250244140626,-0.000506074633449316,0.00026492378674447536,0.0012082564644515514
1773798440898213400,11.43621337890625,-0.0006891128141433001,0.0004362750332802534,0.0017176521942019463
1773798440918176500,11.456176513671876,0.0013368409126996994,-0.00012513715773820877,0.0008629355579614639
1773798440938140400,11.476140380859375,-0.000023764761863276362,-0.00023182760924100876,-0.0002874140627682209
1773798440958103300,11.496103271484374,0.0003530445974320173,-0.0007573713082820177,-0.002356533892452717
1773798440978067500,11.5160673828125,0.00008415826596319675,-0.000199431786313653,-0.0010773302055895329
1773798440998030300,11.5360302734375,0.002381626283749938,0.00004876870661973953,-0.0020369701087474823
1773798441017993500,11.555993408203125,-0.0005168140633031726,0.0007296516560018063,-0.0024957950226962566
1773798441037957400,11.575957275390625,0.0006320170941762626,0.0007087716367095709,-0.001837891060858965
1773798441057920500,11.59592041015625,-0.000041115592466667295,-0.0005670918617397547,-0.001436812337487936
1773798441077884400,11.615884521484375,0.0011619131546467543,-0.00013804901391267776,0.0001903986558318138
1773798441097847600,11.63584765625,-0.00029713765252381563,-0.0008998999837785959,0.002008063020184636
1773798441117810400,11.655810546875,-0.00030434472137130797,-0.0015774727798998356,0.0013254308141767979
1773798441137774600,11.675774658203125,-0.0010525656398385763,-0.0008963902946561575,0.0016887248493731022
1773798441157737500,11.695737548828125,-0.00016064138617366552,0.0019384126644581556,0.003820076584815979
1773798441177701400,11.715701416015625,0.00032458134228363633,-0.0019662505947053432,0.0019537578336894512
1773798441197664300,11.735664306640626,-0.0008549606427550316,-0.0010277943219989538,0.0010197199881076813
1773798441217627400,11.75562744140625,0.00022695236839354038,-0.000122543191537261,-0.00019040703773498535
1773798441237591300,11.77559130859375,-0.0007428649114444852,-0.00018843822181224823,0.0022614002227783203
1773798441257554200,11.79555419921875,0.00029255548724904656,-0.0014332691207528114,-0.0014592711813747883
1773798441277518300,11.815518310546874,0.0004482473013922572,-0.0001504523679614067,-0.002168208360671997
1773798441297481200,11.835481201171875,-0.0015116650611162186,-0.0017872073221951723,-0.002149042207747698
1773798441317444400,11.8554443359375,-0.00026323465863242745,-0.00035773124545812607,0.0000691399909555912
1773798441337408300,11.875408203125,0.0013590485323220491,0.00023783696815371513,-0.000833434984087944
1773798441357371400,11.895371337890625,-0.000006255577318370342,-0.0005815855693072081,-0.0008302130736410618
1773798441377335300,11.915335205078126,0.0016550023574382067,0.0010056702885776758,0.0008517983369529247
1773798441397298400,11.93529833984375,0.00048367708222940564,0.0009695303160697222,0.0008699079044163227
1773798441417262300,11.955262451171874,-0.00040319241816177964,0.0008681346662342548,0.0028454724233597517
1773798441437225200,11.97522509765625,0.00013185909483581781,0.00010418961755931377,-0.00038895895704627037
1773798441457188400,11.995188232421874,0.00033528596395626664,0.000386673491448164,0.001622550655156374
1773798441477152300,12.01515234375,0.0011611060472205281,0.0026706564240157604,0.0009522531181573868
1773798441497115400,12.035115478515625,-0.0005315626040101051,-0.0004521280061453581,-0.00023581832647323608
1773798441517079300,12.055079345703126,0.0011785454116761684,0.0006654085591435432,-0.0006855926476418972
1773798441537042400,12.07504248046875,0.0006013023667037487,-0.0015011548530310392,-0.0024432935751974583
1773798441557005300,12.09500537109375,0.00010107341222465038,-0.0012452991213649511,0.0003956267610192299
1773798441576969500,12.114969482421875,0.0006779955001547933,0.0002360418438911438,0.0006206491962075233
1773798441596932400,12.134932373046874,0.0008059968240559101,-0.0007888085674494505,0.00011733593419194221
1773798441616896500,12.154896484375,-0.0010423975763842463,-0.00029000663198530674,0.0020648862700909376
1773798441636859400,12.174859375,-0.0008535635424777865,0.000684855505824089,0.00515897199511528
1773798441656822500,12.194822509765626,-0.00038254016544669867,0.003082685638219118,0.0051847840659320354
1773798441676786400,12.214786376953125,0.0014416243648156524,0.00023495708592236042,0.0024153601843863726
1773798441696749600,12.23474951171875,-0.0008170960936695337,-0.000528230331838131,-0.0005907961167395115
1773798441716713500,12.25471337890625,-0.0008256800356321037,0.00021385936997830868,-0.002251583617180586
1773798441736676400,12.27467626953125,0.00024487177142873406,0.0000014617107808589935,-0.004161831457167864
1773798441756640500,12.294640625,-0.0005636818241328001,0.0010291596408933401,-0.0032971068285405636
1773798441776603400,12.314603271484375,0.0018487749621272087,-0.001475021243095398,-0.002866209950298071
1773798441796566500,12.33456640625,0.0009877935517579317,-0.00045547238551080227,-0.0024917605333030224
1773798441816530000,12.354530029296875,0.001382133923470974,-0.002393881557509303,-0.0022520790807902813
