time,seconds_elapsed,z,y,x
1773790151230807600,0.0258076171875,-0.9959869384765625,0.0009613037109375,-0.014434814453125
1773790151250771500,0.045771484375,-0.9968719482421875,0.0023345947265625,-0.01556396484375
1773790151270735600,0.065735595703125,-0.995452880859375,0.003021240234375,-0.016448974609375
1773790151290699500,0.085699462890625,-0.99627685546875,0.0006866455078125,-0.01507568359375
1773790151310664000,0.105663818359375,-0.9963531494140625,0.001739501953125,-0.014404296875
1773790151330627800,0.1256279296875,-0.99591064453125,0.0005035400390625,-0.0147552490234375
1773790151350592000,0.145592041015625,-0.9969482421875,0.00189208984375,-0.0160675048828125
1773790151370556000,0.165555908203125,-0.995452880859375,0.00115966796875,-0.014312744140625
1773790151390520000,0.18552001953125,-0.9965667724609375,0.0023040771484375,-0.0142669677734375
1773790151410484000,0.20548388671875,-0.9960174560546875,0.0014801025390625,-0.0154266357421875
1773790151430448000,0.2254482421875,-0.9961700439453125,0.001922607421875,-0.0145111083984375
1773790151450412000,0.245412109375,-0.996124267578125,0.002105712890625,-0.01519775390625
1773790151470376000,0.2653759765625,-0.996368408203125,0.001739501953125,-0.01611328125
1773790151490340000,0.285340087890625,-0.9946136474609375,0.0016021728515625,-0.01470947265625
1773790151510304000,0.305303955078125,-0.9956817626953125,0.0013580322265625,-0.0154266357421875
1773790151530268000,0.325267822265625,-0.9965362548828125,0.000732421875,-0.01507568359375
1773790151550231800,0.345231689453125,-0.995849609375,0.001312255859375,-0.015899658203125
1773790151570196000,0.365196044921875,-0.9957275390625,0.0006103515625,-0.0145111083984375
1773790151590160000,0.385159912109375,-0.996307373046875,0.0018768310546875,-0.0160980224609375
1773790151610123800,0.405123779296875,-0.994873046875,0.0010223388671875,-0.0142364501953125
1773790151630088200,0.425088134765625,-0.9945526123046875,0.00286865234375,-0.014434814453125
1773790151650052000,0.445052001953125,-0.9951629638671875,0.001678466796875,-0.0149688720703125
1773790151670016000,0.46501611328125,-0.994842529296875,0.002532958984375,-0.0149383544921875
1773790151689980000,0.48497998046875,-0.9957122802734375,0.0021514892578125,-0.014373779296875
1773790151709944000,0.504944091796875,-0.9951019287109375,0.0014801025390625,-0.0155029296875
1773790151729908000,0.524907958984375,-0.9954681396484375,0.001800537109375,-0.01629638671875
1773790151749871900,0.544871826171875,-0.995880126953125,0.003021240234375,-0.015472412109375
1773790151769836000,0.5648359375,-0.9958343505859375,0.001312255859375,-0.0153350830078125
1773790151789800000,0.584800048828125,-0.9953155517578125,0.001434326171875,-0.0148162841796875
1773790151809763800,0.604763916015625,-0.9951324462890625,0.00213623046875,-0.0142822265625
1773790151829728000,0.62472802734375,-0.995269775390625,0.0009613037109375,-0.015625
1773790151849692000,0.64469189453125,-0.9964141845703125,0.002166748046875,-0.015594482421875
1773790151869656000,0.664656005859375,-0.9956817626953125,0.0010833740234375,-0.0146636962890625
1773790151889620000,0.684619873046875,-0.9957275390625,0.0022125244140625,-0.0138397216796875
1773790151909584100,0.704584228515625,-0.995452880859375,0.003143310546875,-0.0151824951171875
1773790151929548000,0.724548095703125,-0.995452880859375,0.002105712890625,-0.0142974853515625
1773790151949511200,0.74451123046875,-0.9964599609375,0.0017242431640625,-0.01568603515625
1773790151969475000,0.76447509765625,-0.9962310791015625,0.0027923583984375,-0.0159912109375
1773790151989439000,0.78443896484375,-0.9957733154296875,0.0016937255859375,-0.015045166015625
1773790152009403000,0.80440283203125,-0.99505615234375,0.000946044921875,-0.0145721435546875
1773790152029367000,0.824366943359375,-0.99554443359375,0.001983642578125,-0.0154876708984375
1773790152049331000,0.8443310546875,-0.9971160888671875,0.0010223388671875,-0.0160675048828125
1773790152069294000,0.864294189453125,-0.9964752197265625,0.0018463134765625,-0.0154571533203125
1773790152089258000,0.884258056640625,-0.9961700439453125,0.00225830078125,-0.014862060546875
1773790152109222000,0.904221923828125,-0.99542236328125,0.000396728515625,-0.0144500732421875
1773790152129185800,0.924185791015625,-0.9969940185546875,0.002044677734375,-0.014251708984375
1773790152149150000,0.94414990234375,-0.995513916015625,0.0013275146484375,-0.015533447265625
1773790152169113900,0.96411376953125,-0.9962158203125,0.001708984375,-0.014892578125
1773790152189078000,0.984078125,-0.996307373046875,0.0012359619140625,-0.0146942138671875
1773790152209042200,1.004042236328125,-0.9968109130859375,0.001739501953125,-0.0155181884765625
1773790152229006000,1.024006103515625,-0.995697021484375,0.0017242431640625,-0.0142974853515625
1773790152248970000,1.043969970703125,-0.9971466064453125,0.001556396484375,-0.0142822265625
1773790152268934000,1.063933837890625,-0.995391845703125,0.0019073486328125,-0.0150604248046875
1773790152288898000,1.08389794921875,-0.995330810546875,0.00115966796875,-0.015228271484375
1773790152308862000,1.103862060546875,-0.99603271484375,0.0013275146484375,-0.0145416259765625
1773790152328825300,1.123825439453125,-0.9960479736328125,0.0023040771484375,-0.01422119140625
1773790152348789200,1.143789306640625,-0.9961395263671875,0.002197265625,-0.01513671875
1773790152368753200,1.163753173828125,-0.995086669921875,0.002197265625,-0.0142822265625
1773790152388717000,1.183717041015625,-0.9949493408203125,0.002410888671875,-0.01483154296875
1773790152408681200,1.20368115234375,-0.995635986328125,0.0017852783203125,-0.014862060546875
1773790152428645000,1.22364501953125,-0.99505615234375,0.0027618408203125,-0.01483154296875
1773790152448609000,1.243609130859375,-0.995513916015625,0.0009765625,-0.0153961181640625
1773790152468572200,1.263572265625,-0.9959716796875,0.0018768310546875,-0.01409912109375
1773790152488536000,1.2835361328125,-0.996246337890625,0.00189208984375,-0.014739990234375
1773790152508500200,1.303500244140625,-0.9949798583984375,0.0028839111328125,-0.0164337158203125
1773790152528464100,1.323464111328125,-0.9957733154296875,0.0025634765625,-0.01507568359375
1773790152548428000,1.343427978515625,-0.9950408935546875,0.0021209716796875,-0.01531982421875
1773790152568392000,1.363391845703125,-0.9960784912109375,0.0011444091796875,-0.0148162841796875
1773790152588356400,1.3833564453125,-0.9963531494140625,0.001434326171875,-0.014617919921875
1773790152608320300,1.4033203125,-0.9952239990234375,0.001373291015625,-0.0145416259765625
1773790152628284200,1.4232841796875,-0.995819091796875,0.0023651123046875,-0.0157470703125
1773790152648248300,1.443248291015625,-0.996490478515625,0.002593994140625,-0.0146331787109375
1773790152668212200,1.463212158203125,-0.9955291748046875,0.0020751953125,-0.0158843994140625
1773790152688176000,1.483176025390625,-0.99627685546875,0.001129150390625,-0.0152435302734375
1773790152708140000,1.50314013671875,-0.996246337890625,0.001678466796875,-0.0148468017578125
1773790152728104200,1.523104248046875,-0.9952850341796875,0.0026702880859375,-0.01434326171875
1773790152748068000,1.543068115234375,-0.9954986572265625,0.0028228759765625,-0.015533447265625
1773790152768032000,1.563031982421875,-0.9948577880859375,0.0010833740234375,-0.0146636962890625
1773790152787996200,1.58299609375,-0.996368408203125,0.002166748046875,-0.01519775390625
1773790152807959000,1.602958984375,-0.9968109130859375,0.001983642578125,-0.01495361328125
1773790152827923000,1.6229228515625,-0.9956817626953125,0.0017242431640625,-0.0159454345703125
1773790152847887000,1.64288720703125,-0.99554443359375,0.000946044921875,-0.015167236328125
1773790152867851300,1.662851318359375,-0.9957275390625,0.0014495849609375,-0.0149383544921875
1773790152887815200,1.682815185546875,-0.9953155517578125,0.0023651123046875,-0.014404296875
1773790152907779300,1.702779296875,-0.9958343505859375,0.0005035400390625,-0.014892578125
1773790152927743200,1.7227431640625,-0.9944305419921875,0.0018768310546875,-0.015655517578125
1773790152947707100,1.74270703125,-0.9969024658203125,0.0011749267578125,-0.0148468017578125
1773790152967671000,1.762671142578125,-0.9961090087890625,0.001678466796875,-0.015045166015625
1773790152987635200,1.78263525390625,-0.996307373046875,0.001861572265625,-0.013916015625
1773790153007599000,1.80259912109375,-0.9970550537109375,0.0022125244140625,-0.015167236328125
1773790153027563000,1.82256298828125,-0.9953155517578125,0.00067138671875,-0.01593017578125
1773790153047527200,1.842527099609375,-0.99566650390625,0.0017547607421875,-0.015838623046875
1773790153067491000,1.862490966796875,-0.995361328125,0.00201416015625,-0.0157623291015625
1773790153087455000,1.882455078125,-0.996673583984375,0.001739501953125,-0.0158233642578125
1773790153107419100,1.902419189453125,-0.996002197265625,0.0020904541015625,-0.015472412109375
1773790153127383300,1.92238330078125,-0.99517822265625,0.0026397705078125,-0.0148773193359375
1773790153147346200,1.94234619140625,-0.99603271484375,0.001800537109375,-0.0149383544921875
1773790153167310300,1.962310302734375,-0.9956817626953125,0.0015716552734375,-0.01416015625
1773790153187274200,1.982274169921875,-0.995880126953125,0.0008697509765625,-0.014984130859375
1773790153207238100,2.002238037109375,-0.995025634765625,0.0003509521484375,-0.014434814453125
1773790153227202300,2.022202392578125,-0.9959259033203125,0.0007781982421875,-0.015716552734375
1773790153247166200,2.042166259765625,-0.9959564208984375,0.001800537109375,-0.015594482421875
1773790153267130000,2.062130126953125,-0.9964447021484375,0.0017242431640625,-0.01556396484375
1773790153287094000,2.082093994140625,-0.995513916015625,0.0026702880859375,-0.0145263671875
1773790153307058200,2.10205810546875,-0.99658203125,0.001678466796875,-0.01446533203125
1773790153327026000,2.12202587890625,-0.9965362548828125,0.001922607421875,-0.016204833984375
1773790153346989800,2.14198974609375,-0.9965362548828125,0.001739501953125,-0.0149078369140625
1773790153366954000,2.1619541015625,-0.9962615966796875,0.001800537109375,-0.01446533203125
1773790153386918100,2.181918212890625,-0.99542236328125,0.001861572265625,-0.0153656005859375
1773790153406882000,2.201882080078125,-0.9944915771484375,0.0014801025390625,-0.0153961181640625
1773790153426846000,2.221845947265625,-0.9966583251953125,0.0020751953125,-0.014068603515625
1773790153446809000,2.24180908203125,-0.9958343505859375,0.001800537109375,-0.0167236328125
1773790153466773000,2.26177294921875,-0.997039794921875,0.0019989013671875,-0.014007568359375
1773790153486737000,2.28173681640625,-0.9952850341796875,0.00128173828125,-0.0145263671875
1773790153506701000,2.301701171875,-0.9951019287109375,0.0020294189453125,-0.0154571533203125
1773790153526665000,2.3216650390625,-0.9956512451171875,0.0026397705078125,-0.0142669677734375
1773790153546628900,2.34162890625,-0.9959869384765625,0.002410888671875,-0.0152740478515625
1773790153566593000,2.361593017578125,-0.99554443359375,0.0009918212890625,-0.014892578125
1773790153586557000,2.381556884765625,-0.99493408203125,0.0011749267578125,-0.0147857666015625
1773790153606520800,2.401520751953125,-0.9954376220703125,0.0015869140625,-0.015899658203125
1773790153626485000,2.421485107421875,-0.996063232421875,0.00244140625,-0.014068603515625
1773790153646449200,2.44144921875,-0.9962310791015625,0.0016937255859375,-0.0146331787109375
1773790153666413000,2.4614130859375,-0.99560546875,0.0008392333984375,-0.0157012939453125
1773790153686377000,2.481376953125,-0.9956207275390625,0.002227783203125,-0.0152130126953125
1773790153706341000,2.501341064453125,-0.9951171875,0.0018157958984375,-0.0150909423828125
1773790153726305000,2.521304931640625,-0.9962921142578125,0.0020751953125,-0.01568603515625
1773790153746268200,2.54126806640625,-0.995208740234375,0.0019378662109375,-0.0146636962890625
1773790153766232000,2.561232177734375,-0.9962615966796875,0.001220703125,-0.0143585205078125
1773790153786196000,2.581196044921875,-0.995819091796875,0.0020599365234375,-0.0140838623046875
1773790153806160000,2.601159912109375,-0.995513916015625,0.0009613037109375,-0.014373779296875
1773790153826124000,2.6211240234375,-0.9957427978515625,0.0017547607421875,-0.0152740478515625
1773790153846088000,2.641087890625,-0.9945831298828125,0.0021209716796875,-0.014190673828125
1773790153866051800,2.6610517578125,-0.9958953857421875,0.002716064453125,-0.0142822265625
1773790153886016000,2.68101611328125,-0.9957122802734375,0.0027923583984375,-0.0152740478515625
1773790153905980000,2.70097998046875,-0.9963531494140625,0.001312255859375,-0.01483154296875
1773790153925944000,2.720944091796875,-0.996490478515625,0.002288818359375,-0.0147247314453125
1773790153945908000,2.740907958984375,-0.9953460693359375,0.0030975341796875,-0.014007568359375
1773790153965872000,2.7608720703125,-0.9959869384765625,0.0007781982421875,-0.013519287109375
1773790153985836000,2.7808359375,-0.995361328125,0.0017852783203125,-0.0149078369140625
1773790154005800000,2.800800048828125,-0.9963836669921875,0.000762939453125,-0.0154266357421875
1773790154025763000,2.82076318359375,-0.9953765869140625,0.0009307861328125,-0.014984130859375
1773790154045727000,2.84072705078125,-0.9943389892578125,0.0009613037109375,-0.0146636962890625
1773790154065691000,2.86069091796875,-0.99615478515625,0.0011138916015625,-0.0148162841796875
1773790154085655000,2.880655029296875,-0.9955902099609375,0.0017242431640625,-0.014190673828125
1773790154105619000,2.900618896484375,-0.994598388671875,0.0023345947265625,-0.0146331787109375
1773790154125582800,2.920582763671875,-0.9951934814453125,0.0028533935546875,-0.014312744140625
1773790154145547000,2.940547119140625,-0.9950714111328125,0.001983642578125,-0.015289306640625
1773790154165511000,2.960510986328125,-0.9946746826171875,0.0028533935546875,-0.014068603515625
1773790154185474800,2.980474853515625,-0.9972991943359375,0.00152587890625,-0.0146942138671875
1773790154205439000,3.00043896484375,-0.99615478515625,0.0006866455078125,-0.014495849609375
1773790154225403100,3.020403076171875,-0.9945831298828125,0.0022125244140625,-0.01409912109375
1773790154245367000,3.040366943359375,-0.9949188232421875,0.0022125244140625,-0.015106201171875
1773790154265331000,3.0603310546875,-0.9954376220703125,0.00189208984375,-0.0154571533203125
1773790154285295000,3.080295166015625,-0.99468994140625,0.001953125,-0.01556396484375
1773790154305258000,3.100258056640625,-0.996551513671875,0.001953125,-0.01446533203125
1773790154325218300,3.12021826171875,-0.994903564453125,0.00079345703125,-0.014801025390625
1773790154345182200,3.14018212890625,-0.9964599609375,0.0018463134765625,-0.014739990234375
1773790154365146000,3.16014599609375,-0.995361328125,0.0010528564453125,-0.0157012939453125
1773790154385110000,3.180110107421875,-0.995758056640625,0.0030517578125,-0.014068603515625
1773790154405074200,3.20007421875,-0.9960479736328125,0.0017547607421875,-0.015472412109375
1773790154425038000,3.2200380859375,-0.996429443359375,0.0009918212890625,-0.0148773193359375
1773790154445002000,3.240001953125,-0.9949951171875,0.0016937255859375,-0.0148773193359375
1773790154464966100,3.259966064453125,-0.9947052001953125,0.001556396484375,-0.0153350830078125
1773790154484930000,3.279929931640625,-0.995849609375,0.002716064453125,-0.0156097412109375
1773790154504894000,3.29989404296875,-0.994964599609375,0.0012359619140625,-0.0146484375
1773790154524858000,3.319858154296875,-0.99615478515625,0.002288818359375,-0.0155181884765625
1773790154544822300,3.339822265625,-0.9942474365234375,0.002044677734375,-0.01495361328125
1773790154564785000,3.359784912109375,-0.995697021484375,0.002655029296875,-0.014404296875
1773790154584749300,3.379749267578125,-0.9956207275390625,0.001678466796875,-0.0154266357421875
1773790154604713200,3.399713134765625,-0.995025634765625,0.0022430419921875,-0.01409912109375
1773790154624677000,3.419677001953125,-0.995086669921875,0.0022430419921875,-0.0144805908203125
1773790154644641300,3.439641357421875,-0.9951629638671875,0.0006866455078125,-0.014892578125
1773790154664605200,3.459605224609375,-0.9952392578125,0.0018463134765625,-0.01470947265625
1773790154684569000,3.479569091796875,-0.9950103759765625,0.00286865234375,-0.0144195556640625
1773790154704533000,3.499532958984375,-0.9958648681640625,0.001678466796875,-0.015625
1773790154724497200,3.5194970703125,-0.9955902099609375,0.002471923828125,-0.014495849609375
1773790154744461000,3.5394609375,-0.9953155517578125,0.001556396484375,-0.0135955810546875
1773790154764425000,3.559425048828125,-0.9965972900390625,0.0009613037109375,-0.0147247314453125
1773790154784389000,3.57938916015625,-0.995025634765625,0.00189208984375,-0.015625
1773790154804352000,3.59935205078125,-0.9957733154296875,0.0016632080078125,-0.0152740478515625
1773790154824316000,3.61931591796875,-0.995880126953125,0.0020751953125,-0.0134429931640625
1773790154844280000,3.639280029296875,-0.9962615966796875,0.0021209716796875,-0.015167236328125
1773790154864244200,3.659244140625,-0.996124267578125,0.003143310546875,-0.0159454345703125
1773790154884208000,3.6792080078125,-0.9954681396484375,0.001251220703125,-0.015045166015625
1773790154904172300,3.69917236328125,-0.9974822998046875,0.0001678466796875,-0.015411376953125
1773790154924136200,3.71913623046875,-0.9944305419921875,0.0011138916015625,-0.014434814453125
1773790154944100000,3.73910009765625,-0.994415283203125,0.0010833740234375,-0.0144500732421875
1773790154964064000,3.75906396484375,-0.9969940185546875,0.0016021728515625,-0.0145263671875
1773790154984028200,3.779028076171875,-0.9955291748046875,0.0017547607421875,-0.01434326171875
1773790155003992000,3.798991943359375,-0.99664306640625,0.0014801025390625,-0.014404296875
1773790155023956000,3.8189560546875,-0.9951629638671875,0.0015869140625,-0.01483154296875
1773790155043919000,3.838919189453125,-0.99359130859375,0.0028839111328125,-0.015045166015625
1773790155063883000,3.858883056640625,-0.9953460693359375,0.0008544921875,-0.01556396484375
1773790155083847200,3.87884716796875,-0.995513916015625,0.002044677734375,-0.0144500732421875
1773790155103811000,3.89881103515625,-0.9959716796875,0.0017242431640625,-0.0141143798828125
1773790155123775000,3.91877490234375,-0.99652099609375,0.0014495849609375,-0.01593017578125
1773790155143739100,3.9387392578125,-0.9954986572265625,0.003265380859375,-0.01416015625
1773790155163703300,3.958703369140625,-0.9959259033203125,0.0027313232421875,-0.0148468017578125
1773790155183667200,3.978667236328125,-0.997039794921875,0.0009918212890625,-0.0146942138671875
1773790155203631000,3.998631103515625,-0.996124267578125,0.0018310546875,-0.016326904296875
1773790155223595300,4.01859521484375,-0.996337890625,0.003173828125,-0.0141754150390625
1773790155243559200,4.03855908203125,-0.9966583251953125,0.002960205078125,-0.014739990234375
1773790155263523000,4.058523193359375,-0.99639892578125,0.00225830078125,-0.0142364501953125
1773790155283486200,4.078486328125,-0.99566650390625,0.0023193359375,-0.0152435302734375
1773790155303450000,4.0984501953125,-0.9950714111328125,0.002716064453125,-0.0141448974609375
1773790155323414000,4.1184140625,-0.9965057373046875,0.0020904541015625,-0.014129638671875
1773790155343378200,4.138378173828125,-0.9945220947265625,0.002655029296875,-0.0160064697265625
1773790155363342000,4.158342041015625,-0.995697021484375,0.0012664794921875,-0.01483154296875
1773790155383306000,4.178305908203125,-0.9951324462890625,0.00091552734375,-0.0139923095703125
1773790155403270000,4.198269775390625,-0.99591064453125,0.0009307861328125,-0.0148773193359375
1773790155423234000,4.218234130859375,-0.99493408203125,0.00201416015625,-0.015472412109375
1773790155443198000,4.238197998046875,-0.9967803955078125,0.0016021728515625,-0.0159149169921875
1773790155463161900,4.258161865234375,-0.9944000244140625,0.0010528564453125,-0.0150146484375
1773790155483126000,4.2781259765625,-0.9955596923828125,0.0019683837890625,-0.014739990234375
1773790155503090000,4.29808984375,-0.9948577880859375,0.0006866455078125,-0.0146026611328125
1773790155523053000,4.318052978515625,-0.995208740234375,0.002777099609375,-0.014923095703125
1773790155543017000,4.338016845703125,-0.996307373046875,0.0008697509765625,-0.0148468017578125
1773790155564230000,4.35922998046875,-0.9963531494140625,0.0020599365234375,-0.015625
1773790155584194000,4.379194091796875,-0.995361328125,0.002044677734375,-0.0149383544921875
1773790155604158000,4.399157958984375,-0.9956817626953125,0.00164794921875,-0.013702392578125
1773790155624121900,4.419121826171875,-0.99676513671875,0.0014801025390625,-0.0143280029296875
1773790155644085000,4.4390849609375,-0.9954071044921875,0.000885009765625,-0.014404296875
1773790155664049000,4.459048828125,-0.99554443359375,0.0031280517578125,-0.01434326171875
1773790155684012800,4.4790126953125,-0.9961395263671875,0.00128173828125,-0.01422119140625
1773790155703977000,4.49897705078125,-0.9967193603515625,0.0012969970703125,-0.015777587890625
1773790155723941000,4.518941162109375,-0.995880126953125,0.001312255859375,-0.014862060546875
1773790155743905000,4.538905029296875,-0.9955902099609375,0.0005035400390625,-0.0145721435546875
1773790155763869000,4.558868896484375,-0.995697021484375,0.0016937255859375,-0.0153045654296875
1773790155783833000,4.5788330078125,-0.9948272705078125,0.001556396484375,-0.0141448974609375
1773790155803797000,4.598796875,-0.996246337890625,0.001953125,-0.0138397216796875
1773790155823761000,4.618760986328125,-0.9955902099609375,0.0019989013671875,-0.0144805908203125
1773790155843725000,4.63872509765625,-0.995697021484375,0.00152587890625,-0.01568603515625
1773790155863688000,4.65868798828125,-0.994842529296875,0.00213623046875,-0.01513671875
1773790155883652000,4.678652099609375,-0.995819091796875,0.0019683837890625,-0.0146942138671875
1773790155903616000,4.698615966796875,-0.996246337890625,0.0015716552734375,-0.0143890380859375
1773790155923580000,4.718579833984375,-0.9958648681640625,0.001220703125,-0.014739990234375
1773790155943543800,4.738543701171875,-0.9945068359375,0.0023193359375,-0.014892578125
1773790155963508000,4.758508056640625,-0.9959564208984375,0.001251220703125,-0.0145263671875
1773790155983471900,4.778471923828125,-0.9962158203125,0.002197265625,-0.0140838623046875
1773790156003436000,4.79843603515625,-0.9966888427734375,0.0030670166015625,-0.0153656005859375
1773790156023399000,4.81839892578125,-0.995269775390625,0.002044677734375,-0.01593017578125
1773790156043363000,4.838363037109375,-0.9968414306640625,0.0012054443359375,-0.0140228271484375
1773790156063327000,4.858326904296875,-0.9953460693359375,0.0019073486328125,-0.0146636962890625
1773790156083291100,4.878291015625,-0.9957122802734375,0.0020904541015625,-0.01397705078125
1773790156103255000,4.898255126953125,-0.9971160888671875,0.001068115234375,-0.0150604248046875
1773790156123219000,4.918218994140625,-0.995574951171875,0.0018768310546875,-0.0154876708984375
1773790156143183000,4.93818310546875,-0.9951934814453125,0.0014190673828125,-0.014923095703125
1773790156163147000,4.95814697265625,-0.995819091796875,0.0020599365234375,-0.0145263671875
1773790156183111000,4.97811083984375,-0.9944305419921875,0.0019073486328125,-0.0151214599609375
1773790156203074800,4.99807470703125,-0.995208740234375,0.001251220703125,-0.0147857666015625
1773790156223038000,5.018037841796875,-0.9952239990234375,0.00152587890625,-0.0137176513671875
1773790156243001900,5.038001953125,-0.9959259033203125,0.0010223388671875,-0.01568603515625
1773790156262966000,5.057966064453125,-0.995819091796875,0.001800537109375,-0.016204833984375
1773790156282930000,5.077929931640625,-0.9948577880859375,0.0010528564453125,-0.0150909423828125
1773790156302893800,5.097893798828125,-0.9962615966796875,0.0009765625,-0.01434326171875
1773790156322858000,5.11785791015625,-0.9961395263671875,0.0012969970703125,-0.015228271484375
1773790156342822100,5.137822265625,-0.99468994140625,0.0006103515625,-0.0155487060546875
1773790156362786000,5.1577861328125,-0.996002197265625,0.0021820068359375,-0.0145263671875
1773790156382750000,5.17775,-0.9960784912109375,0.0007781982421875,-0.01507568359375
1773790156402714400,5.19771435546875,-0.9956512451171875,0.0029144287109375,-0.0150299072265625
1773790156422678300,5.21767822265625,-0.9946441650390625,0.0016632080078125,-0.0149078369140625
1773790156442641200,5.23764111328125,-0.99713134765625,0.0012359619140625,-0.0148162841796875
1773790156462605300,5.257605224609375,-0.9966583251953125,0.00115966796875,-0.0143585205078125
1773790156482569200,5.2775693359375,-0.9952545166015625,0.00189208984375,-0.015380859375
1773790156502533000,5.297533203125,-0.995086669921875,0.0015411376953125,-0.015045166015625
1773790156522497300,5.317497314453125,-0.9958038330078125,0.0007171630859375,-0.0153656005859375
1773790156542461200,5.337461181640625,-0.9969329833984375,0.0020751953125,-0.014190673828125
1773790156562425000,5.357425048828125,-0.9939727783203125,0.0018310546875,-0.014862060546875
1773790156582389000,5.377388916015625,-0.99609375,0.00177001953125,-0.01544189453125
1773790156602353200,5.397353271484375,-0.994964599609375,0.0012969970703125,-0.0149688720703125
1773790156622317000,5.417317138671875,-0.995635986328125,0.000579833984375,-0.014312744140625
1773790156642280200,5.4372802734375,-0.9953155517578125,0.001312255859375,-0.01470947265625
1773790156662244000,5.457244140625,-0.9959564208984375,0.0019989013671875,-0.0149078369140625
1773790156682208000,5.4772080078125,-0.99462890625,0.00189208984375,-0.01519775390625
1773790156702172200,5.497172119140625,-0.99609375,0.002410888671875,-0.0146331787109375
1773790156722136300,5.51713623046875,-0.99530029296875,0.00030517578125,-0.014617919921875
1773790156742100200,5.537100341796875,-0.995361328125,0.0018310546875,-0.0138702392578125
1773790156762064100,5.557064208984375,-0.9962310791015625,0.000823974609375,-0.0159759521484375
1773790156782028300,5.5770283203125,-0.996337890625,0.001739501953125,-0.0158233642578125
1773790156801992200,5.5969921875,-0.9957122802734375,0.0011749267578125,-0.015106201171875
1773790156821955300,5.616955322265625,-0.995849609375,0.002197265625,-0.01568603515625
1773790156841919200,5.636919189453125,-0.9968109130859375,0.0019378662109375,-0.0157928466796875
1773790156861883100,5.656883056640625,-0.995330810546875,0.000885009765625,-0.015472412109375
1773790156881847000,5.676846923828125,-0.9958953857421875,0.0011749267578125,-0.0146484375
1773790156901811200,5.696811279296875,-0.9961395263671875,0.0018768310546875,-0.0139007568359375
1773790156921775000,5.716775146484375,-0.9958648681640625,0.000518798828125,-0.0150146484375
1773790156941739000,5.736739013671875,-0.9964599609375,0.0012969970703125,-0.014068603515625
1773790156961703200,5.756703125,-0.996124267578125,0.001983642578125,-0.015289306640625
1773790156981667000,5.7766669921875,-0.996826171875,-0.0001373291015625,-0.0140838623046875
1773790157001631200,5.79663134765625,-0.9965972900390625,0.001312255859375,-0.0139312744140625
1773790157021594000,5.816593994140625,-0.9954986572265625,0.0021209716796875,-0.014984130859375
1773790157041558300,5.836558349609375,-0.99542236328125,0.0022735595703125,-0.0135955810546875
1773790157061522200,5.856522216796875,-0.9952392578125,0.001739501953125,-0.0149993896484375
1773790157081486300,5.876486328125,-0.99664306640625,0.002410888671875,-0.0155487060546875
1773790157101450200,5.8964501953125,-0.9950408935546875,0.0017547607421875,-0.015106201171875
1773790157121414100,5.9164140625,-0.996307373046875,0.001617431640625,-0.015625
1773790157141378000,5.9363779296875,-0.996246337890625,0.0028839111328125,-0.0151824951171875
1773790157161342200,5.95634228515625,-0.9958648681640625,0.0016632080078125,-0.0154571533203125
1773790157181306000,5.97630615234375,-0.996429443359375,0.002838134765625,-0.0146331787109375
1773790157201270000,5.99627001953125,-0.995025634765625,0.00115966796875,-0.014678955078125
1773790157221233200,6.016233154296875,-0.995025634765625,0.0015869140625,-0.0151519775390625
1773790157241197000,6.036197021484375,-0.9955596923828125,0.0016937255859375,-0.0154876708984375
1773790157261161200,6.0561611328125,-0.996429443359375,0.0026397705078125,-0.0155487060546875
1773790157281125000,6.076125,-0.9954986572265625,0.00189208984375,-0.0146484375
1773790157301089000,6.096089111328125,-0.9961090087890625,0.00201416015625,-0.014190673828125
1773790157321053700,6.1160537109375,-0.9951629638671875,0.0018768310546875,-0.0144195556640625
1773790157341017600,6.136017578125,-0.9959869384765625,0.001617431640625,-0.0151214599609375
1773790157360981800,6.155981689453125,-0.995819091796875,0.0008392333984375,-0.015655517578125
1773790157380945700,6.175945556640625,-0.996795654296875,0.00103759765625,-0.013916015625
1773790157400908800,6.19590869140625,-0.996917724609375,0.00213623046875,-0.0146331787109375
1773790157420872700,6.215872802734375,-0.99359130859375,0.0024566650390625,-0.0146331787109375
1773790157440836600,6.235836669921875,-0.9962615966796875,0.002532958984375,-0.01507568359375
1773790157460800800,6.25580078125,-0.995880126953125,0.0013580322265625,-0.0153350830078125
1773790157480764700,6.2757646484375,-0.9958343505859375,0.0021514892578125,-0.01458740234375
1773790157500728800,6.295728759765625,-0.9945831298828125,0.000946044921875,-0.014892578125
1773790157520692700,6.315692626953125,-0.99481201171875,0.00164794921875,-0.015045166015625
1773790157540657000,6.335656982421875,-0.9951629638671875,0.0014190673828125,-0.014556884765625
1773790157560620800,6.355620849609375,-0.9963226318359375,0.0024566650390625,-0.0151519775390625
1773790157580584000,6.375583984375,-0.9953765869140625,0.0026397705078125,-0.01513671875
1773790157600547800,6.3955478515625,-0.995635986328125,0.0012359619140625,-0.014434814453125
1773790157620511700,6.41551171875,-0.9955596923828125,0.0018463134765625,-0.0156097412109375
1773790157640475600,6.4354755859375,-0.9957122802734375,0.0013275146484375,-0.0144195556640625
1773790157660439800,6.455439697265625,-0.99578857421875,0.0018463134765625,-0.0151824951171875
1773790157680403700,6.47540380859375,-0.996337890625,0.0010223388671875,-0.014373779296875
1773790157700367600,6.49536767578125,-0.995941162109375,0.0015106201171875,-0.0150604248046875
1773790157720331800,6.515331787109375,-0.995269775390625,0.0025482177734375,-0.014190673828125
1773790157740295700,6.535295654296875,-0.9962921142578125,0.0005035400390625,-0.01513671875
1773790157760258600,6.555258544921875,-0.9959716796875,0.00213623046875,-0.0142822265625
1773790157780222700,6.57522265625,-0.99664306640625,0.0017852783203125,-0.01495361328125
1773790157800186600,6.5951865234375,-0.995697021484375,0.0015106201171875,-0.01385498046875
1773790157820150500,6.615150634765625,-0.9959564208984375,0.001007080078125,-0.01507568359375
1773790157840115000,6.635114990234375,-0.9958648681640625,0.002349853515625,-0.015380859375
1773790157860078800,6.655078857421875,-0.9957275390625,0.001983642578125,-0.015289306640625
1773790157880042800,6.675042724609375,-0.9960784912109375,0.0007476806640625,-0.0156097412109375
1773790157900006700,6.695006591796875,-0.9960479736328125,0.0020904541015625,-0.013763427734375
1773790157919970800,6.714970703125,-0.99676513671875,0.001495361328125,-0.0150146484375
1773790157939933700,6.73493359375,-0.994781494140625,0.0023193359375,-0.014739990234375
1773790157959897900,6.75489794921875,-0.9960174560546875,0.001708984375,-0.0154571533203125
1773790157979861800,6.77486181640625,-0.9958038330078125,0.0017852783203125,-0.0157470703125
1773790157999825700,6.79482568359375,-0.9967498779296875,0.0016326904296875,-0.0146026611328125
1773790158019789600,6.81478955078125,-0.9957733154296875,0.003387451171875,-0.0142669677734375
1773790158039753700,6.834753662109375,-0.99517822265625,0.0026092529296875,-0.0150604248046875
1773790158059717600,6.854717529296875,-0.9956512451171875,0.00103759765625,-0.014923095703125
1773790158079681500,6.874681640625,-0.995513916015625,0.00189208984375,-0.0151519775390625
1773790158099644700,6.894644775390625,-0.995697021484375,0.0018463134765625,-0.015411376953125
1773790158119608600,6.914608642578125,-0.99609375,0.0024566650390625,-0.0140380859375
1773790158139572700,6.93457275390625,-0.9959564208984375,0.0016326904296875,-0.014617919921875
1773790158159537000,6.954536865234375,-0.9970550537109375,0.001007080078125,-0.0141754150390625
1773790158179500800,6.974500732421875,-0.994537353515625,0.0018768310546875,-0.0152740478515625
1773790158199464700,6.994464599609375,-0.996673583984375,0.001800537109375,-0.013824462890625
1773790158219428900,7.014428955078125,-0.9955902099609375,0.0016021728515625,-0.01470947265625
1773790158239392800,7.034392822265625,-0.9949188232421875,0.001129150390625,-0.014556884765625
1773790158259356700,7.054356689453125,-0.9957122802734375,0.0011749267578125,-0.0160064697265625
1773790158279319800,7.07431982421875,-0.9963226318359375,0.0017242431640625,-0.0150299072265625
1773790158299283700,7.09428369140625,-0.9955291748046875,0.0013427734375,-0.015350341796875
1773790158319247400,7.114247314453125,-0.9959716796875,0.001434326171875,-0.01416015625
1773790158339211500,7.13421142578125,-0.99554443359375,0.0022430419921875,-0.0152130126953125
1773790158359175400,7.154175537109375,-0.996337890625,0.001434326171875,-0.0153961181640625
1773790158379139300,7.174139404296875,-0.994415283203125,0.0009002685546875,-0.0142974853515625
1773790158399103500,7.194103515625,-0.996795654296875,0.00189208984375,-0.01507568359375
1773790158419067400,7.2140673828125,-0.995086669921875,0.00238037109375,-0.01513671875
1773790158439031300,7.23403125,-0.9959564208984375,0.002044677734375,-0.01495361328125
1773790158458994400,7.253994384765625,-0.9955902099609375,0.0023040771484375,-0.0145263671875
1773790158478958300,7.273958251953125,-0.995941162109375,0.0015716552734375,-0.01483154296875
1773790158498922500,7.293922607421875,-0.995758056640625,0.00091552734375,-0.0150146484375
1773790158518886700,7.31388671875,-0.9956512451171875,0.0012054443359375,-0.0151519775390625
1773790158538850600,7.3338505859375,-0.9963836669921875,0.002166748046875,-0.0139617919921875
1773790158558814500,7.353814453125,-0.9953765869140625,0.0012969970703125,-0.0146484375
1773790158578778600,7.373778564453125,-0.9965057373046875,0.0016326904296875,-0.01495361328125
1773790158598742500,7.393742431640625,-0.995941162109375,0.00146484375,-0.014617919921875
1773790158618705400,7.413705322265625,-0.9951171875,0.00115966796875,-0.01531982421875
1773790158638669600,7.433669677734375,-0.995941162109375,0.0020751953125,-0.014862060546875
1773790158658633500,7.453633544921875,-0.995269775390625,0.002349853515625,-0.015045166015625
1773790158678597400,7.473597412109375,-0.9957427978515625,0.0009918212890625,-0.0148773193359375
1773790158698561500,7.4935615234375,-0.99566650390625,0.001556396484375,-0.0153350830078125
1773790158718525400,7.513525390625,-0.9945220947265625,0.001617431640625,-0.0147857666015625
1773790158738489300,7.5334892578125,-0.9968414306640625,0.0012054443359375,-0.01385498046875
1773790158758453200,7.553453369140625,-0.9950714111328125,0.00189208984375,-0.0151824951171875
1773790158778416400,7.57341650390625,-0.995574951171875,0.0008087158203125,-0.0147552490234375
1773790158798380300,7.59338037109375,-0.9950408935546875,0.0011444091796875,-0.014556884765625
1773790158818344700,7.6133447265625,-0.99560546875,0.000885009765625,-0.015716552734375
1773790158838308600,7.63330859375,-0.9949951171875,0.0018157958984375,-0.0156097412109375
1773790158858272500,7.6532724609375,-0.995086669921875,0.0024261474609375,-0.0143280029296875
1773790158878236400,7.673236328125,-0.9957427978515625,0.0027313232421875,-0.015167236328125
1773790158898200600,7.69320068359375,-0.9956512451171875,0.001922607421875,-0.0140228271484375
1773790158918164500,7.71316455078125,-0.99462890625,0.0012054443359375,-0.015472412109375
1773790158938127600,7.733127685546875,-0.9952850341796875,0.0037841796875,-0.01483154296875
1773790158958091500,7.753091552734375,-0.994781494140625,0.0020751953125,-0.014923095703125
1773790158978055400,7.773055419921875,-0.996673583984375,0.001861572265625,-0.01483154296875
1773790158998019600,7.79301953125,-0.9946136474609375,0.0014190673828125,-0.015045166015625
1773790159017983500,7.8129833984375,-0.99658203125,0.00128173828125,-0.0161285400390625
1773790159037947400,7.832947509765625,-0.995208740234375,0.00274658203125,-0.0144805908203125
1773790159057911300,7.852911376953125,-0.9957427978515625,0.001708984375,-0.0145416259765625
1773790159077875500,7.87287548828125,-0.9950408935546875,0.0011138916015625,-0.014892578125
1773790159097839600,7.892839599609375,-0.996063232421875,0.0008697509765625,-0.01519775390625
1773790159117802500,7.912802490234375,-0.995513916015625,0.002044677734375,-0.014373779296875
1773790159137766700,7.9327666015625,-0.995880126953125,0.0008544921875,-0.0154571533203125
1773790159157730600,7.95273046875,-0.9952392578125,0.000579833984375,-0.014312744140625
1773790159177694500,7.972694580078125,-0.9953155517578125,0.001678466796875,-0.015655517578125
1773790159197658600,7.99265869140625,-0.9956512451171875,0.0009918212890625,-0.014862060546875
1773790159217622500,8.01262255859375,-0.9956207275390625,0.002716064453125,-0.0153961181640625
1773790159237586400,8.03258642578125,-0.995086669921875,0.0017547607421875,-0.014984130859375
1773790159257550600,8.052550537109376,-0.995330810546875,0.0019378662109375,-0.01434326171875
1773790159277513500,8.072513427734375,-0.9959869384765625,0.00238037109375,-0.0158538818359375
1773790159297477400,8.092477294921874,-0.9947967529296875,0.0016937255859375,-0.0151214599609375
1773790159317441500,8.112441650390625,-0.9951019287109375,0.0015411376953125,-0.0154571533203125
1773790159337406000,8.132406005859375,-0.9952239990234375,0.0016326904296875,-0.015350341796875
1773790159357369900,8.152369873046876,-0.9958953857421875,0.0023040771484375,-0.0146484375
1773790159377333800,8.172333740234375,-0.99591064453125,0.001495361328125,-0.0158233642578125
1773790159397298000,8.1922978515625,-0.9954986572265625,0.0021514892578125,-0.01513671875
1773790159417261800,8.21226171875,-0.99560546875,0.0016021728515625,-0.014556884765625
1773790159437225000,8.232224853515625,-0.9952239990234375,0.001556396484375,-0.01605224609375
1773790159457188900,8.25218896484375,-0.995941162109375,0.00042724609375,-0.0144500732421875
1773790159477152800,8.27215283203125,-0.9953460693359375,0.00177001953125,-0.0144805908203125
1773790159497117000,8.292116943359375,-0.995452880859375,0.0013885498046875,-0.01531982421875
1773790159517080800,8.312080810546876,-0.9960479736328125,0.000762939453125,-0.014190673828125
1773790159537044700,8.332044677734375,-0.995574951171875,0.0023956298828125,-0.01605224609375
1773790159558257000,8.3532568359375,-0.995147705078125,0.0017547607421875,-0.0147705078125
1773790159578220800,8.373220703125,-0.99560546875,0.0017852783203125,-0.0148468017578125
1773790159598184000,8.393183837890625,-0.996368408203125,0.0018463134765625,-0.014678955078125
1773790159618147800,8.41314794921875,-0.9962005615234375,0.0012054443359375,-0.0148773193359375
1773790159638111700,8.43311181640625,-0.9945526123046875,0.0015411376953125,-0.0150909423828125
1773790159658076000,8.453075927734375,-0.9954376220703125,0.0017852783203125,-0.015106201171875
1773790159678039800,8.473039794921876,-0.9955596923828125,0.002349853515625,-0.015350341796875
1773790159698003700,8.493003662109375,-0.9954986572265625,0.0015716552734375,-0.01470947265625
1773790159717968000,8.5129677734375,-0.9951629638671875,0.0025177001953125,-0.0153350830078125
1773790159737930800,8.5329306640625,-0.99627685546875,0.00079345703125,-0.0158538818359375
1773790159757894700,8.552894775390625,-0.99603271484375,0.0017547607421875,-0.0152740478515625
1773790159777859000,8.572859130859374,-0.99615478515625,0.0006103515625,-0.0148773193359375
1773790159797823000,8.592822998046875,-0.9949493408203125,0.0016326904296875,-0.0152130126953125
1773790159817787000,8.612786865234375,-0.996185302734375,0.0024566650390625,-0.0144805908203125
1773790159837750800,8.632750732421876,-0.99609375,0.002655029296875,-0.01416015625
1773790159857715000,8.65271484375,-0.9962615966796875,0.00140380859375,-0.0145721435546875
1773790159877678800,8.672678955078124,-0.9952392578125,0.0014190673828125,-0.0146942138671875
1773790159897642000,8.69264208984375,-0.9968414306640625,0.0011444091796875,-0.01544189453125
1773790159917606000,8.71260595703125,-0.995330810546875,0.002349853515625,-0.0150299072265625
1773790159937569800,8.73256982421875,-0.9956817626953125,0.001007080078125,-0.015838623046875
1773790159957534000,8.752533935546875,-0.9949493408203125,0.001190185546875,-0.014373779296875
1773790159977497900,8.772497802734375,-0.99554443359375,0.0011444091796875,-0.0149688720703125
1773790159997461800,8.792461669921876,-0.9973602294921875,0.0017547607421875,-0.0150146484375
1773790160017425000,8.8124248046875,-0.996246337890625,0.002197265625,-0.0151519775390625
1773790160037388800,8.832388916015624,-0.9972076416015625,0.002288818359375,-0.0150146484375
1773790160057352700,8.852352783203125,-0.994232177734375,0.002105712890625,-0.014984130859375
1773790160077316900,8.87231689453125,-0.995697021484375,0.0012054443359375,-0.01446533203125
1773790160097280800,8.89228076171875,-0.99566650390625,0.0019683837890625,-0.015289306640625
1773790160117245000,8.912244873046875,-0.99609375,0.00152587890625,-0.0143280029296875
1773790160137208800,8.932208740234374,-0.9967041015625,0.00225830078125,-0.015106201171875
1773790160157172000,8.952171875,-0.994598388671875,0.0020751953125,-0.0153961181640625
1773790160177135900,8.972135986328125,-0.9950408935546875,0.0024261474609375,-0.01483154296875
1773790160197100000,8.99210009765625,-0.996337890625,0.001617431640625,-0.013916015625
1773790160217064000,9.01206396484375,-0.9969482421875,0.0020294189453125,-0.0144195556640625
1773790160237027800,9.03202783203125,-0.996246337890625,0.0028533935546875,-0.01470947265625
1773790160256991700,9.05199169921875,-0.9954071044921875,0.0022735595703125,-0.0141143798828125
1773790160276956000,9.071955810546875,-0.9948577880859375,0.0010528564453125,-0.014801025390625
1773790160296919800,9.091919921875,-0.995880126953125,0.001129150390625,-0.0144500732421875
1773790160316883000,9.111883056640625,-0.9954376220703125,0.0018768310546875,-0.0152435302734375
1773790160336846000,9.13184619140625,-0.9942474365234375,0.0011138916015625,-0.01593017578125
1773790160356810000,9.15181005859375,-0.99530029296875,0.0019378662109375,-0.0148468017578125
1773790160376774100,9.171774169921875,-0.995208740234375,0.0005035400390625,-0.014495849609375
1773790160396738000,9.191738037109374,-0.9939117431640625,0.0005950927734375,-0.015106201171875
1773790160416702000,9.211701904296875,-0.9951629638671875,0.0008544921875,-0.013427734375
1773790160436666000,9.231666015625,-0.995452880859375,0.00054931640625,-0.01434326171875
1773790160456629000,9.25162890625,-0.997283935546875,0.000732421875,-0.0151824951171875
1773790160476593000,9.271593017578125,-0.9971466064453125,0.0014495849609375,-0.014678955078125
1773790160496557000,9.29155712890625,-0.9948883056640625,0.0020294189453125,-0.01434326171875
1773790160516521200,9.311521240234375,-0.9958953857421875,0.00146484375,-0.0157470703125
1773790160536485000,9.331485107421875,-0.9941864013671875,0.002166748046875,-0.015655517578125
1773790160556449300,9.35144921875,-0.9962005615234375,0.0030364990234375,-0.0147247314453125
1773790160576413200,9.3714130859375,-0.9959259033203125,0.0001068115234375,-0.0155487060546875
1773790160596377000,9.391377197265625,-0.99462890625,0.0021514892578125,-0.0146331787109375
1773790160616340200,9.41134033203125,-0.9959564208984375,0.0019378662109375,-0.0145263671875
1773790160636304100,9.43130419921875,-0.996490478515625,0.0012359619140625,-0.013824462890625
1773790160656268000,9.45126806640625,-0.9946441650390625,0.001861572265625,-0.0141143798828125
1773790160676232200,9.471232177734375,-0.9964447021484375,0.00189208984375,-0.0149993896484375
1773790160696196000,9.491196044921875,-0.9957275390625,0.0020599365234375,-0.0148162841796875
1773790160716160000,9.511159912109376,-0.9962921142578125,0.002532958984375,-0.0158538818359375
1773790160736124200,9.531124267578125,-0.995758056640625,0.002105712890625,-0.015106201171875
1773790160756087000,9.551087158203124,-0.995513916015625,0.00177001953125,-0.0149078369140625
1773790160776051000,9.571051025390625,-0.9954833984375,0.0020599365234375,-0.01593017578125
1773790160796015000,9.59101513671875,-0.9952392578125,0.0023345947265625,-0.014892578125
1773790160815979000,9.61097900390625,-0.99658203125,0.0019378662109375,-0.016204833984375
1773790160835943200,9.630943115234375,-0.9966888427734375,0.00152587890625,-0.015533447265625
1773790160855907300,9.6509072265625,-0.994842529296875,0.00213623046875,-0.013031005859375
1773790160875871200,9.670871337890626,-0.9946746826171875,0.0010986328125,-0.0146331787109375
1773790160895835100,9.690835205078125,-0.9962921142578125,0.0024566650390625,-0.01519775390625
1773790160915798300,9.71079833984375,-0.996856689453125,0.001373291015625,-0.014129638671875
1773790160935762200,9.73076220703125,-0.99517822265625,0.0015106201171875,-0.0147552490234375
1773790160955726000,9.75072607421875,-0.995452880859375,0.001312255859375,-0.015869140625
1773790160975690200,9.770690185546876,-0.9963836669921875,0.0018310546875,-0.01422119140625
1773790160995654100,9.790654052734375,-0.9952850341796875,0.001068115234375,-0.0150909423828125
1773790161015618000,9.8106181640625,-0.9946136474609375,0.00177001953125,-0.014068603515625
1773790161035582000,9.83058203125,-0.9953765869140625,0.0029144287109375,-0.014434814453125
1773790161055545000,9.850545166015625,-0.9964447021484375,0.0017547607421875,-0.0135650634765625
1773790161075509000,9.870509033203126,-0.995391845703125,0.0021820068359375,-0.0145416259765625
1773790161095473200,9.89047314453125,-0.995147705078125,0.00091552734375,-0.0147247314453125
1773790161115437000,9.91043701171875,-0.995269775390625,0.0028533935546875,-0.0130462646484375
1773790161135401000,9.93040087890625,-0.9957733154296875,0.001983642578125,-0.015472412109375
1773790161155364900,9.95036474609375,-0.99554443359375,0.0025787353515625,-0.0142669677734375
1773790161175329300,9.970329345703124,-0.9968109130859375,0.0023345947265625,-0.014404296875
1773790161195292000,9.9902919921875,-0.99658203125,0.001251220703125,-0.0153045654296875
1773790161215256300,10.01025634765625,-0.99566650390625,0.00140380859375,-0.0142364501953125
1773790161235220200,10.03022021484375,-0.9952545166015625,0.0021209716796875,-0.0154571533203125
1773790161255184100,10.05018408203125,-0.9962615966796875,0.001373291015625,-0.0149993896484375
1773790161275148000,10.07014794921875,-0.9947967529296875,0.002227783203125,-0.0153656005859375
1773790161295112200,10.0901123046875,-0.995574951171875,0.001953125,-0.014739990234375
1773790161315076000,10.110076171875,-0.9974212646484375,0.00152587890625,-0.0155792236328125
1773790161335040800,10.130040771484374,-0.99505615234375,0.0025634765625,-0.0153045654296875
1773790161355004000,10.15000390625,-0.994842529296875,0.001251220703125,-0.014862060546875
1773790161374967800,10.1699677734375,-0.997039794921875,0.002227783203125,-0.0140533447265625
1773790161394931700,10.189931640625,-0.9940338134765625,0.0016021728515625,-0.01434326171875
1773790161414895900,10.209895751953125,-0.9960784912109375,0.00250244140625,-0.0151519775390625
1773790161434859800,10.22985986328125,-0.996307373046875,0.0010986328125,-0.0134429931640625
1773790161454824000,10.249823974609376,-0.995849609375,0.0014801025390625,-0.01385498046875
1773790161474787800,10.269787841796875,-0.996002197265625,0.0016021728515625,-0.014312744140625
1773790161494750700,10.289750732421876,-0.9958953857421875,0.00244140625,-0.0137939453125
1773790161514715000,10.30971484375,-0.9962005615234375,0.0020904541015625,-0.0156707763671875
1773790161534679000,10.329678955078125,-0.995880126953125,0.0015716552734375,-0.0150146484375
1773790161554643000,10.349642822265626,-0.99462890625,0.0017852783203125,-0.015350341796875
1773790161574606800,10.36960693359375,-0.9950714111328125,0.0016632080078125,-0.015594482421875
1773790161594570800,10.38957080078125,-0.99542236328125,0.00311279296875,-0.015350341796875
1773790161614535000,10.409534912109375,-0.9971923828125,0.0031280517578125,-0.0157928466796875
1773790161634497800,10.429497802734375,-0.99658203125,0.00140380859375,-0.01446533203125
1773790161654462000,10.4494619140625,-0.9971466064453125,0.001312255859375,-0.0151519775390625
1773790161674425900,10.46942578125,-0.99609375,0.0025634765625,-0.0148468017578125
1773790161694389800,10.4893896484375,-0.99462890625,0.0010528564453125,-0.0140228271484375
1773790161714354000,10.50935400390625,-0.99591064453125,0.0013427734375,-0.01519775390625
1773790161734317800,10.52931787109375,-0.994873046875,0.0014801025390625,-0.014984130859375
1773790161754281700,10.54928173828125,-0.99493408203125,0.0030059814453125,-0.014495849609375
1773790161774244900,10.569244873046875,-0.99517822265625,0.001373291015625,-0.01513671875
1773790161794208800,10.589208740234374,-0.9939727783203125,0.0021209716796875,-0.0149078369140625
1773790161814172700,10.609172607421876,-0.994873046875,0.001220703125,-0.0159912109375
1773790161834137000,10.62913720703125,-0.9962310791015625,0.0013580322265625,-0.0162353515625
1773790161854101000,10.64910107421875,-0.99652099609375,0.002044677734375,-0.0162200927734375
1773790161874065000,10.66906494140625,-0.996063232421875,0.002655029296875,-0.0146331787109375
1773790161894028800,10.68902880859375,-0.99603271484375,0.0016937255859375,-0.0145416259765625
1773790161913992000,10.708991943359376,-0.995819091796875,0.0014801025390625,-0.0142059326171875
1773790161933955800,10.728955810546875,-0.995849609375,0.001678466796875,-0.01556396484375
1773790161953920000,10.748919921875,-0.994964599609375,0.0019989013671875,-0.0153045654296875
1773790161973884000,10.7688837890625,-0.9969329833984375,0.0018463134765625,-0.0143890380859375
1773790161993847800,10.788847900390625,-0.995391845703125,0.0009613037109375,-0.01495361328125
1773790162013811700,10.808811767578124,-0.9952239990234375,0.002410888671875,-0.0140838623046875
1773790162033775900,10.82877587890625,-0.9954986572265625,0.0017547607421875,-0.014495849609375
1773790162053738800,10.84873876953125,-0.9949951171875,0.0008087158203125,-0.0150909423828125
1773790162073703000,10.868702880859376,-0.99481201171875,0.0025634765625,-0.0146636962890625
1773790162093666800,10.888666748046875,-0.9953765869140625,0.0021209716796875,-0.0157318115234375
1773790162113630700,10.908630615234374,-0.9954833984375,0.0010528564453125,-0.0159149169921875
1773790162133594600,10.9285947265625,-0.9963836669921875,0.00244140625,-0.01556396484375
1773790162153559000,10.94855908203125,-0.996368408203125,0.00201416015625,-0.0144500732421875
1773790162173523000,10.96852294921875,-0.99468994140625,0.0028076171875,-0.01458740234375
1773790162193486000,10.988486083984375,-0.99542236328125,0.001861572265625,-0.0146636962890625
1773790162213450000,11.008449951171874,-0.9961395263671875,0.00115966796875,-0.0146331787109375
1773790162233414000,11.028413818359375,-0.995330810546875,0.0022735595703125,-0.015777587890625
1773790162253377800,11.048377685546875,-0.9953460693359375,0.0022125244140625,-0.0142974853515625
1773790162273342000,11.068342041015624,-0.9959869384765625,0.0017547607421875,-0.0145111083984375
1773790162293305900,11.088305908203125,-0.995269775390625,0.001678466796875,-0.0157012939453125
1773790162313269800,11.108269775390625,-0.9954071044921875,0.0013580322265625,-0.015350341796875
1773790162333232600,11.128232666015625,-0.9961395263671875,0.0015411376953125,-0.0143585205078125
1773790162353196500,11.148196533203125,-0.9963531494140625,0.0018157958984375,-0.016021728515625
1773790162373161000,11.168160888671874,-0.9954986572265625,0.0021820068359375,-0.0143585205078125
1773790162393124900,11.188124755859375,-0.997283935546875,0.0017242431640625,-0.0159912109375
1773790162413088800,11.2080888671875,-0.996612548828125,0.0012664794921875,-0.0159454345703125
1773790162433052700,11.228052734375,-0.9959869384765625,0.001190185546875,-0.0151214599609375
1773790162453016800,11.248016845703125,-0.995086669921875,0.001556396484375,-0.0153656005859375
1773790162472979700,11.267979736328124,-0.99560546875,0.0018768310546875,-0.013702392578125
1773790162492944000,11.28794384765625,-0.9944915771484375,0.003173828125,-0.0156707763671875
1773790162512907800,11.30790771484375,-0.9956207275390625,0.0016632080078125,-0.0141754150390625
1773790162532871700,11.32787158203125,-0.9971466064453125,0.0018768310546875,-0.014312744140625
1773790162552835600,11.347835693359375,-0.9956817626953125,0.0011138916015625,-0.0159454345703125
1773790162572799700,11.3677998046875,-0.994384765625,0.0014801025390625,-0.0143280029296875
1773790162592763600,11.387763671875,-0.995758056640625,0.0015411376953125,-0.0155792236328125
1773790162612726800,11.407726806640625,-0.99530029296875,0.00299072265625,-0.0160980224609375
1773790162632690700,11.427690673828126,-0.9962310791015625,0.0007781982421875,-0.014617919921875
1773790162652654600,11.447654541015625,-0.996795654296875,0.00140380859375,-0.01513671875
1773790162672618800,11.46761865234375,-0.995635986328125,0.0018768310546875,-0.01446533203125
1773790162692583000,11.4875830078125,-0.995361328125,0.00115966796875,-0.0147857666015625
1773790162712546800,11.507546875,-0.9970855712890625,0.00250244140625,-0.0144195556640625
1773790162732510700,11.5275107421875,-0.9951629638671875,0.001068115234375,-0.01507568359375
1773790162752473900,11.547473876953125,-0.9969329833984375,0.0019073486328125,-0.0140838623046875
1773790162772437800,11.567437744140625,-0.9953765869140625,0.0024871826171875,-0.0142822265625
1773790162792401700,11.587401611328126,-0.9952239990234375,0.0016326904296875,-0.015594482421875
1773790162812365800,11.60736572265625,-0.995697021484375,0.001708984375,-0.0148773193359375
1773790162832329700,11.627329833984374,-0.9960174560546875,0.0012969970703125,-0.0152130126953125
1773790162852293600,11.647293701171876,-0.9952392578125,0.0024261474609375,-0.0162506103515625
1773790162872256800,11.6672568359375,-0.9959716796875,0.0015411376953125,-0.015594482421875
1773790162892220700,11.687220703125,-0.9959564208984375,0.0012969970703125,-0.013916015625
1773790162912184800,11.707184814453125,-0.99566650390625,0.002593994140625,-0.0150299072265625
1773790162932148700,11.727148681640625,-0.9964141845703125,0.00140380859375,-0.0157928466796875
1773790162952112600,11.747112548828126,-0.9961395263671875,0.0021820068359375,-0.01513671875
1773790162972076500,11.76707666015625,-0.99542236328125,0.002227783203125,-0.0145111083984375
1773790162992040700,11.787040771484374,-0.99560546875,0.00244140625,-0.0159912109375
1773790163012003600,11.807003662109375,-0.9964752197265625,0.00201416015625,-0.0152435302734375
1773790163031967700,11.8269677734375,-0.99639892578125,0.00164794921875,-0.0146026611328125
1773790163051931600,11.846931640625,-0.9952850341796875,0.001861572265625,-0.014495849609375
1773790163071895800,11.866895751953125,-0.995697021484375,0.0011138916015625,-0.015960693359375
1773790163091859700,11.886859619140624,-0.9950103759765625,0.00225830078125,-0.0150604248046875
1773790163111824000,11.906823974609376,-0.9958953857421875,0.0012054443359375,-0.01458740234375
1773790163131787800,11.926787841796875,-0.9962005615234375,0.0027618408203125,-0.01397705078125
1773790163151751000,11.9467509765625,-0.9955902099609375,0.0022125244140625,-0.0149383544921875
1773790163171714800,11.96671484375,-0.9960174560546875,0.001556396484375,-0.0152740478515625
1773790163191678700,11.9866787109375,-0.995635986328125,0.00146484375,-0.0156402587890625
1773790163211642600,12.006642578125,-0.9950103759765625,0.0023651123046875,-0.014678955078125
1773790163231606800,12.026606689453125,-0.996002197265625,0.002166748046875,-0.0139007568359375
1773790163251570700,12.04657080078125,-0.9949188232421875,0.0030670166015625,-0.0145111083984375
1773790163271533800,12.066533935546875,-0.9962921142578125,0.0019989013671875,-0.01446533203125
1773790163291497700,12.086497802734375,-0.9961700439453125,0.0020904541015625,-0.01483154296875
1773790163311461600,12.106461669921876,-0.995574951171875,0.0009918212890625,-0.0154571533203125
1773790163331425500,12.126425537109375,-0.995208740234375,0.0024566650390625,-0.01470947265625
1773790163351389400,12.146389404296874,-0.9947662353515625,0.002197265625,-0.014739990234375
1773790163371353300,12.166353271484375,-0.9958343505859375,0.0012054443359375,-0.01483154296875
1773790163391317200,12.186317138671875,-0.9976654052734375,0.0024566650390625,-0.015350341796875
1773790163411280400,12.2062802734375,-0.9971923828125,0.0011444091796875,-0.0157012939453125
1773790163431244300,12.226244384765625,-0.9959716796875,0.0027313232421875,-0.015472412109375
1773790163451208700,12.246208740234374,-0.9959564208984375,0.0014801025390625,-0.014984130859375
1773790163471172600,12.266172607421876,-0.9950408935546875,0.0028839111328125,-0.015625
1773790163491136500,12.286136474609375,-0.9957733154296875,0.0013580322265625,-0.0151214599609375
1773790163511100400,12.306100341796874,-0.9959869384765625,0.0015411376953125,-0.0148468017578125
1773790163531064600,12.326064697265625,-0.9959564208984375,0.0018768310546875,-0.0149688720703125
1773790163551027500,12.34602734375,-0.99542236328125,0.0013885498046875,-0.0139312744140625
1773790163570991600,12.36599169921875,-0.9962158203125,0.0010528564453125,-0.0143890380859375
1773790163590955500,12.38595556640625,-0.9954681396484375,0.0025787353515625,-0.0149383544921875
1773790163610919400,12.40591943359375,-0.9965362548828125,0.00213623046875,-0.014801025390625
1773790163630883300,12.42588330078125,-0.996124267578125,0.0024261474609375,-0.0146331787109375
1773790163650847500,12.445847412109375,-0.9959564208984375,0.0016632080078125,-0.015594482421875
1773790163670810400,12.465810302734376,-0.99542236328125,0.0009613037109375,-0.01458740234375
1773790163690774500,12.4857744140625,-0.9962158203125,0.00164794921875,-0.0142364501953125
1773790163710738400,12.505738525390624,-0.9958038330078125,0.0003814697265625,-0.0141448974609375
1773790163730702300,12.525702392578125,-0.996063232421875,0.000762939453125,-0.0140228271484375
1773790163750666500,12.54566650390625,-0.995025634765625,0.002716064453125,-0.0148468017578125
1773790163770630700,12.565630615234374,-0.996917724609375,0.001312255859375,-0.01470947265625
1773790163790594600,12.585594482421875,-0.9951019287109375,0.0018310546875,-0.014556884765625
1773790163810557400,12.605557373046874,-0.995452880859375,0.00201416015625,-0.0146942138671875
1773790163830521600,12.625521484375,-0.996185302734375,0.0018463134765625,-0.0157318115234375
1773790163850485500,12.645485595703125,-0.996429443359375,0.002410888671875,-0.0147247314453125
1773790163870449700,12.66544970703125,-0.9962921142578125,0.0019378662109375,-0.01568603515625
1773790163890413600,12.68541357421875,-0.995147705078125,0.0023345947265625,-0.0142974853515625
1773790163910377500,12.70537744140625,-0.995941162109375,0.0020904541015625,-0.01458740234375
1773790163930340600,12.725340576171876,-0.9955902099609375,0.001495361328125,-0.0149078369140625
1773790163950304500,12.745304443359375,-0.9950103759765625,0.0014801025390625,-0.0149078369140625
1773790163970268400,12.765268310546874,-0.9963226318359375,0.0020294189453125,-0.0156402587890625
1773790163990232600,12.785232666015625,-0.9964141845703125,0.001220703125,-0.0146484375
1773790164010196500,12.805196533203125,-0.9961090087890625,0.002197265625,-0.014251708984375
1773790164030160400,12.825160400390626,-0.995574951171875,0.000823974609375,-0.014862060546875
1773790164050123500,12.84512353515625,-0.9955291748046875,0.0024261474609375,-0.015167236328125
1773790164070087400,12.86508740234375,-0.9975128173828125,0.00238037109375,-0.0144500732421875
1773790164090051300,12.88505126953125,-0.996429443359375,0.001251220703125,-0.014984130859375
1773790164110015500,12.905015380859375,-0.9971923828125,0.0011138916015625,-0.0149688720703125
1773790164129979400,12.9249794921875,-0.99627685546875,0.0005645751953125,-0.0161590576171875
1773790164149943600,12.944943603515625,-0.9954833984375,0.0020904541015625,-0.014617919921875
1773790164169907500,12.964907470703125,-0.9949798583984375,0.001373291015625,-0.01580810546875
1773790164189870600,12.98487060546875,-0.9960479736328125,0.000640869140625,-0.016265869140625
1773790164209834500,13.00483447265625,-0.99578857421875,0.0027923583984375,-0.01470947265625
1773790164229798700,13.024798583984374,-0.9966888427734375,0.00189208984375,-0.01336669921875
1773790164249762600,13.044762451171875,-0.9955596923828125,0.002410888671875,-0.0148773193359375
1773790164269726500,13.0647265625,-0.9959869384765625,0.00152587890625,-0.0140838623046875
1773790164289690400,13.0846904296875,-0.996063232421875,0.002777099609375,-0.0162200927734375
1773790164309653500,13.104653564453125,-0.99432373046875,0.000823974609375,-0.014923095703125
1773790164329617200,13.1246171875,-0.9957122802734375,0.0021209716796875,-0.01422119140625
1773790164349581300,13.144581298828125,-0.9959716796875,0.0016632080078125,-0.0158233642578125
1773790164369545200,13.164545166015625,-0.9951629638671875,0.001739501953125,-0.0150146484375
1773790164389509000,13.184509033203126,-0.9954071044921875,0.00152587890625,-0.015594482421875
1773790164409473300,13.204473388671875,-0.994720458984375,0.001190185546875,-0.0143280029296875
1773790164429436200,13.224436279296874,-0.996612548828125,0.001739501953125,-0.0138702392578125
1773790164449400000,13.244400146484375,-0.9956817626953125,0.001953125,-0.0151519775390625
1773790164469364200,13.2643642578125,-0.996795654296875,0.0029754638671875,-0.014129638671875
1773790164489328000,13.284328125,-0.996124267578125,0.0018157958984375,-0.0150909423828125
1773790164509292000,13.3042919921875,-0.9955596923828125,0.0025482177734375,-0.0150909423828125
1773790164529256200,13.324256103515625,-0.9957122802734375,0.00140380859375,-0.013580322265625
1773790164549219000,13.344218994140626,-0.996490478515625,0.00244140625,-0.0151519775390625
1773790164569183200,13.364183349609375,-0.9963836669921875,0.00152587890625,-0.0150604248046875
1773790164589147100,13.384147216796874,-0.9949798583984375,0.002227783203125,-0.014190673828125
1773790164609111000,13.404111083984375,-0.996795654296875,0.0019989013671875,-0.0156402587890625
1773790164629075000,13.424074951171875,-0.9956512451171875,0.0023193359375,-0.0155181884765625
1773790164649039000,13.4440390625,-0.9971923828125,0.0016021728515625,-0.0152740478515625
1773790164669002000,13.464001953125,-0.996429443359375,0.0024261474609375,-0.01470947265625
1773790164688966100,13.483966064453124,-0.9957733154296875,0.0015411376953125,-0.0147552490234375
1773790164708930300,13.503930419921875,-0.9962921142578125,0.000732421875,-0.0157318115234375
1773790164728894200,13.523894287109375,-0.99542236328125,0.0023040771484375,-0.015045166015625
1773790164748858000,13.543858154296874,-0.9964141845703125,0.00189208984375,-0.0137786865234375
1773790164768822300,13.563822265625,-0.9962310791015625,0.0017547607421875,-0.0155181884765625
1773790164788785200,13.58378515625,-0.9958953857421875,0.0015869140625,-0.013458251953125
1773790164808749300,13.603749267578126,-0.996551513671875,0.0016021728515625,-0.01458740234375
1773790164828713200,13.623713134765625,-0.99676513671875,0.001495361328125,-0.0147552490234375
1773790164848677000,13.643677001953124,-0.9943084716796875,0.0012969970703125,-0.014678955078125
1773790164868641000,13.66364111328125,-0.9955596923828125,0.0018310546875,-0.0146942138671875
1773790164888605200,13.683605224609375,-0.99639892578125,0.000579833984375,-0.0145416259765625
1773790164908568000,13.703568115234376,-0.9966583251953125,0.0025634765625,-0.0138092041015625
1773790164928532200,13.7235322265625,-0.994964599609375,0.0012054443359375,-0.0140380859375
1773790164948496100,13.74349609375,-0.9964141845703125,0.0016632080078125,-0.0158538818359375
1773790164968460000,13.7634599609375,-0.996002197265625,0.0019683837890625,-0.0154876708984375
1773790164988424000,13.783423828125,-0.996185302734375,0.0010986328125,-0.0143280029296875
1773790165008388000,13.80338818359375,-0.9949188232421875,0.0011749267578125,-0.015045166015625
1773790165028351000,13.82335107421875,-0.995635986328125,0.0005645751953125,-0.015045166015625
1773790165048315100,13.843315185546874,-0.9953155517578125,0.0023651123046875,-0.01409912109375
1773790165068279300,13.863279296875,-0.996673583984375,0.0018157958984375,-0.0154266357421875
1773790165088243200,13.8832431640625,-0.9952545166015625,0.0017547607421875,-0.0152587890625
1773790165108207000,13.90320703125,-0.99517822265625,0.001251220703125,-0.0148162841796875
1773790165128171300,13.923171142578125,-0.9966583251953125,0.00213623046875,-0.0145721435546875
1773790165148134100,13.943134033203124,-0.9954681396484375,0.002899169921875,-0.015472412109375
1773790165168098300,13.963098388671876,-0.996307373046875,0.001708984375,-0.0141448974609375
1773790165188062200,13.983062255859375,-0.99639892578125,0.0016937255859375,-0.014190673828125
1773790165208026000,14.003026123046874,-0.9957275390625,0.0022430419921875,-0.015350341796875
1773790165227990300,14.022990234375,-0.9941864013671875,0.0024871826171875,-0.014312744140625
1773790165247954200,14.0429541015625,-0.9956512451171875,0.001708984375,-0.01416015625
1773790165267917000,14.0629169921875,-0.9954833984375,0.0026092529296875,-0.0134735107421875
1773790165287881200,14.082881103515625,-0.9962921142578125,0.0014190673828125,-0.014862060546875
1773790165307845000,14.10284521484375,-0.9944305419921875,0.00140380859375,-0.01446533203125
1773790165327809800,14.122809814453126,-0.996551513671875,0.0015411376953125,-0.0145416259765625
1773790165347773700,14.142773681640625,-0.9967193603515625,0.0024566650390625,-0.0145111083984375
1773790165367737900,14.16273779296875,-0.994537353515625,0.0014190673828125,-0.0157928466796875
1773790165387700700,14.18270068359375,-0.9955596923828125,0.0012359619140625,-0.0147247314453125
1773790165407665000,14.202664794921875,-0.995635986328125,0.0018768310546875,-0.015472412109375
1773790165427628800,14.22262890625,-0.997344970703125,0.000823974609375,-0.0141143798828125
1773790165447592700,14.2425927734375,-0.9953460693359375,0.001983642578125,-0.014678955078125
1773790165467556600,14.262556640625,-0.9961090087890625,0.0018310546875,-0.01470947265625
1773790165487520800,14.282520751953125,-0.995513916015625,0.0023193359375,-0.0146026611328125
1773790165507483600,14.302483642578125,-0.9958343505859375,0.0023651123046875,-0.0149688720703125
1773790165527447800,14.32244775390625,-0.99627685546875,0.001495361328125,-0.014556884765625
1773790165547411700,14.34241162109375,-0.995574951171875,0.0016937255859375,-0.0142974853515625
1773790165567375600,14.362375732421874,-0.9954071044921875,0.0016632080078125,-0.01416015625
1773790165587339800,14.38233984375,-0.99462890625,0.002777099609375,-0.0142364501953125
1773790165607302700,14.402302734375,-0.9958953857421875,0.0019378662109375,-0.0144805908203125
1773790165627266800,14.422266845703126,-0.99615478515625,0.001068115234375,-0.015655517578125
1773790165647231000,14.44223095703125,-0.997100830078125,0.0013580322265625,-0.0160064697265625
1773790165667195000,14.46219482421875,-0.995513916015625,0.001495361328125,-0.0146026611328125
1773790165687158800,14.48215869140625,-0.9965667724609375,0.0006561279296875,-0.0151519775390625
1773790165707122700,14.502122802734375,-0.9950408935546875,0.0012359619140625,-0.01513671875
1773790165727085800,14.5220859375,-0.995697021484375,0.001251220703125,-0.0145416259765625
1773790165747049700,14.5420498046875,-0.99578857421875,0.000946044921875,-0.014678955078125
1773790165767014000,14.562013916015625,-0.9960479736328125,0.00115966796875,-0.015411376953125
1773790165786977800,14.581977783203126,-0.9952392578125,0.001800537109375,-0.01507568359375
1773790165806941700,14.601941650390625,-0.99554443359375,0.0022735595703125,-0.014923095703125
1773790165826905600,14.621905517578124,-0.99560546875,0.00177001953125,-0.0154876708984375
1773790165846868700,14.64186865234375,-0.995147705078125,0.0016632080078125,-0.0153045654296875
1773790165866832600,14.66183251953125,-0.994384765625,0.001983642578125,-0.0146484375
1773790165886796800,14.681796875,-0.996490478515625,0.0012969970703125,-0.0157623291015625
1773790165906760700,14.7017607421875,-0.996612548828125,0.0022735595703125,-0.0157623291015625
1773790165926724600,14.721724609375,-0.9960479736328125,0.001617431640625,-0.0153350830078125
1773790165946687700,14.741687744140625,-0.9960479736328125,0.0010986328125,-0.013946533203125
1773790165966651600,14.761651611328125,-0.9959564208984375,0.0023651123046875,-0.0155029296875
1773790165986615600,14.781615478515626,-0.9955596923828125,0.002105712890625,-0.01495361328125
1773790166006580000,14.801580078125,-0.9960784912109375,0.0030517578125,-0.0151214599609375
1773790166026543900,14.8215439453125,-0.9959564208984375,0.0015106201171875,-0.01458740234375
1773790166046507800,14.8415078125,-0.9957275390625,0.0005035400390625,-0.0148162841796875
1773790166066471000,14.861470947265625,-0.99639892578125,0.0010223388671875,-0.0147857666015625
1773790166086434800,14.881434814453126,-0.9949798583984375,0.002227783203125,-0.0146484375
1773790166106398700,14.901398681640625,-0.9964141845703125,0.002227783203125,-0.0146942138671875
1773790166126363000,14.92136279296875,-0.993927001953125,0.0007781982421875,-0.01446533203125
1773790166146326800,14.941326904296876,-0.9955596923828125,0.0011444091796875,-0.0145416259765625
1773790166166290000,14.9612900390625,-0.995697021484375,0.0015106201171875,-0.01483154296875
1773790166186253800,14.98125390625,-0.99627685546875,0.0009918212890625,-0.0150604248046875
1773790166206217700,15.0012177734375,-0.9945831298828125,0.0023345947265625,-0.0142364501953125
1773790166226181600,15.021181640625,-0.9955291748046875,0.0013275146484375,-0.0144805908203125
1773790166246145800,15.041145751953126,-0.99609375,0.0024871826171875,-0.0139923095703125
1773790166266109700,15.061109619140625,-0.997222900390625,0.0027008056640625,-0.0149688720703125
1773790166286072800,15.08107275390625,-0.9956207275390625,0.002197265625,-0.0143280029296875
1773790166306036700,15.10103662109375,-0.9964752197265625,0.0030364990234375,-0.0153045654296875
1773790166326000600,15.121000732421875,-0.9952850341796875,0.0013580322265625,-0.01483154296875
1773790166345964500,15.140964599609376,-0.99554443359375,0.0025177001953125,-0.014495849609375
1773790166365928400,15.160928466796875,-0.996185302734375,0.001708984375,-0.014984130859375
1773790166385891300,15.180891357421874,-0.9954833984375,0.002166748046875,-0.015289306640625
1773790166405855500,15.20085546875,-0.995849609375,0.0016632080078125,-0.01422119140625
1773790166425819400,15.2208193359375,-0.99591064453125,0.0025787353515625,-0.015045166015625
1773790166445783300,15.240783203125,-0.9965667724609375,0.0015106201171875,-0.014892578125
1773790166465747500,15.26074755859375,-0.99591064453125,0.0016632080078125,-0.0143585205078125
1773790166485710300,15.28071044921875,-0.9956817626953125,0.0027923583984375,-0.01458740234375
1773790166505674200,15.30067431640625,-0.9964447021484375,0.002227783203125,-0.01409912109375
1773790166525638400,15.320638427734375,-0.996734619140625,0.0016937255859375,-0.01495361328125
1773790166545602300,15.340602294921876,-0.9966888427734375,0.002044677734375,-0.0159149169921875
1773790166565566200,15.360566162109375,-0.995849609375,0.001220703125,-0.01458740234375
1773790166585530400,15.3805302734375,-0.9961090087890625,0.0014190673828125,-0.0140228271484375
1773790166605493200,15.4004931640625,-0.99505615234375,0.001739501953125,-0.0146636962890625
1773790166625457400,15.42045751953125,-0.9958343505859375,0.00164794921875,-0.015380859375
1773790166645421300,15.44042138671875,-0.9962005615234375,0.0003509521484375,-0.0149688720703125
1773790166665385200,15.46038525390625,-0.9955596923828125,0.002471923828125,-0.0146331787109375
1773790166685349400,15.480349365234375,-0.9953155517578125,0.0005645751953125,-0.0132598876953125
1773790166705312300,15.500312255859376,-0.994964599609375,0.002105712890625,-0.0153350830078125
1773790166725276400,15.5202763671875,-0.99468994140625,0.00262451171875,-0.01397705078125
1773790166745240600,15.540240478515624,-0.99578857421875,0.002197265625,-0.014862060546875
1773790166765204500,15.56020458984375,-0.9952239990234375,0.00213623046875,-0.01580810546875
1773790166785168400,15.58016845703125,-0.9951171875,0.001800537109375,-0.0138092041015625
1773790166805131500,15.600131591796876,-0.9963836669921875,0.001861572265625,-0.0151519775390625
1773790166825095400,15.620095458984375,-0.995574951171875,0.00250244140625,-0.015411376953125
1773790166845059300,15.640059326171874,-0.996002197265625,0.001739501953125,-0.0155487060546875
1773790166865023500,15.6600234375,-0.99591064453125,0.001068115234375,-0.014617919921875
1773790166884987400,15.6799873046875,-0.9960784912109375,0.0033111572265625,-0.0149078369140625
1773790166904951300,15.699951416015624,-0.9959716796875,0.001373291015625,-0.0151214599609375
1773790166924914400,15.71991455078125,-0.9963226318359375,0.0019378662109375,-0.0138397216796875
1773790166944878300,15.73987841796875,-0.995849609375,0.0014495849609375,-0.0147247314453125
1773790166964842200,15.75984228515625,-0.994354248046875,0.001922607421875,-0.014923095703125
1773790166984806400,15.779806396484375,-0.9960174560546875,0.0011749267578125,-0.0152587890625
1773790167004770300,15.799770263671874,-0.996124267578125,0.0029449462890625,-0.0143585205078125
1773790167024733200,15.819733154296875,-0.9952850341796875,0.0026702880859375,-0.014434814453125
1773790167044697300,15.839697265625,-0.9958038330078125,0.0008392333984375,-0.0154876708984375
1773790167064661200,15.8596611328125,-0.995849609375,0.0024566650390625,-0.01434326171875
1773790167084625200,15.879625244140625,-0.9962158203125,0.0010528564453125,-0.014892578125
1773790167104589600,15.899589599609374,-0.995574951171875,0.003021240234375,-0.014801025390625
1773790167124552200,15.91955224609375,-0.995513916015625,0.0022735595703125,-0.015106201171875
1773790167144516400,15.939516357421875,-0.99481201171875,0.0014190673828125,-0.0155181884765625
1773790167164480500,15.95948046875,-0.9953765869140625,0.00213623046875,-0.0145416259765625
1773790167184444400,15.9794443359375,-0.996368408203125,0.00146484375,-0.0139007568359375
1773790167204408300,15.999408203125,-0.994964599609375,0.00146484375,-0.0139007568359375
1773790167224371500,16.019371337890625,-0.9965972900390625,0.0018463134765625,-0.0141143798828125
1773790167244335400,16.03933544921875,-0.9959716796875,0.0002899169921875,-0.0138092041015625
1773790167264299500,16.059299560546876,-0.9966583251953125,0.0010986328125,-0.01556396484375
1773790167284263400,16.079263427734375,-0.99542236328125,0.0013885498046875,-0.014739990234375
1773790167304227300,16.099227294921874,-0.995880126953125,0.0012664794921875,-0.0154876708984375
1773790167324190500,16.1191904296875,-0.9956512451171875,0.002166748046875,-0.0147857666015625
1773790167344154400,16.139154296875,-0.9956512451171875,0.002227783203125,-0.01416015625
1773790167364118300,16.1591181640625,-0.99578857421875,0.0014801025390625,-0.0156402587890625
1773790167384082400,16.17908251953125,-0.9953765869140625,0.001617431640625,-0.01416015625
1773790167404046300,16.19904638671875,-0.995513916015625,0.00201416015625,-0.014434814453125
1773790167424009200,16.21900927734375,-0.996368408203125,0.001434326171875,-0.0143585205078125
1773790167443973400,16.238973388671877,-0.9965667724609375,0.00091552734375,-0.0146636962890625
1773790167463937300,16.258937255859376,-0.99609375,0.00164794921875,-0.014434814453125
1773790167483901200,16.278901123046875,-0.9963836669921875,0.0013275146484375,-0.015289306640625
1773790167503865300,16.298865234375,-0.995361328125,0.002288818359375,-0.0147247314453125
1773790167523828200,16.318828125,-0.99755859375,0.0012664794921875,-0.014984130859375
1773790167543792000,16.338792236328125,-0.9958038330078125,0.0016326904296875,-0.015380859375
1773790167563756500,16.358756591796876,-0.99603271484375,0.00311279296875,-0.014434814453125
1773790167583720400,16.378720458984375,-0.996185302734375,0.0011749267578125,-0.0157012939453125
1773790167603684400,16.398684326171875,-0.9954681396484375,0.00103759765625,-0.015899658203125
1773790167623647500,16.4186474609375,-0.9955902099609375,0.002716064453125,-0.013916015625
1773790167643611400,16.438611328125,-0.99493408203125,0.001953125,-0.014434814453125
1773790167663575300,16.4585751953125,-0.9958343505859375,0.002471923828125,-0.015472412109375
1773790167683539500,16.47853955078125,-0.996368408203125,0.0022735595703125,-0.0159759521484375
1773790167703503400,16.49850341796875,-0.996734619140625,0.001220703125,-0.0145263671875
1773790167723466500,16.518466552734374,-0.9971771240234375,0.0011444091796875,-0.014678955078125
1773790167743430400,16.538430419921873,-0.995025634765625,0.001434326171875,-0.0138092041015625
1773790167763394300,16.558394287109376,-0.996337890625,0.001983642578125,-0.014495849609375
1773790167783358200,16.578358154296875,-0.9968109130859375,0.00201416015625,-0.01409912109375
1773790167803321300,16.5983212890625,-0.996551513671875,0.001068115234375,-0.0150146484375
1773790167823285200,16.61828515625,-0.994964599609375,0.001251220703125,-0.0143280029296875
1773790167843249400,16.63824951171875,-0.9964447021484375,0.0016021728515625,-0.014007568359375
1773790167863213300,16.65821337890625,-0.995391845703125,0.0027313232421875,-0.0148773193359375
1773790167883177200,16.67817724609375,-0.996246337890625,0.00250244140625,-0.014984130859375
1773790167903140400,16.698140380859375,-0.995758056640625,0.0016021728515625,-0.014312744140625
1773790167923104300,16.718104248046874,-0.9960784912109375,0.0016937255859375,-0.015106201171875
1773790167943068200,16.738068115234373,-0.996063232421875,0.0020904541015625,-0.0135955810546875
1773790167963032300,16.7580322265625,-0.995361328125,0.0019989013671875,-0.0152130126953125
1773790167982996500,16.77799658203125,-0.996307373046875,0.0020599365234375,-0.014923095703125
1773790168002959400,16.79795947265625,-0.9943084716796875,0.0012664794921875,-0.0141754150390625
1773790168022923500,16.817923583984374,-0.9952239990234375,0.003387451171875,-0.0148468017578125
1773790168042887400,16.837887451171873,-0.9964752197265625,0.0019683837890625,-0.01385498046875
1773790168062851300,16.857851318359376,-0.995330810546875,0.0023345947265625,-0.015228271484375
1773790168082815500,16.8778154296875,-0.994964599609375,0.00152587890625,-0.0149993896484375
1773790168102778400,16.8977783203125,-0.9954986572265625,0.001922607421875,-0.01483154296875
1773790168122742500,16.917742431640626,-0.9956207275390625,0.0013580322265625,-0.014404296875
1773790168142706400,16.93770654296875,-0.994842529296875,0.002685546875,-0.0146026611328125
1773790168162670300,16.95767041015625,-0.99664306640625,0.0023956298828125,-0.0152130126953125
1773790168182633500,16.977633544921876,-0.996734619140625,0.0018463134765625,-0.0148773193359375
1773790168202597400,16.997597412109375,-0.9950103759765625,0.0023345947265625,-0.0150146484375
1773790168222561300,17.017561279296874,-0.9979400634765625,0.0017852783203125,-0.01507568359375
1773790168242525400,17.037525390625,-0.996368408203125,0.001617431640625,-0.015228271484375
1773790168262489300,17.0574892578125,-0.995208740234375,0.0028839111328125,-0.0142364501953125
1773790168282452200,17.0774521484375,-0.99615478515625,0.00189208984375,-0.014190673828125
1773790168302416400,17.09741650390625,-0.9968414306640625,0.0015411376953125,-0.0137939453125
1773790168322380300,17.11738037109375,-0.9954986572265625,0.002838134765625,-0.01416015625
1773790168342344200,17.13734423828125,-0.9953765869140625,0.001922607421875,-0.01470947265625
1773790168362308400,17.157308349609377,-0.9949188232421875,0.0007476806640625,-0.0157470703125
1773790168382271200,17.177271240234376,-0.9947052001953125,0.0023956298828125,-0.01556396484375
1773790168402235400,17.1972353515625,-0.996185302734375,0.0023956298828125,-0.0147552490234375
1773790168422199300,17.21719921875,-0.9962158203125,0.001953125,-0.0138397216796875
1773790168442163500,17.23716357421875,-0.9962158203125,0.002593994140625,-0.0150146484375
1773790168462126300,17.257126220703125,-0.996429443359375,0.0020751953125,-0.0149383544921875
1773790168482090500,17.277090576171876,-0.994903564453125,0.0019683837890625,-0.0152130126953125
1773790168502054400,17.297054443359375,-0.9965057373046875,0.0003204345703125,-0.014007568359375
1773790168522018600,17.3170185546875,-0.996826171875,0.002532958984375,-0.01593017578125
1773790168541982500,17.336982421875,-0.9973602294921875,0.001007080078125,-0.0147857666015625
1773790168561945300,17.3569453125,-0.9959564208984375,0.002197265625,-0.0152740478515625
1773790168581909500,17.376909423828124,-0.99609375,0.001953125,-0.015533447265625
1773790168601873400,17.396873291015623,-0.995941162109375,0.0032196044921875,-0.015838623046875
1773790168621837300,17.41683740234375,-0.9956817626953125,0.001129150390625,-0.0153961181640625
1773790168641800400,17.436800537109374,-0.9969024658203125,0.0021820068359375,-0.0154266357421875
1773790168661764400,17.456764404296877,-0.9976348876953125,0.0025177001953125,-0.01556396484375
1773790168681728300,17.476728271484376,-0.9952850341796875,0.001068115234375,-0.01507568359375
1773790168701692400,17.4966923828125,-0.99554443359375,0.0015716552734375,-0.015167236328125
1773790168721656300,17.51665625,-0.9962921142578125,0.0012664794921875,-0.0146331787109375
1773790168741619500,17.536619384765626,-0.9955291748046875,0.00213623046875,-0.01513671875
1773790168761583400,17.556583251953125,-0.99591064453125,0.0022125244140625,-0.0152740478515625
1773790168781547300,17.57654736328125,-0.9962921142578125,0.002197265625,-0.014129638671875
1773790168801511200,17.59651123046875,-0.99664306640625,0.001312255859375,-0.014984130859375
1773790168821475300,17.616475341796875,-0.995330810546875,0.0026397705078125,-0.0159149169921875
1773790168841438200,17.636438232421874,-0.996002197265625,0.002410888671875,-0.01519775390625
1773790168861402400,17.65640234375,-0.994659423828125,0.002166748046875,-0.014495849609375
1773790168881366300,17.6763662109375,-0.99639892578125,0.0016632080078125,-0.0142364501953125
1773790168901330400,17.696330322265624,-0.9954681396484375,0.002349853515625,-0.014129638671875
1773790168921293300,17.716293212890626,-0.9958953857421875,0.0018157958984375,-0.015106201171875
1773790168941257200,17.73625732421875,-0.9961090087890625,0.002349853515625,-0.013916015625
1773790168961221400,17.756221435546873,-0.9954986572265625,0.001617431640625,-0.0154266357421875
1773790168981185500,17.776185546875,-0.9954376220703125,0.0020904541015625,-0.0143890380859375
1773790169001148400,17.7961484375,-0.9960174560546875,0.0013427734375,-0.01416015625
1773790169021112300,17.8161123046875,-0.996337890625,0.0015716552734375,-0.0168914794921875
1773790169041076500,17.836076416015626,-0.996490478515625,0.0025482177734375,-0.01458740234375
1773790169061040400,17.856040283203125,-0.996368408203125,0.0019073486328125,-0.015350341796875
1773790169081004300,17.87600439453125,-0.9957733154296875,0.00067138671875,-0.0148468017578125
1773790169100967400,17.895967529296875,-0.99609375,0.00054931640625,-0.01458740234375
1773790169120931300,17.915931396484375,-0.995269775390625,0.001739501953125,-0.015716552734375
1773790169140895500,17.9358955078125,-0.9958648681640625,0.0025482177734375,-0.015411376953125
1773790169160859400,17.955859375,-0.9954986572265625,0.00128173828125,-0.01446533203125
1773790169180822300,17.975822265625,-0.9954681396484375,0.0015411376953125,-0.0147247314453125
1773790169200786400,17.995786376953124,-0.996337890625,0.0016937255859375,-0.014251708984375
1773790169220750300,18.015750244140627,-0.99725341796875,0.0011444091796875,-0.014373779296875
1773790169240714200,18.03571435546875,-0.9962310791015625,0.000885009765625,-0.0146026611328125
1773790169260678400,18.055678466796873,-0.9969940185546875,0.00128173828125,-0.0142364501953125
1773790169280641300,18.075641357421876,-0.9957733154296875,0.001129150390625,-0.0146636962890625
1773790169300605200,18.095605224609375,-0.9958648681640625,0.0010223388671875,-0.0153350830078125
1773790169320569300,18.1155693359375,-0.9948883056640625,0.0017547607421875,-0.015655517578125
1773790169340534000,18.135533935546874,-0.9954376220703125,0.0024261474609375,-0.01416015625
1773790169360497000,18.155496826171873,-0.9967193603515625,0.0018157958984375,-0.0145263671875
1773790169380461000,18.1754609375,-0.9969024658203125,0.002655029296875,-0.014984130859375
1773790169400425000,18.195425048828124,-0.9961395263671875,0.0022735595703125,-0.0145721435546875
1773790169420388900,18.215388916015623,-0.995361328125,0.001739501953125,-0.014984130859375
1773790169440353000,18.23535302734375,-0.9954376220703125,0.00091552734375,-0.014862060546875
1773790169460316000,18.25531591796875,-0.99578857421875,0.0010528564453125,-0.015777587890625
1773790169480279800,18.27527978515625,-0.9958648681640625,0.00177001953125,-0.013916015625
1773790169500244000,18.295243896484376,-0.9969482421875,0.0025177001953125,-0.0142669677734375
1773790169520208000,18.315207763671875,-0.9953765869140625,0.0025634765625,-0.0137939453125
1773790169540171000,18.3351708984375,-0.99542236328125,0.0016021728515625,-0.015411376953125
1773790169560135000,18.355135009765625,-0.99481201171875,0.0021209716796875,-0.015228271484375
1773790169580098800,18.375098876953125,-0.9963836669921875,0.00042724609375,-0.0158843994140625
1773790169600063000,18.39506298828125,-0.9974365234375,0.00177001953125,-0.014312744140625
1773790169620025900,18.41502587890625,-0.9956817626953125,0.0020751953125,-0.0152435302734375
1773790169639990000,18.434989990234374,-0.996063232421875,0.0022430419921875,-0.0148773193359375
1773790169659954200,18.4549541015625,-0.995758056640625,0.0016326904296875,-0.014068603515625
1773790169679918000,18.47491796875,-0.9965972900390625,0.0023956298828125,-0.014129638671875
1773790169699882000,18.494882080078124,-0.99493408203125,0.0009918212890625,-0.0147247314453125
1773790169719845000,18.51484521484375,-0.9968109130859375,0.001373291015625,-0.0147247314453125
1773790169739809000,18.53480908203125,-0.9963226318359375,0.001922607421875,-0.01507568359375
1773790169759773000,18.55477294921875,-0.9960174560546875,0.0019378662109375,-0.0147705078125
1773790169779737000,18.574737060546877,-0.9968414306640625,0.00103759765625,-0.0147247314453125
1773790169799700000,18.594699951171876,-0.995849609375,0.001617431640625,-0.014801025390625
1773790169819664100,18.6146640625,-0.9951934814453125,0.00177001953125,-0.0150299072265625
1773790169839628000,18.6346279296875,-0.9956207275390625,0.0025634765625,-0.01556396484375
1773790169859592000,18.654592041015626,-0.996185302734375,0.0026397705078125,-0.0146942138671875
1773790169879555000,18.67455517578125,-0.9957122802734375,0.002532958984375,-0.0144195556640625
1773790169899519000,18.69451904296875,-0.9962921142578125,0.0013885498046875,-0.01519775390625
1773790169919483000,18.71448291015625,-0.9962310791015625,0.0010528564453125,-0.015838623046875
1773790169939447000,18.734447021484375,-0.9962005615234375,0.0023193359375,-0.0152587890625
1773790169959411000,18.754410888671874,-0.99554443359375,0.003662109375,-0.0135955810546875
1773790169979373800,18.774373779296877,-0.9952850341796875,0.001739501953125,-0.0146484375
1773790169999338000,18.794337890625,-0.996978759765625,0.00250244140625,-0.0137176513671875
1773790170019302000,18.814302001953124,-0.9962921142578125,0.0012359619140625,-0.0154571533203125
1773790170039265800,18.834265869140626,-0.99615478515625,0.001068115234375,-0.015106201171875
1773790170059229000,18.85422900390625,-0.99591064453125,0.002044677734375,-0.013916015625
1773790170079192800,18.87419287109375,-0.9951171875,0.00103759765625,-0.014556884765625
1773790170099157000,18.894156982421876,-0.9962615966796875,0.0016326904296875,-0.0147247314453125
1773790170119121200,18.91412109375,-0.9967193603515625,0.0026092529296875,-0.0147705078125
1773790170139083800,18.934083740234374,-0.995697021484375,0.0014495849609375,-0.0148162841796875
1773790170159048200,18.954048095703126,-0.9945220947265625,0.002655029296875,-0.0142059326171875
1773790170179012000,18.97401220703125,-0.9953155517578125,0.0017852783203125,-0.014312744140625
1773790170198976000,18.99397607421875,-0.9945068359375,0.002288818359375,-0.0141143798828125
1773790170218940000,19.01393994140625,-0.9965972900390625,0.00006103515625,-0.0144805908203125
1773790170238903000,19.033903076171875,-0.9962158203125,0.0014190673828125,-0.015594482421875
1773790170258867000,19.053866943359374,-0.994964599609375,0.0009307861328125,-0.01531982421875
1773790170278831000,19.0738310546875,-0.995086669921875,0.002471923828125,-0.015228271484375
1773790170298795000,19.093794921875,-0.996002197265625,0.0013885498046875,-0.01446533203125
1773790170318758000,19.1137578125,-0.9960784912109375,0.0017852783203125,-0.015533447265625
1773790170338721300,19.13372119140625,-0.9971160888671875,0.00177001953125,-0.014495849609375
1773790170358685200,19.153685302734374,-0.996002197265625,0.0023956298828125,-0.0145263671875
1773790170378649600,19.173649658203125,-0.996551513671875,0.0017852783203125,-0.0142364501953125
1773790170398613500,19.193613525390624,-0.9961700439453125,0.0023345947265625,-0.014678955078125
1773790170418576100,19.213576171875,-0.994720458984375,0.002044677734375,-0.0145416259765625
1773790170438540500,19.23354052734375,-0.995941162109375,0.0012969970703125,-0.014068603515625
1773790170458504400,19.25350439453125,-0.995452880859375,0.0024871826171875,-0.0152740478515625
1773790170478468400,19.27346826171875,-0.995941162109375,0.00189208984375,-0.0160369873046875
1773790170498431500,19.293431396484376,-0.9954376220703125,0.0007171630859375,-0.0133514404296875
1773790170518395400,19.3133955078125,-0.995025634765625,0.0015869140625,-0.01470947265625
1773790170538359300,19.333359375,-0.9953765869140625,0.002349853515625,-0.0141754150390625
1773790170558323500,19.353323486328126,-0.99639892578125,0.0023193359375,-0.0150299072265625
1773790170578287400,19.373287353515625,-0.9970245361328125,0.0025787353515625,-0.014617919921875
1773790170598250500,19.39325048828125,-0.9958343505859375,0.0022735595703125,-0.0137481689453125
1773790170618214400,19.41321435546875,-0.996978759765625,0.001861572265625,-0.0152587890625
1773790170638178300,19.43317822265625,-0.9947052001953125,0.0014190673828125,-0.0145263671875
1773790170658142200,19.45314208984375,-0.9954071044921875,0.00286865234375,-0.0151824951171875
1773790170678105300,19.473105224609377,-0.995391845703125,0.00177001953125,-0.014068603515625
1773790170698069200,19.4930693359375,-0.9957733154296875,0.001708984375,-0.0148162841796875
1773790170718033400,19.513033447265624,-0.99481201171875,0.00103759765625,-0.0148468017578125
1773790170737997300,19.532997314453127,-0.9958343505859375,0.001861572265625,-0.0145416259765625
1773790170757960200,19.552960205078126,-0.9965057373046875,0.0021514892578125,-0.014373779296875
1773790170777924400,19.57292431640625,-0.9956207275390625,0.0020294189453125,-0.01446533203125
1773790170797888300,19.59288818359375,-0.996246337890625,0.002044677734375,-0.01458740234375
1773790170817852200,19.61285205078125,-0.9950714111328125,0.0009765625,-0.01507568359375
1773790170837815300,19.632815185546875,-0.9964752197265625,0.0013580322265625,-0.0144500732421875
1773790170857779200,19.652779296875,-0.9945220947265625,0.0028533935546875,-0.0142974853515625
1773790170877743400,19.672743408203125,-0.9956817626953125,0.001556396484375,-0.0150146484375
1773790170897707500,19.69270751953125,-0.9965362548828125,0.001861572265625,-0.0153656005859375
1773790170917671400,19.71267138671875,-0.996063232421875,0.002044677734375,-0.0150909423828125
1773790170937634600,19.732634521484375,-0.9960174560546875,0.0017547607421875,-0.0148468017578125
1773790170957598500,19.752598388671874,-0.99481201171875,0.001068115234375,-0.0152130126953125
1773790170977562400,19.772562255859373,-0.994964599609375,0.00250244140625,-0.014678955078125
1773790170997526500,19.792526611328125,-0.9961090087890625,0.0011749267578125,-0.0143890380859375
1773790171017489400,19.812489501953124,-0.9957122802734375,0.0017547607421875,-0.0148162841796875
1773790171037453300,19.832453369140627,-0.9956512451171875,0.0012054443359375,-0.01654052734375
1773790171057417500,19.85241748046875,-0.99664306640625,0.00164794921875,-0.015228271484375
1773790171077381400,19.87238134765625,-0.9957733154296875,0.0014495849609375,-0.01446533203125
1773790171097345300,19.89234521484375,-0.9951934814453125,0.00103759765625,-0.0156707763671875
1773790171117308400,19.912308349609376,-0.9955596923828125,0.001953125,-0.015167236328125
1773790171137272300,19.932272216796875,-0.9947357177734375,0.002044677734375,-0.0147552490234375
1773790171157236200,19.952236328125,-0.9943084716796875,0.0023345947265625,-0.0143280029296875
1773790171177200400,19.972200439453125,-0.9947052001953125,0.001953125,-0.0155029296875
1773790171197163300,19.992163330078125,-0.996063232421875,0.0017547607421875,-0.014129638671875
1773790171217127400,20.01212744140625,-0.995849609375,0.001312255859375,-0.01416015625
1773790171237091300,20.03209130859375,-0.9965057373046875,0.001495361328125,-0.015594482421875
1773790171257055200,20.05205517578125,-0.9949951171875,0.001861572265625,-0.0134429931640625
1773790171277018400,20.072018310546873,-0.9954986572265625,0.0011444091796875,-0.0147552490234375
1773790171296982300,20.091982177734376,-0.9947967529296875,0.0007171630859375,-0.013916015625
1773790171316946200,20.1119462890625,-0.9951934814453125,0.0022125244140625,-0.01434326171875
1773790171336910800,20.131910888671875,-0.99530029296875,0.0022735595703125,-0.0146942138671875
1773790171356874800,20.151874755859374,-0.9961700439453125,0.0023040771484375,-0.014801025390625
1773790171376837600,20.171837646484374,-0.9958343505859375,0.0019378662109375,-0.0146026611328125
1773790171396801800,20.1918017578125,-0.99603271484375,0.00201416015625,-0.0151214599609375
1773790171416765700,20.211765625,-0.9962158203125,0.00189208984375,-0.0153350830078125
1773790171436729600,20.2317294921875,-0.9955291748046875,0.003265380859375,-0.0148773193359375
1773790171456692700,20.251692626953126,-0.994110107421875,0.0017547607421875,-0.0156097412109375
1773790171476656600,20.27165673828125,-0.9953460693359375,0.0019073486328125,-0.0147552490234375
1773790171496620500,20.29162060546875,-0.996185302734375,0.0008087158203125,-0.0149688720703125
1773790171516584700,20.311584716796876,-0.9943695068359375,0.001678466796875,-0.0147857666015625
1773790171536547600,20.331547607421875,-0.99566650390625,0.0008087158203125,-0.0156707763671875
1773790171556511700,20.35151171875,-0.996185302734375,0.00048828125,-0.014434814453125
1773790171576475600,20.3714755859375,-0.9947357177734375,0.0019378662109375,-0.0140228271484375
1773790171596439600,20.391439453125,-0.99578857421875,0.0022125244140625,-0.0140380859375
1773790171616403500,20.411403564453124,-0.99578857421875,0.00164794921875,-0.0153350830078125
1773790171636366600,20.43136669921875,-0.9954376220703125,0.0012664794921875,-0.014404296875
1773790171656330500,20.45133056640625,-0.99700927734375,0.000823974609375,-0.014434814453125
1773790171676294700,20.471294677734374,-0.9959716796875,0.0009002685546875,-0.0146942138671875
1773790171696258600,20.491258544921877,-0.9953460693359375,0.0013275146484375,-0.014984130859375
1773790171716221700,20.5112216796875,-0.994720458984375,0.001495361328125,-0.0134124755859375
1773790171736185600,20.531185546875,-0.994720458984375,0.0013580322265625,-0.0149993896484375
1773790171756149500,20.5511494140625,-0.9950103759765625,0.001068115234375,-0.01483154296875
1773790171776113700,20.57111376953125,-0.9958648681640625,0.001617431640625,-0.01422119140625
1773790171796077800,20.591077880859373,-0.9967803955078125,0.0015411376953125,-0.01519775390625
1773790171816040700,20.611040771484376,-0.994964599609375,0.0023040771484375,-0.015289306640625
1773790171836004600,20.631004638671875,-0.9957122802734375,0.002471923828125,-0.0146331787109375
1773790171855968800,20.65096875,-0.9956512451171875,0.002166748046875,-0.01373291015625
1773790171875932700,20.6709326171875,-0.99603271484375,0.00177001953125,-0.0152740478515625
1773790171895895800,20.690895751953125,-0.9948577880859375,0.0022430419921875,-0.0151824951171875
1773790171915859700,20.710859619140624,-0.99603271484375,0.0012054443359375,-0.01629638671875
1773790171935823600,20.73082373046875,-0.997344970703125,0.001617431640625,-0.0147552490234375
1773790171955787800,20.750787841796875,-0.9952392578125,0.001373291015625,-0.0152130126953125
1773790171975750700,20.770750732421874,-0.9951324462890625,0.0013427734375,-0.0148162841796875
1773790171995714600,20.790714599609377,-0.99505615234375,0.001922607421875,-0.0140838623046875
1773790172015678700,20.8106787109375,-0.9946136474609375,0.0014801025390625,-0.014495849609375
1773790172035642600,20.830642578125,-0.9963226318359375,0.0025482177734375,-0.015411376953125
1773790172055606500,20.8506064453125,-0.9968719482421875,0.0005035400390625,-0.0135498046875
1773790172075569700,20.870569580078126,-0.99530029296875,0.000946044921875,-0.0142974853515625
1773790172095533600,20.890533447265625,-0.995697021484375,0.002716064453125,-0.01556396484375
1773790172115497500,20.91049755859375,-0.99603271484375,0.0013580322265625,-0.015350341796875
1773790172135461600,20.930461669921876,-0.994659423828125,0.00103759765625,-0.01385498046875
1773790172155424500,20.950424560546875,-0.9942626953125,0.00140380859375,-0.01531982421875
