time,seconds_elapsed,z,y,x
1773790151240789500,0.03578955078125,0.05248363595306873,-0.013296721071255159,-0.0015324793974403291
1773790151260753400,0.05575341796875,0.0330307474642992,0.008102439222147222,0.0049209345256444065
1773790151280717300,0.07571728515625,0.040213936966657635,0.0110468894679856,-0.012340882792789488
1773790151300681500,0.095681396484375,0.03288227890431881,-0.013872666928841499,-0.0014734700860455632
1773790151320646100,0.115646240234375,0.03871814545094967,-0.00008458899393444881,-0.00894165967539884
1773790151340610000,0.135610107421875,0.03482756775319576,-0.02253696982593974,0.006305895211175084
1773790151360574000,0.155573974609375,0.04036415909230709,-0.008954110448306891,-0.009861642330838367
1773790151380538000,0.1755380859375,0.04305763595998287,0.00527896217458765,0.006738203947525471
1773790151400502000,0.195501953125,0.0378191507846117,0.0018777811371954156,0.0032153909830842167
1773790151420466000,0.2154658203125,0.04036240552663803,-0.002636575031687971,-0.004042425524909049
1773790151440429800,0.235429931640625,0.039165304696559905,-0.0003827864892198704,0.013460497939866036
1773790151460394000,0.25539404296875,0.03258241917490959,0.0077790639031212775,0.00229523479770869
1773790151480358000,0.27535791015625,0.03677227208018303,-0.008584165174351073,-0.014927538285125046
1773790151500321800,0.29532177734375,0.05413257220387459,0.00231466444231919,-0.000411622141348198
1773790151520286200,0.3152861328125,0.044108021795749665,-0.0010074919755337758,-0.0027088844993617385
1773790151540250000,0.33525,0.028546295526623723,-0.00634553196017514,-0.00516007704376243
1773790151563958000,0.3589580078125,0.047697570720314976,-0.002640979495458305,-0.008432541109481826
1773790151583922000,0.378921875,0.03617547523081303,-0.011728717127640266,-0.00048496137219481165
1773790151603885800,0.3988857421875,0.028244682231545446,-0.009153508902859176,-0.008136992229009047
1773790151623849000,0.418848876953125,0.04171148204803467,-0.003989304814895149,0.0007423701993655413
1773790151643812900,0.438812744140625,0.04141220684051514,0.00021462913136929273,0.004331024074787274
1773790151663776800,0.45877685546875,0.05353285274505615,-0.013528190597926731,-0.006447011581761762
1773790151683741200,0.4787412109375,0.037222353935241696,-0.0012671064595226199,-0.002424331936938688
1773790151703705000,0.498705078125,0.04021335244476795,-0.004915033366176067,0.0131056657533627
1773790151723669000,0.5186689453125,0.05248422047495842,-0.007788887752458685,0.0012375333051662892
1773790151743633200,0.538633056640625,0.04724690434336662,0.0020597352666023652,-0.01072102650599554
1773790151763597000,0.55859716796875,0.04649754728078842,0.008207269569800701,0.0026686894862912596
1773790151783561000,0.57856103515625,0.044103930142521855,-0.005290989397454541,-0.0046870983703061935
1773790151803524900,0.59852490234375,0.0444026208281517,0.009652160873688989,-0.0015180764127522707
1773790151823489000,0.618489013671875,0.04454933582246303,-0.004277986704808427,-0.002802490200102329
1773790151843453000,0.638452880859375,0.04604395829439163,-0.0016083816197759006,-0.017167937623057513
1773790151863416800,0.658416748046875,0.04350011903047561,0.005262931205105269,-0.005800548638077453
1773790151883381000,0.678381103515625,0.04574585213065147,-0.002284083216032013,0.004905919619603082
1773790151903345000,0.698344970703125,0.04050795147716999,-0.0038972140761616174,0.007912298361351712
1773790151923309000,0.71830908203125,0.04409925396740436,0.00044739214105065907,-0.004361437479360029
1773790151943273000,0.73827294921875,0.041407530665397645,-0.009969016262027435,0.004205571064213291
1773790151963237000,0.758237060546875,0.03138064216971397,0.0011632408013159874,0.00008342223344370722
1773790151983201000,0.778200927734375,0.02554360657930374,-0.005932796715619042,-0.01138391999467276
1773790152003165000,0.7981650390625,0.04290098409354687,-0.0002482311485160608,0.005743594286451116
1773790152023129000,0.818129150390625,0.04095803333222866,0.0001161851420183666,-0.0008659417801070957
1773790152043093000,0.838093017578125,0.04170739039480686,-0.00311461004781886,-0.0010864526629913598
1773790152063057000,0.858056884765625,0.030785014364123342,0.0006408677448926027,-0.012848083396255969
1773790152083020000,0.87802001953125,0.03602233049571514,0.0033467565695696976,-0.0091297295934055
1773790152102984000,0.89798388671875,0.041859950608015055,0.0037599633132282175,-0.0003956208546180278
1773790152122947800,0.91794775390625,0.035574002206325527,-0.010566879407188388,-0.008563656675862149
1773790152142912000,0.937912109375,0.025998364609479904,0.0032616903683112468,0.0033307701242156324
1773790152162876000,0.9578759765625,0.03707096276581287,-0.009874606843688525,-0.010689544522343202
1773790152182839800,0.97783984375,0.03467676110565662,-0.007394345751719083,0.0021552692045923322
1773790152202804000,0.997803955078125,0.03707330085337162,-0.011493177638982888,-0.0053206105008721345
1773790152222768000,1.01776806640625,0.038569676890969275,-0.009507489422702929,-0.0011546407946851104
1773790152242732000,1.03773193359375,0.03587795358896255,0.004115244165947661,-0.003811767707346007
1773790152262696000,1.057696044921875,0.039320787519216534,-0.0021069970579876097,-0.001964340609218925
1773790152282660000,1.07766015625,0.04470657221078873,-0.00008424193406244739,0.005761020345287397
1773790152302624000,1.0976240234375,0.03917114991545677,-0.010933718266960931,-0.003736967171775177
1773790152322587100,1.117587158203125,0.04366086255013942,-0.006606461618415778,-0.007968028870271518
1773790152342551300,1.13755126953125,0.044409050568938256,0.004751804486836772,0.0024926753322593864
1773790152362515200,1.15751513671875,0.045455344751477236,-0.004538533912203275,0.002258382519194856
1773790152382479000,1.17747900390625,0.043512393990159035,-0.000038392356695840136,-0.0023579247703775764
1773790152402443300,1.197443359375,0.03588262976408005,0.004093570048612309,0.0009570997954346239
1773790152422407200,1.2174072265625,0.046807928404211996,-0.008114724456629483,0.0020524755503982303
1773790152442371000,1.23737109375,0.036035189977288246,0.007342180597997503,-0.0031314481598325073
1773790152462334200,1.257334228515625,0.042620998108386994,-0.0013359704446513204,-0.0011516816526185721
1773790152482298000,1.277298095703125,0.04771101472377777,-0.002490911491791485,0.010349672442954034
1773790152502262000,1.297261962890625,0.04217500790655613,-0.00504217486869311,0.005822623472567647
1773790152522226200,1.31722607421875,0.043671383944153784,0.005857468740374315,-0.00465946144470945
1773790152542190000,1.337190185546875,0.04696224218308925,0.014573114807286765,-0.004619942285073921
1773790152562154000,1.357154052734375,0.04082651590704918,-0.005161061141162645,-0.0017310707094613461
1773790152582118100,1.3771181640625,0.045315644019842144,-0.006540279355784878,-0.0032154366488568484
1773790152602082300,1.397082275390625,0.03020166151821613,-0.0024501582146505825,-0.009165759888011962
1773790152622046200,1.417046142578125,0.036187165668606754,-0.006072349033493083,-0.00018679127637296914
1773790152642010000,1.437010009765625,0.038432314246892925,0.004087143732758704,0.00007406075005419552
1773790152661974300,1.456974365234375,0.0358890595048666,0.007623855075100436,0.00484369543781504
1773790152681938200,1.476938232421875,0.043221302089095116,-0.0036851342365494927,-0.004284718981338665
1773790152701902000,1.496902099609375,0.04576397230923176,0.001451639563438948,-0.001845207741577178
1773790152721866200,1.5168662109375,0.036488778963685034,-0.00550033728221897,-0.0003672441435046494
1773790152741830100,1.536830078125,0.048310149660706514,0.005512696723581757,-0.005308308141725137
1773790152761794000,1.5567939453125,0.03588847498297691,0.005318361461570021,-0.007577842242596671
1773790152781758000,1.576758056640625,0.04112520659267902,-0.0026223615599563345,-0.0003220624280627817
1773790152801721000,1.59672119140625,0.0465115758061409,0.000008389944076770915,0.00032050065863877534
1773790152821685000,1.61668505859375,0.028705285480618476,-0.012916808100778143,-0.0010541669617407023
1773790152841649200,1.636649169921875,0.022270868518948553,-0.0012879037940234411,-0.006584018032811582
1773790152861613000,1.656613037109375,0.034991233882308,-0.011267557897785444,-0.013097838639933615
1773790152881577200,1.6765771484375,0.026761165675520896,0.004562293813703581,0.004564056512527168
1773790152901541000,1.696541015625,0.033496026888489724,0.0005327894191606901,-0.006135032156296074
1773790152921505300,1.71650537109375,0.03259761674404144,-0.008727322804974392,0.0018434815753716974
1773790152941469200,1.73646923828125,0.043073418051004404,-0.004306049463734962,-0.005132202656148001
1773790152961433000,1.75643310546875,0.03798515500128269,-0.002302513921866193,-0.0027049024439882484
1773790152981397200,1.776397216796875,0.030055531045794486,-0.007131506122538121,0.0002144738677423447
1773790153001361200,1.796361083984375,0.028710546177625654,-0.0014038366326480172,-0.012002572482824325
1773790153021325000,1.816324951171875,0.03694119890630245,-0.008638282539852661,0.004387055977806449
1773790153041289200,1.836289306640625,0.04502221403121948,-0.009544547197193606,0.005088874971074983
1773790153061253000,1.856253173828125,0.04801555062830448,0.0014952047105296514,-0.0059843899055384096
1773790153081217000,1.876217041015625,0.031553076127171516,-0.0005428724217577837,-0.0017955507804173975
1773790153101181000,1.896180908203125,0.04187923983037471,0.0051084085053182205,-0.0009668996702414006
1773790153121145300,1.916145263671875,0.024819968479871748,-0.01021506915318896,-0.0103646325500682
1773790153141108000,1.93610791015625,0.0399321974158287,0.011508009881933685,0.008399944880977273
1773790153161072000,1.956072021484375,0.04322364017665386,-0.002750845636188751,-0.0038051644366234537
1773790153181036300,1.976036376953125,0.03873451206386089,0.00009344358724774793,0.0004056399251334369
1773790153201000200,1.996000244140625,0.04352291538417339,-0.008066456876602023,-0.006600576441967859
1773790153220964000,2.015964111328125,0.034394437032938,0.0013465888784325215,-0.00042398843257687984
1773790153240928300,2.03592822265625,0.045617257314920424,-0.0014052442800893913,-0.009238514596968889
1773790153260892200,2.05589208984375,0.04486965381801128,-0.0039678635930002195,-0.00541981482533738
1773790153280856000,2.07585595703125,0.037089082944393156,-0.006814447521511465,-0.0030219507702160626
1773790153300820200,2.0958203125,0.045019875943660734,0.00017017236006795428,0.00686028682407923
1773790153320788000,2.1157880859375,0.037089082944393156,-0.004689614554378204,-0.00210283576445654
1773790153340752000,2.135751953125,0.04382394415736198,-0.00635677487339708,0.0005009809252340346
1773790153360715800,2.1557158203125,0.03798690856695175,0.00045945247160270806,-0.0039054647396318614
1773790153380680200,2.17568017578125,0.03215162654221058,0.010003458529390627,0.008789400856290012
1773790153400644000,2.19564404296875,0.04247603667974472,-0.002658454645000165,0.011249324696417897
1773790153420608000,2.21560791015625,0.041427404409646984,-0.005057184066512854,0.0002393069148994982
1773790153440571100,2.235571044921875,0.040679800912737846,0.0010627030362898948,0.0031987960413098334
1773790153460535000,2.25553515625,0.04142798893153667,0.008620358724094694,-0.0009656392949167639
1773790153480499000,2.2754990234375,0.03140226947963238,-0.001200355658022454,0.0024687282010912893
1773790153500463000,2.295463134765625,0.039333062478899956,0.001990008198370924,0.0065519971930421885
1773790153520427000,2.315427001953125,0.038434067812561985,0.0038592075952445155,-0.009110458637354895
1773790153540391000,2.335390869140625,0.03439209894537926,0.007029220500064548,0.0018079170716460793
1773790153560355000,2.35535498046875,0.03813420808315277,0.012295952239097095,0.006361141662904992
1773790153580319000,2.375319091796875,0.04052782522141933,0.00073673275973415,-0.009787271053530276
1773790153600283000,2.395282958984375,0.05070201323330402,0.004358971527637914,0.008103738413378596
1773790153620246800,2.415246826171875,0.0375315660148859,0.003018283808673732,-0.0028121987433638424
1773790153640211000,2.4352109375,0.04695873505175113,-0.01059738071837346,0.0027128939541988073
1773790153660175000,2.455175048828125,0.0489034393787384,-0.000772325804567663,0.005447533949324861
1773790153680139000,2.475138916015625,0.04306581926643848,-0.0034301571117714047,-0.007894835769897326
1773790153700103200,2.495103271484375,0.04276479049324989,0.010205094606801867,-0.0036099523917771876
1773790153720067000,2.515067138671875,0.03977086937427521,-0.0030722093779302667,0.004286527345934882
1773790153740030000,2.535030029296875,0.03258884891569614,0.0039551125676371155,-0.005492779596848413
1773790153759994000,2.554994140625,0.045456513795256615,-0.0022026474436977876,0.0007040200835093856
1773790153779958000,2.5749580078125,0.032738486519455906,0.00412821096208645,0.002263058694312349
1773790153799922000,2.594921875,0.04036941978931427,0.003114934274804545,0.016962861771322786
1773790153819886000,2.614885986328125,0.036029344758391375,-0.00043297545663081107,0.008041569030517712
1773790153839850000,2.63485009765625,0.042912674531340594,0.004175581209681695,-0.006820237941481172
1773790153859814000,2.65481396484375,0.049050154373049736,0.008201807943393941,0.003218669785559177
1773790153879777800,2.67477783203125,0.0491997919768095,0.010571402601967565,-0.009650520330807193
1773790153899742000,2.694741943359375,0.0366296487390995,0.003894480979669606,0.0012819843682460486
1773790153919705900,2.714705810546875,0.031392332607507706,-0.0007425186131265945,0.006663695672899484
1773790153939670000,2.734669921875,0.03139350165128708,-0.002180046311178012,0.007632851232308894
1773790153959634200,2.75463427734375,0.048750879165530205,0.0009189631670655216,-0.007914846511464565
1773790153979598000,2.77459814453125,0.04605564873218536,-0.007065076123090693,0.007612630428187548
1773790153999562000,2.79456201171875,0.053986441731452936,0.006842171212076209,-0.00645212614829652
1773790154019525000,2.814525146484375,0.027649638947844505,-0.010036947523750131,-0.004473967076279223
1773790154039489000,2.834489013671875,0.043509471380710596,-0.0072461500447301656,0.001639163775462657
1773790154059453000,2.854452880859375,0.0453045381039381,-0.0005357154535420704,0.0018074056149926035
1773790154079417000,2.8744169921875,0.045156654065847394,-0.004094862389977788,-0.002649838655348867
1773790154099381000,2.894381103515625,0.04306114309132099,-0.0013240870689682196,0.0033781163972802456
1773790154119345000,2.914344970703125,0.042463177198171616,-0.0014985714196169282,-0.011000108308857306
1773790154139309000,2.93430908203125,0.04785129997730255,0.00790583094630274,0.0013304357530083506
1773790154159273000,2.95427294921875,0.03348492097258567,-0.0037278945243975612,0.0024437581566162407
1773790154179236900,2.97423681640625,0.0336363121420145,0.010860627914575162,0.0009739961313083767
1773790154199200800,2.99420068359375,0.034984219619631766,-0.00645871914422023,0.002385123304557055
1773790154219165200,3.014165283203125,0.05024783972501754,-0.0037494213696161746,-0.012457604507636277
1773790154239129000,3.034129150390625,0.03917582609057426,0.008182373732206179,0.010527494961582123
1773790154259093000,3.054093017578125,0.04965045835375786,-0.002716887426015455,0.00830261285318993
1773790154279057200,3.07405712890625,0.04052256452441215,-0.0028829692744999193,-0.0020128376597538587
1773790154299020000,3.09402001953125,0.040671033084392544,-0.012958254356018733,-0.013163277692114934
1773790154318980000,3.11397998046875,0.04426233557462692,-0.003322837979509495,0.001041060884995386
1773790154338944300,3.1339443359375,0.03708148415982723,-0.006185917526739649,-0.005935801523458213
1773790154358908200,3.153908203125,0.045609658530354494,0.0034712505989184135,0.001917186132399365
1773790154378872000,3.1738720703125,0.04351297851204872,-0.006007058395072817,-0.007415052896318957
1773790154398836200,3.193836181640625,0.04635550846159458,-0.0020742261579027397,-0.0013900661189109086
1773790154418800000,3.213800048828125,0.03453121515512466,-0.004781832015630789,-0.010039391784230247
1773790154438764000,3.233763916015625,0.04231178602874279,-0.010304794404900166,0.0007694682688452303
1773790154458728200,3.253728271484375,0.03931844943165779,0.0021370919437962584,0.00170942513323389
1773790154478692000,3.273692138671875,0.04635083228647709,0.0044095566456264345,0.0005536061616148799
1773790154498656000,3.293656005859375,0.036323943790793414,-0.0028421509236330163,-0.0035708442240953444
1773790154518620000,3.313619873046875,0.04784603928029537,-0.00570399292842485,-0.00790093671712093
1773790154538584000,3.333583984375,0.031236265262961384,0.008246619766077492,-0.0099774781296961
1773790154558547000,3.353546875,0.05053834710419178,-0.0003071377119224053,0.007292449429957196
1773790154578511000,3.373510986328125,0.04485211816132068,0.0007660068032797426,0.003876439574547112
1773790154598475300,3.393475341796875,0.04155950635671615,-0.008992978870682417,-0.0040543534247204655
1773790154618439200,3.413439208984375,0.04484978007376194,0.0033034311677853107,0.004149767490057275
1773790154638403000,3.433403076171875,0.04484978007376194,-0.004394497215456795,-0.006437914959853515
1773790154658367200,3.4533671875,0.03841536311209202,-0.008776864460058277,-0.004826926966104656
1773790154678331100,3.4733310546875,0.03706920920014381,-0.0001937792812299449,-0.0016998718535993246
1773790154698295000,3.493294921875,0.04844049804210662,-0.010392074254486941,-0.0038635983592830597
1773790154718259200,3.51325927734375,0.046643677753210065,0.005726000405900412,-0.0010961703394073991
1773790154738223000,3.53322314453125,0.03661912734508514,0.004195857954374514,0.0024357483800966293
1773790154758187000,3.55318701171875,0.04978665195405483,-0.010882796363899251,-0.0017097630599513648
1773790154778151000,3.57315087890625,0.04589432069063187,-0.009038657201401656,0.0052508149339817465
1773790154798114000,3.593114013671875,0.03841302502453327,0.0023108319423510693,-0.00016131890839897096
1773790154818078000,3.613077880859375,0.047692310023307795,-0.006888093854679027,0.006166075748531148
1773790154838042000,3.6330419921875,0.040510289564728734,0.005333081823377869,0.0013114296584390104
1773790154858006000,3.653006103515625,0.03542378008067608,0.004063982052879873,-0.007758276843419298
1773790154877970200,3.67297021484375,0.03811725694835186,0.0021935165724600663,-0.0026858689499553294
1773790154897934000,3.69293408203125,0.04320551999807357,-0.0036817755189724266,-0.008276254569226876
1773790154917898200,3.712898193359375,0.03287994081676006,-0.007703646879619918,-0.015279292598553
1773790154937862100,3.732862060546875,0.04724456625580788,-0.01535315698578488,-0.011791012091375886
1773790154957826000,3.752825927734375,0.04514905528128147,-0.005230610112880822,-0.0018651362847536801
1773790154977790200,3.772790283203125,0.03003565730154514,-0.003581676145363599,0.00023009156198240815
1773790154997754000,3.792754150390625,0.043054713350534436,-0.00406695261138957,0.0021153116535395384
1773790155017718000,3.812718017578125,0.039762686067819596,-0.000011408451647730544,-0.0020763678826391696
1773790155037682200,3.83268212890625,0.04948796126842499,-0.007258899928448954,-0.0017155717462301254
1773790155057645000,3.85264501953125,0.06026362230479717,-0.001109961402742192,-0.013198129809787497
1773790155077609000,3.87260888671875,0.04889233346283436,0.0005542500490089878,-0.008938079478824511
1773790155097573000,3.892572998046875,0.04455284295380115,0.0013559389453788753,0.00215019117067568
1773790155117537000,3.912537109375,0.03677227208018303,0.0031704615710361392,0.000740525302151218
1773790155137501000,3.9325009765625,0.038269817161560055,-0.007267165433295303,0.0006772416744381189
1773790155157465300,3.95246533203125,0.04620177920460701,0.018218127096001988,0.0013337693544104696
1773790155177429200,3.97242919921875,0.03617605975270271,0.0019868241523741744,-0.010651769795222208
1773790155197393200,3.99239306640625,0.02974164279103279,0.004963951683463528,0.0002955032147001475
1773790155217357000,4.012357177734375,0.04799684592783451,-0.004339791903132572,-0.0005759641238953918
1773790155237321200,4.0323212890625,0.04335808021128178,0.016121109150978735,0.003915292013902217
1773790155257285000,4.05228515625,0.03318389219939708,0.007389211777230957,-0.0022997283097356555
1773790155277249000,4.0722490234375,0.03782324243783951,0.011283301172900245,0.002319382858276367
1773790155297212200,4.092212158203125,0.03258475726246834,-0.010305826451361645,0.0004198967793490737
1773790155317175800,4.11217578125,0.05368190582692623,0.00014587474409490824,-0.005150432432582602
1773790155337140000,4.132139892578125,0.03842003928720951,-0.005032121548848226,-0.001186698167072609
1773790155357104000,4.152104248046875,0.05054068519175052,-0.0014140543492743745,0.004936725749820471
1773790155377068000,4.172068115234375,0.030638299369812008,-0.0019062069390143733,0.002036702592531219
1773790155397032000,4.192031982421875,0.06041618251800537,0.0030562023829785174,0.00367673401767388
1773790155416996000,4.21199609375,0.03961597107350826,-0.0068299042439030015,0.004889187680510804
1773790155436960000,4.2319599609375,0.04679857605397701,-0.0008881547535595017,-0.005875814964529127
1773790155456924000,4.251923828125,0.03527414247691631,-0.000793806984013645,-0.00136101355436258
1773790155476888000,4.27188818359375,0.05008826524913311,-0.0006851886605203617,-0.002839945266814902
1773790155496852000,4.29185205078125,0.030486908200383186,-0.011724808137502986,-0.0029237145601306107
1773790155516816000,4.31181591796875,0.046648938450217246,-0.005004937856044853,-0.003289113806420937
1773790155536779000,4.331779052734375,0.04590016590952873,-0.0006076367621484678,0.004787435205932706
1773790155556743000,4.351742919921875,0.031385318344831464,-0.011010935663548297,-0.0052327860869467255
1773790155576706800,4.371706787109375,0.042158641293644904,0.010616667657444486,-0.009813063081912696
1773790155596671000,4.3916708984375,0.04889233346283436,-0.00436768569870037,-0.0018835761237423867
1773790155616635100,4.41163525390625,0.03766834413707256,-0.002435299713880522,0.008376226078672335
1773790155636599000,4.43159912109375,0.031982115194201466,-0.0038275908975629134,0.016737492050230503
1773790155656563000,4.45156298828125,0.04515022432506084,-0.014971487024705856,0.0032814145571552216
1773790155676527000,4.471527099609375,0.04919160867035389,-0.0014706308166321832,0.011714594987453891
1773790155696491000,4.491490966796875,0.04530103097259998,-0.012338578954560215,-0.003368106459919363
1773790155716455000,4.511454833984375,0.033928573086857795,0.0017689664508798158,-0.005300033503724262
1773790155736419000,4.531419189453125,0.02839139722585678,-0.008799664238689001,0.009257886017719283
1773790155756382000,4.5513818359375,0.04784370119273662,0.0020111537343880624,-0.00582807596581988
1773790155776345900,4.571345947265625,0.04036182100474834,-0.0012809751546708867,-0.010011380399297921
1773790155796310000,4.59131005859375,0.053230070406198496,-0.005073992495774291,0.004694879817962646
1773790155816274000,4.61127392578125,0.04066109621226787,-0.005922754812217317,0.004367574959201738
1773790155836237800,4.63123779296875,0.03931318873465061,0.005280362972163129,0.00669613663777709
1773790155856202000,4.651201904296875,0.037217093238234515,-0.008578889635967788,0.00842351755280979
1773790155876166000,4.671165771484375,0.04365151019990444,0.004362724112503929,-0.0023634411957114934
1773790155896130000,4.691130126953125,0.04380173232555389,-0.0005081013608316425,0.007613050553295761
1773790155916094000,4.711093994140625,0.037815059131383895,-0.01510893757539452,0.017989483139012007
1773790155936057000,4.73105712890625,0.03961187942028045,-0.005560063546244055,0.002059270617365837
1773790155956021000,4.75102099609375,0.038266310030221934,-0.00804703636514605,0.0021138777482789008
1773790155975985200,4.770985107421875,0.039165304696559905,-0.00918188104739529,0.013100441588973626
1773790155995949000,4.790948974609375,0.031086043137311933,0.006542356006795307,-0.0043301198924891645
1773790156015912000,4.810911865234375,0.04590016590952873,0.008042788306646979,-0.008527580715483055
1773790156035876000,4.8308759765625,0.03662263447642326,-0.0046712397891154975,0.001669860307825729
1773790156055840000,4.850840087890625,0.04545183762013912,-0.0031550082735775503,-0.0030040954531170426
1773790156075804000,4.870803955078125,0.04769873976409435,0.001982734782435,0.005384725245647132
1773790156095768000,4.89076806640625,0.0370738853752613,-0.008409079177147942,-0.0020814641828648746
1773790156115732000,4.91073193359375,0.024953823992609977,0.006531867720466107,-0.008425134121160954
1773790156135696000,4.93069580078125,0.03423077090382576,-0.002724173400038853,-0.011829115612059831
1773790156155660000,4.950659912109375,0.03916822730600834,0.006751297466183314,0.004351062215818092
1773790156175624000,4.9706240234375,0.04844634326100349,0.00029722253103973344,-0.0009212156313005834
1773790156195587800,4.990587890625,0.04081424094736576,-0.008888920274586416,0.0025512919180095193
1773790156215552000,5.010552001953125,0.03812134860157966,-0.00022470071752322837,-0.0016639511568471788
1773790156235515000,5.030514892578125,0.03946808703541756,-0.0127561490627937,-0.006757465770421549
1773790156255479000,5.05047900390625,0.054281625285744664,-0.006166155663633253,-0.011975958470534533
1773790156275443200,5.070443115234375,0.05323533110320568,-0.004480456182570197,-0.009510253343591466
1773790156295407000,5.090406982421875,0.03812310216724872,-0.00013094660302158444,0.003890212371572852
1773790156315371000,5.11037109375,0.03153904760181904,0.0014310579997138119,-0.004199680179543793
1773790156335335200,5.130335205078125,0.05473170714080333,-0.014340580126468556,0.0033644714644178748
1773790156355299300,5.15029931640625,0.03961889368295669,0.0016008159428951329,0.010666793834418058
1773790156375263200,5.17026318359375,0.04799801497161388,-0.007722897286072838,-0.008788213546201587
1773790156395227100,5.19022705078125,0.03991699984669685,0.009979396092146634,-0.003984886651393026
1773790156415190300,5.210190185546875,0.040217444097995755,-0.004558528670750093,-0.01003893512650393
1773790156435154200,5.230154296875,0.024655717828869817,-0.01626486500322353,-0.0036650344467256215
1773790156455118000,5.2501181640625,0.03363338953256607,0.004589394166471902,0.009234578207368031
1773790156475082200,5.270082275390625,0.044855040770769114,0.001264976151229348,-0.00564441736144945
1773790156495046100,5.290046142578125,0.04934533792734146,-0.00004213809169596061,-0.00513398362128064
1773790156515010000,5.310010009765625,0.04500234028697014,-0.011454820673260837,0.003932252281857654
1773790156534974200,5.32997412109375,0.0400631303191185,-0.005179553495789878,0.006400405094213783
1773790156554938000,5.349938232421875,0.05577507871389389,-0.007171610945707652,-0.0010671725737862287
1773790156574902000,5.369902099609375,0.04260696958303451,-0.006334237672958988,-0.006182287097815424
1773790156594866000,5.389865966796875,0.05143617272675037,-0.015434823370270896,0.004110723254457116
1773790156614829000,5.4098291015625,0.02988835778534412,-0.014309744313498959,-0.0011579287303145973
1773790156634793000,5.42979296875,0.05308277088999748,-0.010714370719634462,-0.0031440793125424534
1773790156654757400,5.44975732421875,0.047695817154645916,-0.006797028312541078,0.005522453215904534
1773790156674721300,5.46972119140625,0.03946750251352787,0.005935397381370421,-0.001628523650439456
1773790156694685200,5.489685302734375,0.0433569111675024,-0.0012710999313392676,-0.002181481358082965
1773790156714649000,5.509649169921875,0.036325697356462475,-0.005260032570187468,-0.0012346106957178563
1773790156734613200,5.52961328125,0.040217444097995755,-0.007054777349717914,-0.0033840346814133226
1773790156754577200,5.5495771484375,0.04335808021128178,-0.004254860415903386,-0.0019775745501276103
1773790156774541000,5.569541015625,0.03886836757659912,-0.0037074373999028466,-0.012415016608079895
1773790156794505200,5.589505126953125,0.03901917422413826,-0.006173745315044652,0.0024817794789094476
1773790156814468000,5.609468017578125,0.04590075043141842,0.0046835866723908106,-0.00791133024697192
1773790156834432000,5.629431884765625,0.043804654935002324,-0.009778331978537608,-0.006024484453909099
1773790156854396200,5.649396240234375,0.035872692891955375,-0.006774311873945407,-0.0005476513448636978
1773790156874360000,5.669360107421875,0.03407879521250724,-0.005990369838464539,-0.007881199970189481
1773790156894324000,5.689323974609375,0.043804070413112635,0.013709999738505575,0.002076148686930537
1773790156914288000,5.7092880859375,0.0409603714197874,-0.0025610803763731383,-0.0035692276557441798
1773790156934252300,5.729252197265625,0.03991232367157936,-0.006976360084954648,-0.0029353410658426583
1773790156954216200,5.74921630859375,0.045448915010690684,-0.0032492361704702486,-0.004268343235272914
1773790156974180000,5.76918017578125,0.029285715717077252,-0.0233463476967765,0.00412087932229042
1773790156994144300,5.789144287109375,0.037515783923864364,-0.004571054792182986,-0.005766682901093736
1773790157014107100,5.809107177734375,0.050832946136593816,-0.0017372675548074767,0.00444542596838437
1773790157034071300,5.8290712890625,0.03332359293103218,0.00801208264112938,0.012635290028946474
1773790157054035200,5.84903515625,0.042000820383429525,-0.0006054322469746694,-0.003831029530242085
1773790157073999000,5.8689990234375,0.039755671805143354,-0.005485708251956384,-0.004738837690697982
1773790157093963300,5.88896337890625,0.04304886813163757,-0.004399609498702921,-0.0051213616017252205
1773790157113927200,5.90892724609375,0.04409516231417656,-0.0029773101941798813,-0.0028040611026808617
1773790157133891000,5.92889111328125,0.037061610415577886,0.006028356911428273,-0.00020225370698608456
1773790157153855000,5.94885498046875,0.03930617447197437,-0.0013888262931839562,-0.005777076430944725
1773790157173819100,5.968819091796875,0.03436696450412273,0.0011770900885108857,-0.005547313662525266
1773790157193783000,5.988782958984375,0.04933130940198898,-0.01525027884991141,-0.007203099779225885
1773790157213746200,6.00874609375,0.049180502754449844,-0.00774549956023693,-0.0009558394201099872
1773790157233710000,6.0287099609375,0.04409107066094875,-0.00416349005473312,-0.008336652120109648
1773790157253674000,6.048674072265625,0.03421381976902485,0.00499834257683251,-0.000015709025785326956
1773790157273638100,6.06863818359375,0.04184416851699352,-0.013421353239566086,0.00455253047151491
1773790157293602300,6.088602294921875,0.039000469523668285,0.0035968303320114497,0.00011022804197855293
1773790157313566200,6.108566162109375,0.04663081827163696,-0.006694844296411611,-0.006079858769802376
1773790157333530600,6.128530517578125,0.028825112468004226,-0.012731633392756339,-0.013222396601364015
1773790157353494500,6.14849462890625,0.045136195799708366,-0.010338669275038409,0.001874114175653085
1773790157373458700,6.168458740234375,0.04423661661148071,-0.005328010639327112,0.004826077582733706
1773790157393421600,6.188421630859375,0.033013211807608606,-0.007098917885543778,-0.0018996961414813995
1773790157413385700,6.2083857421875,0.0455833550453186,-0.002157970335043501,0.005715509836282581
1773790157433350000,6.228349853515625,0.032114801663160324,-0.00511410074387677,0.006690958139160648
1773790157453313800,6.248313720703125,0.0430389312595129,0.00020363281331956386,-0.0015589655455667524
1773790157473277700,6.268277587890625,0.03615560148656368,-0.009572128182218875,-0.00008597038355655967
1773790157493241900,6.288241943359375,0.05635784703791141,-0.005062939095508773,0.0013602189699187875
1773790157513205800,6.308205810546875,0.03450900332331657,-0.007648891334945801,-0.003465191892534494
1773790157533169700,6.328169677734375,0.04199146803319454,-0.008294886204460636,0.008762101857410743
1773790157553133800,6.3481337890625,0.04049626103937626,-0.0014890649473993107,-0.005539066423987969
1773790157573096700,6.3680966796875,0.04438742325901985,-0.009926462611800524,0.0034147220806218684
1773790157593060600,6.388060546875,0.041841830429434776,-0.00439050831021741,0.0011338628681376575
1773790157613024800,6.408024658203125,0.0514174680262804,-0.007856277874775696,-0.00402123660640791
1773790157632988700,6.42798876953125,0.027324644777178764,-0.008307622388447634,0.0017687358387280254
1773790157652952600,6.44795263671875,0.029420740273594856,-0.003380443068395834,0.0018681136931292712
1773790157672916700,6.467916748046875,0.03944587520360946,-0.0031887130387127397,0.004312794298352673
1773790157692880600,6.487880615234375,0.03944645972549915,0.002340352581068873,0.00006323796194046735
1773790157712844800,6.5078447265625,0.044233694002032274,0.0006466798561043105,-0.0010636654424481093
1773790157732808700,6.52780859375,0.04408405639827251,-0.014147904815291984,-0.0026784162958618254
1773790157752771600,6.547771484375,0.03705050449967384,0.0014093393582501447,0.010351964864740148
1773790157772735700,6.56773583984375,0.03420680550634861,-0.0032261795218684708,-0.004238203825335949
1773790157792700000,6.587699951171875,0.041539048090577124,-0.0040202433758531695,0.006420333637390285
1773790157812663800,6.607663818359375,0.046776948744058605,-0.013141154908563475,-0.003637890711473301
1773790157832627700,6.627627685546875,0.040941082197427744,-0.005944777131068986,0.00264199327561073
1773790157852591900,6.647591796875,0.04004442561864853,-0.01149349729939131,-0.006871812865091488
1773790157872555800,6.6675556640625,0.032713936600089075,-0.007034755191707517,-0.021177730386843903
1773790157892519700,6.687519775390625,0.03226502378880977,-0.002757525397080462,0.0000912950126454234
1773790157912483600,6.707483642578125,0.037053427109122274,-0.0024684724727645517,0.004129784147953615
1773790157932446700,6.72744677734375,0.04378711927831173,-0.00046050506766187024,0.0032410916799213737
1773790157952410600,6.74741064453125,0.04273965605199337,-0.007295093478192575,0.0026414087537210435
1773790157972374800,6.767374755859375,0.04064472959935665,-0.011523819372418802,-0.004220503771863878
1773790157992338700,6.787338623046875,0.03047054158747196,-0.002550052092282567,0.0013814718205016104
1773790158012302600,6.807302490234375,0.046482934233546255,0.0072302594974986275,-0.00016463424349203704
1773790158032266500,6.8272666015625,0.03990063323378563,0.005823838182119652,-0.0023870869327802208
1773790158052231000,6.84723095703125,0.04558686217665672,-0.0062699585314025166,0.0006261325417086482
1773790158072194800,6.86719482421875,0.042293665850162504,0.005335264647309668,-0.009048307520803064
1773790158092158700,6.88715869140625,0.044538814428448675,-0.0010478879180038348,-0.017763912488520144
1773790158112121900,6.907121826171875,0.040348961523175235,0.0014671841924428007,0.004226129795052111
1773790158132085800,6.927085693359375,0.03780687582492828,-0.008899405135982669,0.013378135152347386
1773790158152049700,6.947049560546875,0.03272095086276531,-0.003689207623468246,0.0003918762612622231
1773790158172013800,6.967013916015625,0.05426876580417156,-0.003923975360568147,0.0015815335704013704
1773790158191977700,6.986977783203125,0.03631225335299969,-0.004108412566361948,0.010718633619509636
1773790158211941600,7.006941650390625,0.03975216467380523,-0.005406758980941958,0.0007799074644688517
1773790158231905800,7.02690576171875,0.03990355584323406,-0.0003170688758254982,0.0028955387784168124
1773790158251869700,7.04686962890625,0.037059856849908826,0.002997583513939753,-0.010368276678724213
1773790158271832800,7.066832763671875,0.03795826699435711,-0.003451957951625809,0.0028968722189776598
1773790158291796700,7.086796630859375,0.04678805465996265,-0.0029768535364535637,0.006739720051176846
1773790158311760600,7.1067607421875,0.03825871124565601,-0.00871070274702506,0.00015204875655472276
1773790158331724300,7.126724365234375,0.03960369611382484,-0.00044100121617084365,-0.003037952056946233
1773790158351688400,7.1466884765625,0.04124912523329258,-0.0007912622588337399,-0.005698576967790723
1773790158371652400,7.16665234375,0.04798515549004077,-0.005649449729593471,0.009540264889365062
1773790158391616500,7.186616455078125,0.0304775558501482,-0.005855505112151149,-0.0022719087210483846
1773790158411580700,7.20658056640625,0.04633855732679367,-0.004883337895036675,8.767828345298767e-7
1773790158431544600,7.226544677734375,0.03855798645317554,0.0013092879337025807,-0.006596475655585527
1773790158451507500,7.246507568359375,0.040055531534552574,-0.005123957700899336,-0.004138387579517439
1773790158471471600,7.2664716796875,0.04095569524466991,0.001624347515532281,0.0023082860755268483
1773790158491435500,7.286435546875,0.04185235182344913,-0.003424437473749276,-0.018110068178223446
1773790158511399400,7.3063994140625,0.044993572458624835,-0.00859767539318418,-0.0017327968756668268
1773790158531363600,7.326363525390625,0.04379647162854671,-0.0004761729942518286,-0.00594635031693615
1773790158551327500,7.346327392578125,0.04155424565970897,0.0008187873032875359,0.007834018093906343
1773790158571291400,7.36629150390625,0.03137830408215522,-0.0107446745263529,-0.0026211514169815924
1773790158591255600,7.386255615234375,0.030630700585246085,-0.010820358694624155,0.003464442973863333
1773790158611219500,7.406219482421875,0.03556815698742866,-0.0016994814112433231,-0.0013017028488684446
1773790158631182300,7.426182373046875,0.032574820390343665,-0.0067029956368263805,0.0012769428669475017
1773790158651146500,7.446146484375,0.05202653983533382,-0.004501069712336175,-0.0022600721527822314
1773790158671110400,7.4661103515625,0.033920974302291865,-0.010637460425368044,-0.0012212854232639073
1773790158691074300,7.48607421875,0.04155190757215023,0.003964273121627048,-0.0001547156376764178
1773790158711038500,7.50603857421875,0.049182840842008586,0.00015464713901747017,0.007385351877799257
1773790158731002600,7.526002685546875,0.03885784618258476,-0.002891974564862903,0.010543350117839871
1773790158750966500,7.545966552734375,0.04738835864067077,-0.0042532484141294844,0.0020889533695764837
1773790158770929700,7.5659296875,0.0349696065723896,-0.011475605449674185,0.003381075539346784
1773790158790893600,7.5858935546875,0.0467903927475214,-0.009402539202396292,0.007757747120456769
1773790158810857500,7.605857421875,0.04289923052787781,-0.006344603803346399,-0.007303774541569873
1773790158830821600,7.625821533203125,0.04903378776013851,-0.00783395644511329,0.0006425904861651361
1773790158850785500,7.64578564453125,0.0415530766159296,-0.005785775760631076,0.005069266088306904
1773790158870749400,7.66574951171875,0.03736263918876648,-0.003684040541294962,-0.0034412356282118705
1773790158890713300,7.68571337890625,0.04394786279797554,-0.012492273962218314,0.010723757319198921
1773790158910677500,7.705677490234375,0.03601823884248733,-0.008124954731343314,-0.006564199087489396
1773790158930641400,7.725641357421875,0.04454816677868366,0.009155453123128973,0.0016103578060865402
1773790158950604500,7.7456044921875,0.05113397490978241,0.000016058368945959956,-0.00479255890562199
1773790158970568400,7.765568359375,0.026595161458849905,-0.005321140223834664,-0.0046133755469694735
1773790158990532400,7.785532470703125,0.04724573529958725,-0.003962124547024723,-0.004185441591637209
1773790159010496300,7.805496337890625,0.03213233731985092,-0.0032977880199323408,-0.007469185103196651
1773790159030460700,7.825460693359375,0.040810733816027636,0.0062636680712224915,-0.001754880843311548
1773790159050424600,7.845424560546875,0.040210429835319514,-0.008042493762413505,0.006318736426439136
1773790159070388500,7.865388427734375,0.03736556179821491,-0.008060413011594209,0.006302388079836964
1773790159090352600,7.8853525390625,0.03586801671683788,0.003629456243268214,-0.01129106321260333
1773790159110315500,7.9053154296875,0.03512041321992874,0.0059718204016215165,0.009490087338397278
1773790159130279400,7.925279541015625,0.037516368445754046,-0.008254787089512683,-0.014440814214106649
1773790159150243600,7.94524365234375,0.04320259738862514,-0.003673521430569235,0.0020028459887020287
1773790159170207500,7.96520751953125,0.04544657692313194,-0.0022645542483660393,0.0019011483130510895
1773790159190171400,7.98517138671875,0.04185644347667694,-0.0021846048969309776,0.00510225504245609
1773790159210135600,8.005135498046876,0.04784311667084694,-0.008522708177543244,-0.0009354268197435885
1773790159230099500,8.025099365234375,0.04200666560232639,-0.004664674192655365,-0.00028636092701926825
1773790159250063400,8.0450634765625,0.05367781417369842,-0.0016957824836601502,-0.0005714066797867417
1773790159270026500,8.065026611328125,0.04125789306163788,0.00143475007743109,-0.014323708906769752
1773790159289990400,8.084990478515625,0.04200549655854702,0.00046862444203579794,-0.0050181934881955385
1773790159309954300,8.104954345703124,0.03467208493053913,-0.009204459347028751,-0.008042802006378769
1773790159329919000,8.1249189453125,0.03961129489839077,-0.005903209861530922,-0.011891394592775032
1773790159349883000,8.1448828125,0.04380231684744358,0.009883415771229191,-0.0010467508402653039
1773790159369846800,8.1648466796875,0.03706920920014381,-0.0059981375863892026,-0.005311879205144941
1773790159389810700,8.184810791015625,0.045749943783879275,-0.006809862677939236,-0.010182681845594196
1773790159409774800,8.20477490234375,0.04874269585907459,0.0006536164869670756,0.0031400241919327526
1773790159429737700,8.22473779296875,0.04185936608612537,0.0033362705665291284,-0.002262318908795714
1773790159449702000,8.244701904296875,0.04619827207326889,-0.002521211873576976,0.0000014065057970583438
1773790159469665800,8.264665771484376,0.05652209768891334,-0.00909932303869864,-0.00470979425930418
1773790159489629700,8.284629638671875,0.045001171243190766,-0.010115363646869081,0.0006301967954728751
1773790159509593900,8.30459375,0.03482698323130608,-0.010945690690900664,-0.0020030651844106613
1773790159529558000,8.32455810546875,0.04111234711110592,0.004566355784179177,-0.001448280845861882
1773790159549522000,8.34452197265625,0.04784720832407474,0.0014752053854055701,0.0029190018523950127
1773790159588201700,8.38320166015625,0.043806408500671384,-0.0044282076888135635,-0.0004748966359067708
1773790159608165600,8.40316552734375,0.026150340300798415,0.0022546150929527355,-0.005052260154578834
1773790159628130000,8.423130126953126,0.040515550261735915,-0.0046831551308394405,0.0034606983805075286
1773790159648094000,8.443093994140625,0.04440612795948982,-0.00933137366232695,-0.00010022723777219653
1773790159668057900,8.463057861328124,0.03378244261443615,0.002333715061016846,0.0007403517722152173
1773790159688022000,8.48302197265625,0.03842120833098888,-0.003908990137279034,-0.00864791915952228
1773790159707986000,8.50298583984375,0.03812251764535904,-0.009068592257006094,0.00014381978432647882
1773790159727949800,8.52294970703125,0.047999184015393256,0.002175380410859361,0.0005571680918801576
1773790159747913000,8.542912841796875,0.03423193994760513,-0.010651349670113995,-0.009566403977619483
1773790159767876900,8.562876953125,0.0369260013371706,0.0038200309289037246,-0.004244076443696394
1773790159787840800,8.5828408203125,0.040816579034924506,-0.0057756790583021935,-0.0019599475618917494
1773790159807805000,8.602804931640625,0.049044309154152865,0.0019765630532638167,-0.008889436297817155
1773790159827768800,8.622768798828124,0.03183715376555919,-0.0014537630218663252,-0.00014243154483847318
1773790159847732700,8.642732666015625,0.04066577238738536,0.004583126539178192,0.0036031938574276863
1773790159867696600,8.662696533203125,0.03572890050709247,-0.00011279902497772127,-0.0005448383332695812
1773790159887659800,8.68265966796875,0.046052141600847245,-0.0017958521745167673,-0.004897608448984101
1773790159907623700,8.702623779296875,0.035728315985202784,-0.011315350553777534,-0.005439926031604409
1773790159927587800,8.722587890625,0.04605272612273693,-0.0024212700468837283,0.007586326943151652
1773790159947552000,8.742552001953126,0.03527940317392349,-0.004981190512632019,-0.00813788727815263
1773790159967516000,8.762515869140625,0.047699324285984036,-0.0077331469687400385,-0.0009840791339054704
1773790159987479800,8.782479736328124,0.03827098620533943,-0.0006432526398682967,-0.003138800349226221
1773790160007443000,8.80244287109375,0.022858897539973257,-0.005102807598304934,-0.0034878055831417437
1773790160027406800,8.82240673828125,0.03647533496022224,-0.006554504243959672,0.004648940050695091
1773790160047371000,8.84237109375,0.03542904077768325,-0.0011257343606092035,-0.0033554296414367852
1773790160067335000,8.8623349609375,0.04979366621673107,0.0009269101531477644,-0.001820566490665078
1773790160087298800,8.882298828125,0.04425765939950943,0.006563783528958447,0.008727532867528498
1773790160107263000,8.902262939453125,0.03931961847543716,-0.00020566265691304578,-0.008457100162003189
1773790160127227000,8.922226806640625,0.04276245240569115,-0.0018874348815297707,-0.0029816461592912674
1773790160147190800,8.942190673828126,0.02974339635670185,-0.00048106836507795373,-0.009835293180029838
1773790160167154000,8.96215380859375,0.04290975192189216,0.0012639075721497647,-0.0035968371818773446
1773790160187117800,8.982117919921874,0.04620061016082763,0.0007219393326900899,-0.0024922552071511743
1773790160207081700,9.002081787109375,0.03213350636363029,0.003601476824376732,0.005086692147143185
1773790160227046000,9.0220458984375,0.02450315761566162,-0.003805899655562825,0.0034986375044099983
1773790160247009800,9.042009765625,0.03617313714325428,0.014543525669910013,0.0011996307138819246
1773790160266974000,9.061973876953125,0.05188508553802967,0.0023436679161619395,-0.0031373481776565313
1773790160286937900,9.081937744140625,0.052934302330017086,-0.0025523239644709974,-0.0037238336955662814
1773790160306900700,9.101900634765625,0.044107437273859976,-0.010065444107516669,0.0018547610212117432
1773790160326864100,9.121864013671875,0.0393178649097681,-0.007103215034748427,-0.01366132687474601
1773790160346828300,9.141828369140624,0.047996261405944825,-0.009769943176105153,-0.015423843035241589
1773790160366792200,9.161792236328125,0.0469470446139574,-0.0043862545434967615,-0.007224051235709339
1773790160386756000,9.181756103515625,0.0367693494707346,-0.01041452012337977,-0.010084975358471273
1773790160406720300,9.20172021484375,0.05756897639334201,-0.012013484319194684,-0.004546694385772571
1773790160426684200,9.22168408203125,0.04155541470348835,-0.008271601226995698,0.00864208307377994
1773790160446648000,9.24164794921875,0.043351650470495225,-0.010919599551707506,0.005017179708043113
1773790160466611200,9.261611083984375,0.02853694317638874,-0.00827420645932434,0.0017586254366673529
1773790160486575000,9.2815751953125,0.029136662635207176,-0.0007469413432059809,-0.0011755191859323532
1773790160506539000,9.3015390625,0.048290275916457175,-0.00904210610887967,-0.005806649585301056
1773790160526503200,9.321503173828125,0.03676642686128616,-0.014009774986235424,-0.010339708171365782
1773790160546467000,9.341467041015624,0.05322597875297069,0.0012595487741520629,0.002733443551883101
1773790160566431000,9.361430908203126,0.03122866647839546,0.006162748996994923,0.005873933534696698
1773790160586395100,9.38139501953125,0.034520693761110305,-0.017819953524693847,-0.005362750875856727
1773790160606358000,9.40135791015625,0.05127952086031436,-0.00258987949588336,-0.0045882411057129495
1773790160626322000,9.421322021484375,0.03796118960380554,-0.007441201117727905,0.003542339648818597
1773790160646286000,9.4412861328125,0.028383798441290853,0.00023792095870012417,0.012424515088787301
1773790160666250000,9.46125,0.04933306296765804,-0.006241191377933137,-0.0019341737998183816
1773790160686214100,9.481214111328125,0.04245090223848819,-0.002987607825908344,0.009657068802602588
1773790160706178300,9.50117822265625,0.03691314185559749,0.0019321051403181626,-0.002971435292530805
1773790160726142200,9.52114208984375,0.03526712821424007,-0.005478493059880566,-0.0071337334705982355
1773790160746106000,9.541106201171875,0.043346974295377726,-0.00383647060705116,-0.002140765755204484
1773790160766069200,9.5610693359375,0.04574059143364429,0.0019056989072938448,0.002516476332955062
1773790160786033200,9.581033203125,0.04618950424492359,-0.0035366314272396266,-0.008384528116136788
1773790160805997000,9.6009970703125,0.04050269078016281,0.00018455593680264429,0.002102178177330643
1773790160825961200,9.620961181640626,0.04110124119520187,-0.0033839958655065856,-0.0035804066368844358
1773790160845925000,9.640925048828125,0.03392038978040218,-0.005771391042252071,-0.006662901088455691
1773790160865889000,9.660888916015624,0.043944940188527105,0.002087160988000687,0.013010891008842736
1773790160885853000,9.68085302734375,0.04244739510715007,-0.009660180925007443,0.006926566126476973
1773790160905816000,9.700816162109374,0.030028058516979216,-0.0025393320521572603,-0.0020907343347091227
1773790160925780000,9.720780029296876,0.04289747696220875,-0.00016118419436970724,0.003865854248451069
1773790160945744100,9.740744140625,0.04140110092461109,-0.006387780791369732,0.0013151651186402886
1773790160965708000,9.7607080078125,0.052176761960983274,-0.006510598886862862,-0.009988090855255722
1773790160985672000,9.780671875,0.0312269129127264,-0.003960437196725979,0.009963741865288466
1773790161005636000,9.800635986328125,0.04304711456596851,-0.003949146334442775,0.003788003239268437
1773790161025600300,9.820600341796874,0.04903320323824882,-0.006143000833620317,0.008091938377730548
1773790161045564200,9.840564208984375,0.043349312382936475,0.003828090937773231,0.0028631891450844704
1773790161065527300,9.86052734375,0.0423024336785078,0.0026704955675988457,0.012869765505101532
1773790161085491200,9.8804912109375,0.046941199395060536,0.010967507513775489,0.0008982092150487005
1773790161105455000,9.900455078125,0.03796352769136429,-0.01597548100205604,0.0017500859371852129
1773790161125419300,9.920419189453124,0.037215339672565455,-0.001201425378746353,0.012667986722150817
1773790161145383200,9.940383056640625,0.033175708892941476,-0.001679609950282611,-0.007110261263465509
1773790161165347000,9.96034716796875,0.04439911369681358,0.0006646972866961732,0.004794367270218208
1773790161185311000,9.98031103515625,0.03482113801240921,-0.002957151038851589,-0.0007969955965876579
1773790161205274000,10.000274169921875,0.026590485283732413,0.0030260766727733426,0.0005896821219939739
1773790161225238000,10.020238037109374,0.04559387643933296,0.0006138552987365983,0.009003673794632776
1773790161245202200,10.0402021484375,0.05202829340100288,-0.0033603021793765946,-0.005221625372115522
1773790161265166000,10.060166015625,0.0291354935914278,-0.011634262043528723,-0.0005226173683069646
1773790161285130000,10.0801298828125,0.03796469673514366,-0.007565459968347568,-0.003971670976793394
1773790161305094000,10.100093994140625,0.040808980250358576,-0.00604030079426011,0.003713184437388554
1773790161325058800,10.120058837890625,0.0230009363591671,-0.003165112967416644,-0.0002494173169601708
1773790161345022000,10.14002197265625,0.03691664898693561,0.0014558476643869653,0.00026482494864612816
1773790161364985900,10.15998583984375,0.052477790734171866,-0.006689638398331589,0.0011994480507913977
1773790161384950000,10.179949951171874,0.037814474609494206,0.0009189848583075217,-0.0033439218667335804
1773790161404914000,10.199913818359375,0.056221653437614434,-0.011570962432795203,0.01238359855650924
1773790161424877800,10.2198779296875,0.0334796602755785,0.0054375673944479785,-0.00891431501074694
1773790161444842000,10.239842041015624,0.032281390401721,-0.00296536174477078,0.004018871119385585
1773790161464806000,10.259805908203125,0.044401451784372326,-0.002486946561082732,0.004801345000276342
1773790161484768800,10.279768798828124,0.04215688772797584,-0.01000818607850233,0.004765826162323355
1773790161504733000,10.29973291015625,0.037818566262722016,0.008994033750030212,0.010991577942529692
1773790161524696800,10.31969677734375,0.042458501023054124,0.008010523154994008,-0.014513212730037047
1773790161544660700,10.33966064453125,0.035874446457624436,-0.0026998906254419126,-0.003627122722286731
1773790161564625000,10.359625,0.04665010749399662,-0.004761987954133655,-0.010602414228161796
1773790161584588800,10.3795888671875,0.036623218998312945,-0.0005676461034105159,-0.002895009055454284
1773790161604552700,10.399552734375,0.039166473740339276,0.006377736604679375,-0.0030009353816509246
1773790161624515800,10.419515869140625,0.033328853628039355,0.009073412279307375,0.00026865174039267004
1773790161644479700,10.439479736328124,0.031083705049753187,0.0009249853408313356,-0.0033021742173936215
1773790161664444000,10.45944384765625,0.03377718191742897,-0.010913996361405588,-0.002418687647441402
1773790161684408000,10.479407958984375,0.030635961282253262,0.004204810729098972,-0.0027805614960845558
1773790161704372000,10.4993720703125,0.04724748886525631,-0.015499787498416844,-0.0023011987476143983
1773790161724335900,10.5193359375,0.04171148204803467,-0.008000401336490177,-0.004707373973354697
1773790161744299800,10.5392998046875,0.04186111965179443,-0.004466288376611192,0.004113499733433127
1773790161764264000,10.559263916015626,0.04620061016082763,0.009051686787977815,-0.00020311222351156175
1773790161784226800,10.579226806640625,0.03961772463917732,-0.001302442634385079,-0.0029582561505492773
1773790161804191000,10.59919091796875,0.049941550254821776,-0.0024660704531241206,-0.004660548290098086
1773790161824155000,10.61915478515625,0.04620236372649669,-0.008669471120915841,-0.006715453259600326
1773790161844118800,10.639118896484375,0.03183773828744888,-0.0028507018395583146,-0.012603433585958555
1773790161864082700,10.659082763671876,0.041861704173684115,-0.0027870780018391084,-0.011923945155506953
1773790161884046800,10.679046875,0.04096329402923584,0.007780235230189282,-0.00016636954285204408
1773790161904009700,10.699009765625,0.039616555595397944,-0.0021707932839985004,0.0029673071066848933
1773790161923974000,10.718973876953125,0.03931552682220935,-0.010552442173170857,0.00048467824440449474
1773790161943937800,10.738937744140625,0.04335398855805397,-0.0015590934097301215,-0.004316456693317741
1773790161963901700,10.758901611328126,0.04963935243785381,-0.0032231929803383536,-0.008399077231297269
1773790161983865900,10.778865966796875,0.028991116684675217,0.0013842026337049901,0.002827515043504536
1773790162003830000,10.798830078125,0.04889408702850342,-0.005320037395425606,-0.0054689329303801056
1773790162023794000,10.8187939453125,0.03827098620533943,-0.0027362337305909023,-0.0021259517785627395
1773790162043757800,10.8387578125,0.04919570032358169,-0.0008874777584802359,0.0006483078408986329
1773790162063721000,10.858720947265626,0.03902326587736606,-0.005675472370127681,-0.0032874972380697726
1773790162083684900,10.878684814453125,0.04920037649869918,-0.0025331489065429195,-0.0036763960909564045
1773790162103649000,10.89864892578125,0.05189619145393371,-0.00024261083354940637,-0.00381148457955569
1773790162123613000,10.918613037109376,0.05294423920214176,-0.008263650815980508,-0.00758891162588261
1773790162143576800,10.938576904296875,0.03753215053677559,0.005800594303850084,-0.00523254862492904
1773790162163540700,10.958540771484374,0.03558978429734707,-0.003695329120289534,-0.0025789288436062633
1773790162183504000,10.97850390625,0.0454658661454916,-0.000006311009777709841,0.0001166303833015263
1773790162203467800,10.9984677734375,0.04935702836513519,-0.008540606877126265,0.006955828753579408
1773790162223432000,11.018431884765626,0.034842765322327614,-0.004088940680911765,0.000030349472491070626
1773790162243395800,11.038395751953125,0.04456862504482269,-0.0061726402033469635,-0.002329465860873461
1773790162263359700,11.05835986328125,0.046513913893699646,0.000014464633481111377,0.0005165072879288346
1773790162283323600,11.07832373046875,0.03574117546677589,0.004545790203474462,-0.008527023593056947
1773790162303287800,11.098287841796875,0.04801262801885604,-0.005467469342367258,0.0035053686392959205
1773790162323250700,11.118250732421876,0.03529284717738628,-0.0013101601499598472,-0.013193499300442635
1773790162343214800,11.13821484375,0.04142798893153667,-0.007345704854000359,0.00817664838596247
1773790162363178800,11.1581787109375,0.026763503763079642,0.0003733154079760425,-0.0094716566325631
1773790162383142700,11.178142578125,0.040380525705218315,0.007533240482467226,0.0008456753102131187
1773790162403106800,11.19810693359375,0.026614450681209562,-0.0020319602020434104,-0.0011296616170555353
1773790162423070700,11.21807080078125,0.031251462832093235,-0.0050037151549826376,-0.005335159616032615
1773790162443034600,11.23803466796875,0.04412029675543308,-0.009470784416305831,0.003018544103577733
1773790162462997800,11.257997802734375,0.033496026888489724,-0.009577980250981636,-0.004438174243690446
1773790162482961700,11.277961669921876,0.029456396108865735,0.0039018525770166887,0.0006152914872858673
1773790162502925600,11.297925537109375,0.04576455683112144,0.005964660008472856,0.00043716757455840706
1773790162522889700,11.3178896484375,0.04411912771165371,0.0019938132988754657,0.003284145370358601
1773790162542854000,11.33785400390625,0.022270868518948553,-0.005122695042286068,0.000512379102082923
1773790162562817800,11.35781787109375,0.03723404437303543,-0.007512311858870089,-0.005610980882728472
1773790162582781700,11.37778173828125,0.050400399938225746,0.001714331920503173,0.0061914476518053554
1773790162602744800,11.397744873046875,0.03079728932380676,-0.011509754314448218,-0.007390493843797594
1773790162622708700,11.417708740234374,0.035734161204099654,0.000109052148333285,-0.005254002404911444
1773790162642673000,11.4376728515625,0.03887538183927536,-0.014638704556517768,0.0018954583577811717
1773790162662636800,11.45763671875,0.029746903488039968,-0.007835801342327612,-0.00510896791103296
1773790162682600700,11.4776005859375,0.04051788834929466,-0.005341925000248011,-0.0016482603973709045
1773790162702564600,11.497564697265625,0.04306231213510036,-0.003999501981923822,0.0011569697490893304
1773790162722528800,11.51752880859375,0.030941666230559346,0.003737572243262548,0.003130324781825766
1773790162742491600,11.53749169921875,0.05503332043588161,-0.003319460995623376,-0.01017611510748975
1773790162762455800,11.557455810546875,0.03259001795947552,-0.009612962516106199,-0.002971206963667646
1773790162782419700,11.577419677734374,0.028549218136072158,0.005939783578831702,0.0008138371335342526
1773790162802383600,11.597383544921875,0.03812777834236622,0.00403937961787451,-0.011305301800509914
1773790162822347500,11.617347412109375,0.041570027750730515,0.0012277494133799336,-0.014030534646473825
1773790162842311700,11.637311767578124,0.030496845072507855,0.0008106839119340292,0.00019055413603782652
1773790162862275800,11.65727587890625,0.040672202128171915,0.00717157897966681,-0.009392883174773305
1773790162882238700,11.67723876953125,0.046208793467283245,-0.008048272765940055,-0.015193970668967813
1773790162902203000,11.697202880859376,0.039923429587483406,-0.008394718433299567,0.0021910255045630034
1773790162922166800,11.717166748046875,0.0385772756755352,0.0033091724970494393,-0.0017292075459379701
1773790162942130700,11.737130615234374,0.037379590323567385,0.0013100094529101625,-0.006179958143411204
1773790162962094800,11.7570947265625,0.037679450052976605,0.00008807100909762084,-0.011571295792935416
1773790162982058800,11.777058837890625,0.039627076989412306,0.0024090932686114683,0.004701565287075936
1773790163002022700,11.797022705078126,0.049505496925115584,0.0022113536232500337,-0.00907283004070632
1773790163021985800,11.81698583984375,0.03244564105272293,0.0009743911402416414,-0.010471928849443793
1773790163041949700,11.83694970703125,0.0343903453797102,-0.010314450432523154,0.0031621538253501055
1773790163061913900,11.856913818359375,0.04247136050462723,0.006341279335098806,-0.00241097926502116
1773790163081877800,11.876877685546875,0.0378320102661848,-0.010065441824228036,-0.00791125718173571
1773790163101841700,11.896841552734376,0.045313890454173084,0.00930411576264305,-0.012214507333608344
1773790163121805600,11.9168056640625,0.04501403072476387,-0.0019690510336658916,-0.002906818224256858
1773790163141768700,11.936768798828124,0.03603635902106762,0.0014954718552995473,0.012442160343332216
1773790163161732600,11.956732666015625,0.04217091625332832,-0.003349481674551498,0.003826344221970066
1773790163181696800,11.97669677734375,0.041271921586990355,-0.00879069890587707,0.0013704755024518817
1773790163201660700,11.99666064453125,0.04216974720954895,-0.0017152109866263344,-0.010444374122237785
1773790163221624600,12.01662451171875,0.04546411257982254,-0.00002207026791293174,-0.0028317710935138163
1773790163241588700,12.036588623046875,0.03439268346726894,0.004888404512510169,0.005752782239904627
1773790163261553000,12.056552978515626,0.04666355149745941,0.015265544917702208,-0.008471393548836931
1773790163281515800,12.076515869140625,0.028707039046287536,-0.001859480578813236,0.015031738445116205
1773790163301480000,12.09647998046875,0.04023088810145855,0.009102179432776756,-0.000963675666693598
1773790163321443800,12.11644384765625,0.03409691539108753,-0.01639699320811196,-0.005050132129574194
1773790163341407500,12.136407470703125,0.04547171136438846,0.00010758741867612116,0.003283551715314388
1773790163361371400,12.156371337890626,0.04038461735844612,-0.007299736545624909,0.0035719676021020857
1773790163381335600,12.17633544921875,0.047716275420784944,0.003811779123789165,-0.0055544283899012946
1773790163401298400,12.19629833984375,0.02123100407719612,0.008486908495088574,-0.0033296010804362594
1773790163421262600,12.2162626953125,0.032902152648568155,-0.011242647218814817,-0.010914466718863695
1773790163441226500,12.2362265625,0.035896658289432525,0.0012482887362653854,-0.014309936109744011
1773790163461190400,12.2561904296875,0.044726445955038066,0.000576622852665605,0.003554221882857382
1773790163481154600,12.276154541015625,0.042481881898641584,0.0060816488680895415,-0.007684691017400473
1773790163501118500,12.296118408203125,0.038593057766556735,0.0005926766550343017,-0.010628872976824641
1773790163521082400,12.316082275390626,0.03470131102502346,0.000245862236560788,-0.0093540307354182
1773790163541045500,12.33604541015625,0.0415834717541933,-0.00025343248001881874,-0.00524226630134508
1773790163561009400,12.356009521484374,0.0504109213322401,0.0002546015237981919,-0.00039278044356033204
1773790163580973300,12.375973388671875,0.02856266213953495,-0.012534626683045643,-0.0028283278942573815
1773790163600937500,12.3959375,0.044423663616180414,0.0014660105820861644,-0.0035320557168219235
1773790163620901600,12.415901611328126,0.03604454232752323,-0.0019833033213042654,-0.0013195764322765171
1773790163640865500,12.435865478515625,0.03724047411382198,-0.0033849765379738526,-0.0032010336641687897
1773790163660829400,12.455829345703124,0.03738835815191269,0.006342560260021128,-0.012220233821496366
1773790163680792600,12.47579248046875,0.04097907612025738,-0.007393946176208555,-0.006612065950362012
1773790163700756500,12.495756591796875,0.04546761971116066,-0.0070195553392870345,0.0025385329011362043
1773790163720720600,12.515720703125,0.0399321974158287,-0.0035780126087542156,-0.0009480762387625872
1773790163740684500,12.5356845703125,0.03379822470545769,-0.004835882024117745,0.002237549793720245
1773790163760648400,12.5556484375,0.03963350673019886,0.005339569788024527,-0.012664351726649328
1773790163780612400,12.5756123046875,0.03409516182541847,-0.002612699824111769,-0.004479355637449771
1773790163800575500,12.595575439453125,0.04232698359787464,0.0035651268693618473,0.004412373082153499
1773790163820539400,12.615539306640626,0.04068038543462753,0.0024861793761025183,-0.0011011296423152088
1773790163840503600,12.635503662109375,0.04786299041509628,-0.008793120333470869,-0.008744191741384565
1773790163860467500,12.655467529296875,0.0366384165674448,0.0023171566518605685,-0.0022090269521344453
1773790163880431400,12.675431396484376,0.03693827629685402,-0.002341619806259405,-0.0041932687050662935
1773790163900395500,12.6953955078125,0.050553544673323625,0.005637904280627845,0.002031195300351828
1773790163920359400,12.715359375,0.04382043702602386,0.0048242201274319085,-0.002170841233059764
1773790163940322300,12.735322265625,0.04052957878708839,0.005345224352320656,-0.011533740261523052
1773790163960286500,12.755286376953125,0.053097383937239645,-0.0047612618683488105,-0.0010894026719033716
1773790163980250600,12.775250732421876,0.03723404437303543,0.0011080411570030264,-0.006547896406659856
1773790164000214500,12.795214599609375,0.0378320102661848,-0.007466184861934743,-0.002001138088805601
1773790164020178400,12.815178466796874,0.03618599662482738,0.0008447357369412202,-0.0030308738621883094
1773790164040142600,12.835142578125,0.044864393121004105,-0.014142250250995856,-0.001832183863222599
1773790164060105500,12.85510546875,0.03289338482022285,0.0005773409469402395,-0.007481359598180279
1773790164080069600,12.875069580078126,0.029303835895657538,0.006818307420943165,-0.00042996151563711463
1773790164100033500,12.895033447265625,0.039032033705711365,0.0005474093162687495,-0.0011535904819145798
1773790164119997400,12.91499755859375,0.03663783204555511,-0.0048057871383090965,0.0039319508877582844
1773790164139961600,12.934961669921876,0.03334638928472996,-0.011385583370440872,-0.014041393967205659
1773790164159925500,12.954925537109375,0.03424363038539886,-0.0010685014477698131,0.000943902387144044
1773790164179888400,12.974888427734374,0.04711363335251808,-0.00035951292819809167,-0.015295586146228014
1773790164199852500,12.9948525390625,0.03409691539108753,-0.003812351087591378,-0.01080189145617187
1773790164219816400,13.01481640625,0.038137130692601204,0.0028539669423014854,-0.007058923801872879
1773790164239780400,13.0347802734375,0.038137130692601204,0.0069210930836270555,-0.0009196173292584717
1773790164259744500,13.05474462890625,0.054447044980525966,-0.0029157698573369995,-0.005242019706172868
1773790164279708400,13.07470849609375,0.03753799575567245,-0.0025702865961357018,0.0014931703003589062
1773790164299671300,13.09467138671875,0.046665889585018154,0.008229391211707843,-0.0136010206554085
1773790164319635500,13.114635498046875,0.04756196164190769,-0.011498345862800487,-0.0027038521312177178
1773790164339599000,13.13459912109375,0.04187281008958816,-0.0004172276149387471,0.003930644846661016
1773790164359563000,13.15456298828125,0.034840427234768864,-0.00130590866652783,-0.013645252522779629
1773790164379527200,13.174527099609374,0.046212885120511055,-0.00565266916656401,-0.0015294015243649483
1773790164399491000,13.194490966796875,0.035438393127918244,-0.011842292470752726,-0.005975786473974586
1773790164419454200,13.2144541015625,0.04366787681281566,-0.0043587614650838075,-0.002653510183468461
1773790164439418000,13.234418212890626,0.03633446518480778,0.0005665752410423011,0.007616566817788406
1773790164459382000,13.254382080078125,0.032142274191975594,-0.002426466811809223,0.0003006543138530105
1773790164479346000,13.274345947265624,0.03064531363248825,0.008368940104648935,-0.0017419665628112852
1773790164499310300,13.294310302734376,0.043213703304529186,-0.0006967934749904088,-0.0042187319398857654
1773790164519274200,13.314274169921875,0.043809915632009505,-0.003150056962179951,-0.006921287163160741
1773790164539238100,13.334238037109374,0.041863457739353176,0.0006471833212475758,0.015184444788796827
1773790164559201300,13.354201171875,0.030190555602312086,-0.0032392239498207345,-0.000015106237586587667
1773790164579165200,13.374165283203125,0.037971710997819895,-0.0066745652684301595,-0.001489590103784576
1773790164599129000,13.394129150390626,0.0426075541049242,0.001294082373060519,-0.0037034941604360935
1773790164619093200,13.41409326171875,0.029289222848415373,0.005989848107012221,-0.010407430512178689
1773790164639057200,13.43405712890625,0.04679506892263889,-0.0026067461490049027,-0.0062499272402375934
1773790164659021000,13.45402099609375,0.03377659739553928,-0.002683396148367319,-0.008350863308552652
1773790164678984200,13.473984130859375,0.03437631685435772,0.0017616165447747333,-0.010352421522466465
1773790164698948000,13.493947998046876,0.04514847075939178,-0.0015324793974403291,0.0002125193726737052
1773790164718912000,13.513912109375,0.03452303184866905,-0.008849958237376995,-0.011529749072995036
1773790164738876200,13.533876220703124,0.04798983166515827,0.004542488568113185,-0.0034100733049679545
1773790164758840000,13.553840087890626,0.041108839979767796,-0.004939705441484693,0.009604617096157744
1773790164778804000,13.573803955078125,0.03871463831961155,0.0038141035116161215,-0.004288646237784997
1773790164798767000,13.59376708984375,0.04380348589122295,-0.008181452425243332,0.0023492300072684882
1773790164818731000,13.61373095703125,0.037517537489533424,-0.008553119298827369,-0.007308523781923577
1773790164838695200,13.633695068359375,0.03347732218801975,-0.004118605166813358,-0.0004237418374046683
1773790164858659000,13.6536591796875,0.049938043123483655,0.00006577697889879346,-0.004224074835283681
1773790164878623200,13.673623291015625,0.050237318331003186,-0.002813408886338584,0.005079084229422733
1773790164898587100,13.693587158203124,0.03781564365327358,-0.0101651461889036,-0.008885755636543036
1773790164918550300,13.71355029296875,0.037816228175163266,0.0005226790171000174,0.009062500442937016
1773790164938514200,13.73351416015625,0.04843932899832725,-0.013883296779065859,0.004948617117013782
1773790164958478300,13.753478271484376,0.03317687793672085,-0.002433734519523568,0.002950273773493245
1773790164978442200,13.773442138671875,0.03901215996146202,-0.004506506222567986,-0.007354061690391972
1773790164998406100,13.79340625,0.04005903866589069,-0.001374083098489791,-0.0024072438048198816
1773790165018370000,13.8133701171875,0.049335401055216783,-0.007672836182825267,0.0033615214555058628
1773790165038333200,13.833333251953125,0.038711715710163117,-0.008124562005698681,-0.004921793042169884
1773790165058297000,13.853297119140626,0.041703298741579055,0.002840091397287324,0.0029531598503235727
1773790165078261200,13.87326123046875,0.0393090970814228,0.0005865060675074346,-0.01066491240458563
1773790165098225200,13.89322509765625,0.04155366113781929,-0.0036891436913865615,-0.0063472227354068305
1773790165118189000,13.91318896484375,0.043051206219196315,-0.006574610883649438,0.007740850784583017
1773790165138153000,13.933153076171875,0.03631751405000686,-0.006247801498521585,0.006394916068343445
1773790165158116000,13.9531162109375,0.03332476197481155,-0.0007333283763844519,0.003846510227164253
1773790165178080000,13.973080078125,0.04020809174776077,-0.0006397797578596509,0.005798950336035341
1773790165198044200,13.993044189453125,0.03961012585461139,-0.0053724297363660295,0.003809438752941787
1773790165218008000,14.013008056640626,0.04379939423799514,0.001119471299892757,0.005161310019623488
1773790165237972200,14.03297216796875,0.05307809471487999,-0.010691989924467633,0.006432699928618967
1773790165257935000,14.05293505859375,0.045447161445021624,-0.004653629925544373,0.009041485054371879
1773790165277899300,14.072899169921875,0.037816812697052955,0.003469306378648616,0.003870621755113825
1773790165297863200,14.09286328125,0.03841536311209202,-0.004487929386261385,-0.002989719867892563
1773790165317827300,14.112827392578126,0.051285950601100916,-0.002855330065614544,0.0007624083403963595
1773790165337791700,14.132791748046875,0.03362988240122795,-0.006622285950277001,0.0000664071665611118
1773790165357755600,14.152755615234375,0.04066401882171631,-0.004326254284835886,0.0013428020442370324
1773790165377718800,14.17271875,0.04560205974578857,-0.004733166001737118,-0.00914397731446661
1773790165397682700,14.1926826171875,0.046051557078957556,-0.004680232521391008,0.009238459798041731
1773790165417646800,14.212646728515624,0.038272739771008486,-0.0013524831880349665,-0.002141980464756489
1773790165437610800,14.23261083984375,0.02629997790455818,-0.015188141433091367,0.010995888791466131
1773790165457575000,14.252574951171875,0.047698155242204665,-0.0035496347559965213,-0.010115726689761503
1773790165477538800,14.272538818359376,0.0463502477645874,-0.005664087893010582,-0.011670847177272662
1773790165497502000,14.292501953125,0.0393137732565403,-0.0009576706175925209,-0.003060291752917692
1773790165517465900,14.3124658203125,0.044701896035671235,-0.004633507302834187,-0.003006944997329265
1773790165537429800,14.3324296875,0.03512508939504623,-0.011180631957936565,-0.0004414692903403193
1773790165557393700,14.3523935546875,0.04230827889740467,-0.012704975997982546,-0.0005972169744782149
1773790165577357800,14.37235791015625,0.04096212498545646,-0.0009269855016726068,0.002661565625760704
1773790165597321700,14.39232177734375,0.049341246274113654,0.004236632922757417,-0.0027100261436775325
1773790165617284900,14.412284912109374,0.03617372166514397,0.008607379369868431,-0.0007814966333564371
1773790165637248800,14.432248779296875,0.04126256923675537,-0.00020294326015282422,-0.008802333403099327
1773790165657212700,14.452212646484375,0.030340193206071852,-0.014008128735132049,-0.00964526876695454
1773790165677176800,14.4721767578125,0.03767302031219005,-0.0055559947259025645,0.001983100108616054
1773790165697140700,14.492140625,0.036325697356462475,-0.009579603669198695,-0.008764001553552225
1773790165717104600,14.512104736328125,0.04605097255706787,-0.013744246784690767,-0.0032885840834584084
1773790165737067800,14.53206787109375,0.03871931449472904,0.0019790655376040376,0.001040056237997487
1773790165757031700,14.55203173828125,0.031686347118020056,-0.007718513371900189,-0.004191213745297863
1773790165776995600,14.57199560546875,0.03766951318085193,-0.005499611196434125,-0.010626123897312208
1773790165796960000,14.5919599609375,0.03901508257091045,-0.0059941669474588705,-0.007138190450007096
1773790165816924000,14.611923828125,0.05113514395356178,0.0075393848121748305,0.004429890472535044
1773790165836886800,14.63188671875,0.04380231684744358,-0.0072478796358685935,-0.0016338756789918989
1773790165856851000,14.651850830078125,0.039163551130890845,-0.004389563028723933,-0.007175197992147877
1773790165876814800,14.67181494140625,0.04873918872773647,-0.0005631571579608135,-0.0038332397536374628
1773790165896778800,14.69177880859375,0.0429039067029953,-0.009703766621695831,-0.006995475777378305
1773790165916743000,14.711742919921875,0.030933482924103736,-0.006880320398532785,-0.006450445647863671
1773790165936706800,14.731706787109376,0.042455578413605685,-0.00015049840357387437,-0.0025495018197223543
1773790165956669700,14.751669677734375,0.03347790670990944,-0.014076501813204958,0.0033966567009687423
1773790165976633900,14.7716337890625,0.037816812697052955,0.006410595411376562,-0.005528618095209822
1773790165996597800,14.79159765625,0.03661912734508514,-0.0005562068273662589,0.0019896120477933435
1773790166016561700,14.811561767578125,0.04230418724417686,0.009758012993005103,-0.007038976992387324
1773790166036525800,14.83152587890625,0.04619476494193077,-0.004584446280007251,0.00014530848851427436
1773790166056488700,14.85148876953125,0.04006079223155975,-0.012891662243078462,-0.0005122603710740805
1773790166076452600,14.87145263671875,0.04514788623750209,-0.006719725292630027,-0.012909878319781272
1773790166096416800,14.891416748046876,0.044398529174923894,-0.0046428117040079086,0.0031832422791514543
1773790166116380700,14.911380615234375,0.03347556862235069,-0.001444054478604812,-0.0025417934373021126
1773790166136344600,14.931344482421874,0.052182022657990455,-0.00370863612643443,-0.0011528780958615242
1773790166156309000,14.95130908203125,0.04320493547618389,-0.004449675168527755,-0.005862115232739597
1773790166176271600,14.971271728515624,0.046046880903840064,-0.013350564442120957,-0.004147018410544843
1773790166196235800,14.99123583984375,0.033626959791779515,0.002933295239228755,-0.0007217566695995628
1773790166216200000,15.011199951171875,0.04619593398571014,0.0010023796922876498,-0.0036743045985698696
1773790166236163800,15.031163818359374,0.0399105701059103,0.0011910660982248373,0.002048456962406635
1773790166256127700,15.051127685546875,0.039760932502150535,0.0006544133546994999,-0.0003138699884526431
1773790166276091000,15.0710908203125,0.033623452660441394,-0.0018988010923378167,0.004296537283295765
1773790166296054800,15.0910546875,0.04678980822563171,-0.0004295550902606919,-0.005742041650181636
1773790166316019000,15.11101904296875,0.03631634500622749,0.010068448915355839,-0.0000011325111612677574
1773790166335982300,15.130982421875,0.04185410538911819,-0.005621321896940935,0.002744622533023357
1773790166355946200,15.1509462890625,0.04484802650809288,0.003731421063689049,-0.003451565225981176
1773790166375910400,15.170910400390625,0.035868601238727565,-0.0017581276797456666,0.006609408202394843
1773790166395873300,15.190873291015626,0.04065466647148132,0.00022674426084849983,-0.001605873427214101
1773790166415837200,15.210837158203125,0.0396054496794939,-0.011032462508766912,0.0024056911685504017
1773790166435801300,15.23080126953125,0.030627193453907964,-0.0027427867689635605,0.0010240823507308959
1773790166455765200,15.25076513671875,0.037511692270636554,-0.014865916891535743,-0.0021796090614050623
1773790166475729400,15.2707294921875,0.04349836546480655,-0.002465015573776327,0.010761605111556128
1773790166495692300,15.2906923828125,0.034219664987921714,-0.00013586937331128864,0.003787446116842329
1773790166515656400,15.310656494140625,0.043349312382936475,-0.009098852681240532,0.008922589648747816
1773790166535620400,15.330620361328124,0.02913432454764843,-0.0033830140513950026,-0.007861837682593614
1773790166555584500,15.35058447265625,0.03541910390555859,-0.00706947716192808,-0.0077358732153661545
1773790166575548400,15.37054833984375,0.04185468991100788,-0.008033200777682941,0.006264878214197233
1773790166595511600,15.390511474609376,0.04185293634533882,-0.0078111966240336185,0.010708468418521806
1773790166615475500,15.410475341796875,0.05472177026867866,-0.0038264538198243825,0.005736662222165614
1773790166635439400,15.430439453125,0.041702714219689366,-0.0047781011220067735,0.0059184576630126684
1773790166655403300,15.4504033203125,0.03661678925752639,-0.008980982472212053,-0.008567291671363636
1773790166675367400,15.470367431640625,0.04993336694836616,0.004067025676625781,-0.003993718411820009
1773790166695331300,15.490331298828124,0.0451432100623846,-0.017687874410510993,0.017359834332810714
1773790166715294500,15.51029443359375,0.04185293634533882,-0.0018048734479001723,-0.004577199121890589
1773790166735258400,15.53025830078125,0.046939445829391475,0.00044593083632644265,0.00689930366021581
1773790166755222300,15.55022216796875,0.04768646480441093,-0.008341828335437458,0.012054978523496537
1773790166775186200,15.570186279296875,0.04185001373589039,-0.0037219636821770106,-0.009463208464626222
1773790166795150300,15.590150390625,0.05471709409356117,0.0012832036443753167,0.009065751845948397
1773790166815113200,15.61011328125,0.0373573784917593,-0.011771864432911387,0.0016726550531107932
1773790166835077400,15.630077392578125,0.037657822743058206,0.002540905238024425,0.0007175554185174405
1773790166855041300,15.650041259765626,0.039753333717584605,-0.010172130768827628,-0.010991413545748218
1773790166875005200,15.670005126953125,0.03496668396294117,-0.004245775210438296,0.0028317893598228693
1773790166894969300,15.68996923828125,0.040056116056442256,0.0047969359699287445,0.005842259754799306
1773790166914932200,15.70993212890625,0.04214870442152023,-0.0017453618130064568,-0.003462625476112589
1773790166934896400,15.729896484375,0.03496726848483085,-0.010099526756920385,0.0017130144629627466
1773790166954860500,15.749860595703124,0.04050327530205249,-0.005095259046088904,0.0062942230396904044
1773790166974824400,15.769824462890625,0.05262392120659351,-0.0054053593250107945,-0.003283807443641126
1773790166994788400,15.789788330078125,0.03960428063571453,-0.011259510447003412,-0.006820448004035279
1773790167014751500,15.80975146484375,0.03167465668022632,0.002814906723680906,-0.0015139573600608854
1773790167034715400,15.82971533203125,0.04619067328870296,-0.0010934463760699144,-0.006829526359634474
1773790167054679300,15.84967919921875,0.03661620473563671,-0.01091645774655044,-0.007867043580673635
1773790167074643500,15.8696435546875,0.039459319207072255,-0.0017194647533469833,0.001546635786956176
1773790167094607400,15.889607421875,0.04290098409354687,-0.0074917987938039,-0.008457611618656664
1773790167114570500,15.909570556640626,0.037215339672565455,0.010344902653002645,-0.012573705167975275
1773790167134534400,15.929534423828125,0.05158171867728233,0.00007638057130388915,-0.00008675583484582602
1773790167154498300,15.949498291015624,0.0503846178472042,-0.009133376005350146,-0.012487278126692399
1773790167174462200,15.969462158203125,0.04754091885387897,-0.006210264233418274,0.0044231319381855426
1773790167194426400,15.98942626953125,0.03706687111258507,0.0007441123485914432,0.010089587601507083
1773790167214389200,16.00938916015625,0.045448330488801,-0.006099755346938036,0.00041584165873937307
1773790167234353400,16.029353515625,0.0379670348227024,0.001872212196222972,0.0015681717653293161
1773790167254317300,16.0493173828125,0.035571664118766784,-0.005174694657581858,0.00091714224438183
1773790167274281200,16.06928125,0.03272913416922092,-0.005567657764232717,-0.007310049018729478
1773790167294245000,16.0892451171875,0.037518706533312796,-0.0039543476659455335,-0.005459754110081121
1773790167314208300,16.109208251953124,0.04021276792287826,-0.0008519543539499863,-0.007921376716950907
1773790167334172200,16.129172119140627,0.04006371484100819,0.00003074448142433539,-0.00016013159831054509
1773790167354136600,16.149136474609374,0.03976327058970928,-0.0036082056759740226,0.003194567390764132
1773790167374100500,16.1691005859375,0.04006079223155975,-0.0012662502262857742,-0.005803763508470729
1773790167394064400,16.189064453125,0.041706221351027487,-0.010589287601818795,0.003222542243078351
1773790167414027500,16.209027587890624,0.03796645030081272,0.0048212872431846335,-0.00729288782137446
1773790167433991400,16.228991455078123,0.03647065878510475,-0.008809617093834094,0.009275768734281882
1773790167453955300,16.248955322265626,0.032280221357941626,-0.005671510864351876,0.0013890980045311151
1773790167473919500,16.26891943359375,0.0370697937220335,-0.006540818211901933,0.004477401142381131
1773790167493883400,16.28888330078125,0.031684009030461306,0.00042368932176614177,0.007983372569875791
1773790167513846300,16.30884619140625,0.04365443280935287,-0.00505489963623695,0.003810288136312738
1773790167533810400,16.328810546875,0.024050153151154517,-0.0022383124121231955,-0.0013076119998469949
1773790167553774300,16.3487744140625,0.04095803333222866,-0.00379416126870783,-0.004046215784037486
1773790167573738200,16.36873828125,0.04679389987885952,0.01080473871709546,0.003016087285010144
1773790167593702400,16.388702392578125,0.0376665905714035,-0.011604280180507338,-0.012562991977715864
1773790167613665300,16.408665283203124,0.04260463149547577,-0.007700692304130643,-0.004497740677511319
1773790167633629400,16.42862939453125,0.032875849163532256,0.01526185283998493,0.008805228613084182
1773790167653593300,16.44859326171875,0.04843874447643757,-0.00933626218328718,0.000536344499560073
1773790167673557200,16.46855712890625,0.04379939423799514,0.0030020998588530345,0.0010566785792354494
1773790167693521200,16.488521240234373,0.03826397194266319,-0.006041739266098011,-0.0021937837172299624
1773790167713484300,16.508484375,0.03661678925752639,-0.011213362900470383,-0.0019620481874328107
1773790167733448200,16.5284482421875,0.034222587597370145,0.0005085066445637494,-0.00975462915925309
1773790167753412400,16.548412353515626,0.04589432069063187,-0.006789954684360418,-0.001079447533469647
1773790167773376500,16.56837646484375,0.03197802354097366,0.00001697853426449001,0.001032439187122509
1773790167793340400,16.58834033203125,0.04230301820039749,0.0024522976560983805,0.010027135090855881
1773790167813303600,16.608303466796876,0.024496143352985382,-0.0023305321566644125,-0.01270178852705285
1773790167833267500,16.628267333984375,0.037214170628786084,-0.008395378303714096,0.011150988021632656
1773790167853231400,16.6482314453125,0.03526946630179882,-0.005706315032963175,-0.002682517082244158
1773790167873195500,16.668195556640626,0.03736497727632522,0.002533011909225024,-0.00408411837532185
1773790167893159400,16.688159423828125,0.039461072772741315,0.0010767235701321623,-0.009078209468722342
1773790167913122300,16.708122314453124,0.04020926079154014,0.0024540946042514405,0.002279343108832836
1773790167933086500,16.72808642578125,0.032277883270382876,0.005132453817897476,-0.0007006956152617931
1773790167953050400,16.74805029296875,0.03736556179821491,-0.006541939306620043,0.007263342066481709
1773790167973014300,16.76801416015625,0.04754208789765835,-0.0010379213631269521,0.0016266239542979746
1773790167992977400,16.787977294921873,0.031231589087843892,-0.003240507158031687,-0.004231143896887078
1773790168012941300,16.80794140625,0.05203063148856163,-0.002611557038151659,-0.0035846444205846636
1773790168032905200,16.8279052734375,0.055173021167516705,0.011451356924406717,0.006147672442160547
1773790168052869400,16.847869384765627,0.037215924194455144,0.00666460898835212,0.005436236237175762
1773790168072833300,16.867833251953126,0.04514613267183304,0.004147817561565898,-0.006689752562763169
1773790168092796400,16.88779638671875,0.04424830704927444,0.0013086486128857358,-0.0002623955295421183
1773790168112760300,16.90776025390625,0.04484627294242382,-0.0003272089606383815,-0.001273764529172331
1773790168132724200,16.92772412109375,0.03571604102551937,-0.008878935453400481,0.0017324863484129308
1773790168152688400,16.9476884765625,0.04678863918185234,0.0008758740856545045,-0.0073942293039988725
1773790168172652300,16.96765234375,0.037062194937467575,-0.0037330399153288453,0.0011322554329410194
1773790168192615200,16.987615234375,0.02718669761121273,-0.0011024585162987932,0.0022718447889667004
1773790168212579300,17.007579345703125,0.04289864600598812,-0.004291089356620796,-0.0005780556162819266
1773790168232543500,17.02754345703125,0.016411621096730233,0.001983415202447213,-0.0066567453423049296
1773790168252507400,17.04750732421875,0.03376899861097336,-0.009206434391695073,-0.006935096492804586
1773790168272470500,17.067470458984374,0.038107904598116873,0.006573012581607326,0.0031578064437955615
1773790168292434400,17.087434326171874,0.030624270844459532,0.008185340865782927,0.005049812469165772
1773790168312398300,17.1073984375,0.037356209447979925,-0.003505658616952132,0.014469391854619606
1773790168332362500,17.127362548828124,0.04079845885634422,0.004447104185528588,0.000017480857763439414
1773790168352326400,17.147326416015623,0.0330178879827261,-0.009470097146427724,-0.005249134433548897
1773790168372289500,17.16728955078125,0.05187281057834625,-0.012535533148632384,-0.004532875922974198
1773790168392253400,17.18725341796875,0.04887947398126125,0.0030155187461408783,-0.003634246582817286
1773790168412217300,17.20721728515625,0.039901802277565,0.003503491776040755,0.006662270900793374
1773790168432181200,17.22718115234375,0.03421674237847328,-0.0011360845079761929,0.002984148643631488
1773790168452145400,17.2471455078125,0.04334463620781898,-0.007407835420954506,0.003147887837979942
1773790168472108300,17.2671083984375,0.03975274919569492,-0.001454585005773697,-0.006848669451521709
1773790168492072400,17.287072509765625,0.051723172974586486,-0.0005275173057103529,-0.0002505315618123859
1773790168512036400,17.307036376953125,0.037058687806129455,-0.017816594807116778,0.01633756947983056
1773790168532000300,17.327000244140624,0.03361643839776516,0.002701427278690971,-0.008609313315339385
1773790168551964200,17.346964111328123,0.028231238228082656,-0.0013190649756230413,0.00923625870780088
1773790168571927300,17.36692724609375,0.036464229044318196,0.0009073515027295798,-0.00025368250012397763
1773790168591891200,17.38689111328125,0.044397944653034205,-0.0041163355779135595,-0.003450149587029591
1773790168611855400,17.40685546875,0.03886135331392288,0.009280255396442953,-0.015275986396614462
1773790168631819300,17.4268193359375,0.037515199401974675,-0.004703028875088784,-0.010852105539757758
1773790168651782400,17.446782470703123,0.03527063534557819,-0.010639104393182787,-0.0006711224609054625
1773790168671746300,17.466746337890626,0.027190789264440535,-0.005370751519221812,-0.007263661726890132
1773790168691710500,17.48671044921875,0.03886135331392288,-0.01199960420760326,-0.0033220753611065447
1773790168711674400,17.50667431640625,0.02868541173636913,0.0022159521665540524,-0.009111481550661847
1773790168731638500,17.526638427734376,0.04319850573539734,-0.004344011420523748,0.007761710909521206
1773790168751601400,17.546601318359375,0.04484393485486507,-0.0017196748159010893,-0.0016214180562179534
1773790168771565300,17.5665654296875,0.03870879310071468,-0.013841524013550951,0.00018273615576326846
1773790168791529500,17.586529541015626,0.03182721689343452,0.003152687310683541,0.002300157567998394
1773790168811493400,17.606493408203125,0.04050795147716999,-0.008290842500294092,-0.0063781841292511665
1773790168831456500,17.62645654296875,0.045747021174430844,-0.006159972518018912,-0.007065791934076696
1773790168851420400,17.64642041015625,0.03901274448335171,-0.0005516448166803456,-0.000306335135968402
1773790168871384300,17.66638427734375,0.05786649803519248,-0.007420386658562347,-0.00026556473416276274
1773790168891348500,17.686348388671874,0.044997079589962956,-0.005125551436364185,0.0031936723416205494
1773790168911312400,17.7063125,0.04484627294242382,-0.0025779424629174172,0.003151732896035537
1773790168931275300,17.726275146484376,0.03856207810640335,-0.011011638916446827,-0.00647859403011389
1773790168951239400,17.746239501953124,0.04095686428844929,-0.005132643330853898,0.008746392831625417
1773790168971203300,17.766203369140626,0.043052959784865376,-0.0022908189174951983,-0.011365772416628896
1773790168991167200,17.786167236328126,0.03961187942028045,-0.0021599408131325617,0.0033723259773105383
1773790169011130400,17.80613037109375,0.03841477859020233,-0.00945679242357146,-0.006780042928410694
1773790169031094300,17.82609423828125,0.035871523848176,-0.0029878156051738186,-0.016397291177278384
1773790169051058200,17.84605810546875,0.04065875812470913,0.0016089923994848504,-0.00753392090247944
1773790169071022300,17.866022216796875,0.03183130854666233,-0.005416778051457368,-0.007736393805174157
1773790169090985200,17.885985107421874,0.02868716530203819,-0.008857954314164817,-0.006284213102329522
1773790169110949400,17.905949462890625,0.03362286813855171,-0.014930616158200427,0.0017664890827145427
1773790169130913300,17.925913330078124,0.03601823884248733,-0.011114498786011244,0.0021344456122722477
1773790169150877200,17.945877197265624,0.04724047460258007,-0.00237508140115533,-0.001598630835674703
1773790169170841300,17.96584130859375,0.03601706979870796,-0.009132270893652457,0.014930013370001688
1773790169190804200,17.98580419921875,0.03541793486177921,-0.004687169152253773,-0.0015267894421704114
1773790169210768400,18.005768310546873,0.033623452660441394,-0.006634825771441683,0.004133419143455103
1773790169230732500,18.025732666015625,0.023598317730426786,-0.007863668880076146,-0.001901130046742037
1773790169250696400,18.045696533203124,0.038861937835812564,-0.0007099771835491993,0.00958181160930544
1773790169270659300,18.065659423828127,0.024048399585485457,-0.005840474223089404,0.00953873965255916
1773790169290623500,18.08562353515625,0.044997664111852645,-0.015286247495724818,0.001620267278747633
1773790169310587400,18.10558740234375,0.04424889157116413,-0.003806239865568932,-0.010036597038945183
1773790169330551800,18.1255517578125,0.05217910004854202,-0.00527261577383615,-0.005195203156070784
1773790169350516000,18.145515869140624,0.04200666560232639,0.0058392412472283465,-0.002832821406284347
1773790169370478800,18.165478759765627,0.02435118192434311,-0.0007270173666067421,-0.00012606493192724884
1773790169390443000,18.185443115234374,0.03108662765920162,-0.009172623453638515,-0.0005168908804189413
1773790169410407200,18.2054072265625,0.030637714847922323,-0.01012897661369061,-0.0009648903762456029
1773790169430371000,18.22537109375,0.04949322196543216,-0.007496751246845815,-0.0062703033079858864
1773790169450334000,18.245333984375,0.04096329402923584,-0.008727270289335865,0.0017217183592263608
1773790169470298000,18.265298095703123,0.041112931632995606,-0.02287518880435964,-0.0035571353591512885
1773790169490262000,18.285261962890626,0.03363163596689701,-0.01131344857434742,-0.006584155030129477
1773790169510226000,18.305225830078125,0.033334698846936225,0.0031584891470964067,-0.0013653883353807032
1773790169530190000,18.325190185546877,0.04500526289641857,0.0022727238550898617,0.0063221613593865186
1773790169550153000,18.345153076171876,0.0369260013371706,-0.008161731661332305,-0.001068679544283077
1773790169570117000,18.3651171875,0.05144260246753692,-0.001232261191715952,0.0012162439219653605
1773790169590081000,18.3850810546875,0.03198912945687771,-0.011636072691413573,-0.0010008293393068016
1773790169610045000,18.405044921875,0.024954993036389348,-0.01175326476371847,-0.00856968455784954
1773790169630008000,18.425008056640625,0.042611645758152,-0.00917206861450104,0.004206429580738768
1773790169649972000,18.444971923828124,0.030940497186779974,-0.005942964199895505,-0.004386745450552553
1773790169669935900,18.464935791015623,0.0273491946965456,-0.01238492058062693,-0.0012496256017591803
1773790169689900000,18.484900146484375,0.030941666230559346,-0.0021735377969336694,0.0018235073664225638
1773790169709863000,18.50486279296875,0.041418052059412,-0.011698917927709407,-0.002636668646521866
1773790169729826800,18.524826904296877,0.031242695003747937,-0.006957954495295416,-0.005791543347714469
1773790169749791000,18.544791015625,0.03692950846850872,-0.004262746894836891,-0.008804114368231966
1773790169769755000,18.5647548828125,0.02854863361418247,-0.01165607886640355,0.0035374625443015248
1773790169789718800,18.58471875,0.04052022643685341,-0.017058880908146966,0.006030594534287228
1773790169809682000,18.604681884765625,0.04306406570076942,-0.005826212802296504,0.0010739767739083618
1773790169829645800,18.624645751953125,0.04605740229785442,-0.0016377915189950726,0.0019206567311193792
1773790169849610000,18.64460986328125,0.03782908765673637,-0.005177877561934292,-0.005501154699549079
1773790169869574100,18.66457421875,0.04081950164437294,-0.005023579766077455,-0.002973563317535445
1773790169889537000,18.684537109375,0.04620587085783481,-0.004757978499296587,0.007557073449203744
1773790169909501200,18.704501220703126,0.03812368668913841,-0.010917756937781815,-0.004749742677202448
1773790169929465000,18.724465087890625,0.024209727627038956,-0.014324875667260492,-0.003677756930980831
1773790169949429000,18.744428955078124,0.03348725906014442,0.0067551779152126975,-0.004157201877841726
1773790169969392000,18.76439208984375,0.03199029850065708,0.004509919739072211,0.004983971558185294
1773790169989356000,18.78435595703125,0.05024608615934849,-0.0024458427991368805,0.00034629268702119584
1773790170009320000,18.80431982421875,0.03094283527433872,0.006519106420304161,0.009166280477819963
1773790170029284000,18.8242841796875,0.0330395152926445,-0.01025546167072607,-0.009187469396321103
1773790170049247000,18.8442470703125,0.03498538866341114,-0.005334613910049665,-0.002079400089941919
1773790170069211000,18.8642109375,0.03857786019742489,-0.009635322761675343,0.0007103584927506745
1773790170089175000,18.884175048828126,0.049801265001296995,-0.006308123700879514,0.0018610902972985058
1773790170109139000,18.904138916015626,0.032145196801424025,-0.008815220284136012,0.0012035853697918355
1773790170129102800,18.924102783203125,0.0414221437126398,0.004870051438489463,0.003954792907228693
1773790170149066000,18.94406591796875,0.04216916268765926,-0.010489318375661968,0.0006111359019763768
1773790170169030000,18.96402978515625,0.04336801708340644,-0.003017795184906572,-0.004589172687474638
1773790170188994000,18.983994140625,0.04336860160529613,-0.013278739031637087,-0.0024118195152375847
1773790170208958000,19.0039580078125,0.05054828397631645,0.0005692626717616803,0.0056509293006267395
1773790170228920800,19.0239208984375,0.04441314222216606,-0.013893539611867163,0.0043537108306307346
1773790170248885000,19.043885009765624,0.039923429587483406,-0.003236447470844723,-0.007726959256548434
1773790170268849000,19.063848876953124,0.05279167898893356,-0.012446409543475602,-0.003798415035428479
1773790170288812800,19.083812744140626,0.04501169263720512,-0.001714647014334332,0.004825356063526124
1773790170308777200,19.103777099609374,0.04636018463671207,-0.00968395680952817,-0.002502548272302374
1773790170328739800,19.12373974609375,0.04172024987637996,-0.005082331065856851,-0.007206177652301266
1773790170348703500,19.143703369140624,0.035136779832839964,-0.003969915127835702,0.0009941073375754057
1773790170368667400,19.16366748046875,0.03783142574429512,0.0019396080267615615,0.0011044815100263803
1773790170388631300,19.18363134765625,0.04501344620287418,-0.013342050058813764,-0.0036707518014591186
1773790170408594400,19.203594482421874,0.031246786656975743,-0.002677824924106244,0.0006801460175774991
1773790170428558300,19.223558349609377,0.04935293671190739,-0.004358998927101493,0.0031868133425712584
1773790170448522200,19.243522216796876,0.04112345302700996,-0.005358248230675235,0.003623926118202507
1773790170468486400,19.263486328125,0.046509822240471836,-0.0016351155047188513,-0.00356349203470163
1773790170488450300,19.2834501953125,0.0400759898006916,-0.0031925078644184394,-0.005700266601378098
1773790170508413400,19.303413330078126,0.05129822556078434,-0.0045054970089928245,0.005866471747448668
1773790170528377300,19.32337744140625,0.049503743359446524,-0.010915631196065805,-0.0036106739109847694
1773790170548341200,19.34334130859375,0.048155835881829256,-0.0021792094858945348,-0.003706690764520317
1773790170568305200,19.36330517578125,0.0352875864803791,-0.003234556907857768,-0.005541386245237663
1773790170588268300,19.383268310546875,0.037084406769275664,-0.008141905866144224,-0.00439070923961699
1773790170608232200,19.403232177734374,0.037385435542464256,0.009094370585656724,0.002224653779529035
1773790170628196400,19.4231962890625,0.029155367335677144,0.0033062613040441644,-0.005859941541962325
1773790170648160500,19.443160400390624,0.04741232403814792,-0.0034131831440841775,0.0030461718960199504
1773790170668123100,19.463123046875,0.051752399069070816,0.0035536921598948537,0.0018119265264831483
1773790170688087600,19.483087646484375,0.0369388608187437,-0.00285631644630339,0.002084788651112467
1773790170708051500,19.503051513671874,0.035143794095516205,-0.004903035826061386,0.003979689886467531
1773790170728015400,19.523015380859373,0.055794367936253544,-0.00561710237954976,-0.006648790364712476
1773790170747979500,19.5429794921875,0.04247779024541378,0.0005826792757608928,0.00016547449370846152
1773790170767942400,19.5629423828125,0.03305120573043823,-0.006282706131832674,-0.0021495153172407296
1773790170787906300,19.58290625,0.04053250139653682,-0.002361447884736117,0.006595288345497101
1773790170807870500,19.602870361328126,0.04202946195602417,0.0003631342239677906,-0.0010667798481415957
1773790170827834400,19.62283447265625,0.04113222085535526,-0.003681145331310108,0.0006771686092019081
1773790170847797500,19.642797607421876,0.028859599259495734,-0.012395060665439814,0.0021676994279026984
1773790170867761400,19.662761474609376,0.04681611171066761,0.005985314637434203,0.002319117996795103
1773790170887725300,19.682725341796875,0.04546937327682972,0.002089802752947435,-0.006795048701297491
1773790170907689200,19.702689208984374,0.03305003668665886,-0.006718971807381603,-0.0051696303233969955
1773790170927652400,19.72265234375,0.04202887743413448,-0.009167419838847127,-0.005184891824610531
1773790170947616300,19.7426162109375,0.04023264166712761,-0.011133456931519322,0.0021884499549865723
1773790170967580400,19.762580322265624,0.045319151151180265,-0.011910339038551319,-0.007219512057909741
1773790170987544300,19.78254443359375,0.045319735673069954,0.0012857380947563796,-0.0027683961342554538
1773790171007508200,19.80250830078125,0.04083119208216667,-0.004376166974322405,-0.004106759465392679
1773790171027471400,19.822471435546873,0.04128010489344597,-0.0028717560440301893,-0.0008342314675915985
1773790171047435300,19.842435302734376,0.03499532553553581,-0.007576045294443611,-0.00861493933852762
1773790171067399200,19.862399169921876,0.03828793734014034,-0.004552799899573437,-0.00041314737815409896
1773790171087363300,19.88236328125,0.045320320194959636,0.0029931539339944717,0.0011147928414866328
1773790171107326200,19.902326171875,0.043376200389862056,-0.019834859843947922,-0.0002694463248364627
1773790171127290400,19.922290283203125,0.050557051804661746,0.001271341959934216,-0.001981730135437101
1773790171147254500,19.942254638671876,0.0471171404838562,-0.0031512511221342718,-0.002090761734172702
1773790171167218400,19.962218505859376,0.05460018971562385,-0.002479991663910914,0.001140447872551158
1773790171187181600,19.982181640625,0.04622106842696667,-0.0005688288469216786,-0.006388988651055842
1773790171207145500,20.0021455078125,0.02721709274947643,-0.0010866261929273605,0.00395021719681099
1773790171227109400,20.022109375,0.036196518018841745,-0.008147675736516247,0.0028183910221327092
1773790171247073500,20.042073486328125,0.03739420337080955,-0.007499020835745614,-0.002617744750343263
1773790171267037400,20.062037353515624,0.03664601535201072,0.003401675369380973,0.008334387097787112
1773790171287000300,20.082000244140627,0.04248071285486221,-0.006367774616379756,-0.0005665661078877747
1773790171306964500,20.101964599609374,0.04577332465946674,-0.008659216871671378,0.001962861038185656
1773790171326928400,20.121928466796874,0.03873977276086807,0.002862241580302361,-0.0009613558454439043
1773790171346892500,20.141892578125,0.0390390479683876,-0.00431227142525604,-0.0020146642906591294
1773790171366855700,20.161855712890624,0.03828852186203003,-0.00398312395256944,-0.006070013229222968
1773790171386819600,20.181819580078123,0.039186932006478305,-0.0036971169352880678,-0.00129863410894759
1773790171406783500,20.201783447265626,0.035298692396283145,-0.002834390025574248,-0.005058388501266017
1773790171426747600,20.22174755859375,0.03440203581750393,-0.002694931322534103,-0.0024168427502270786
1773790171446710500,20.24171044921875,0.03963935194909572,0.004320475281309336,-0.0030143702519591898
1773790171466674700,20.2616748046875,0.04547521849572658,-0.013848371596157084,-0.00454311418919824
1773790171486638600,20.281638671875,0.04457856191694736,0.00468958030504873,-0.008520612118579447
1773790171506602800,20.301602783203126,0.03515139288008213,-0.009589323628903365,-0.001201165083842352
1773790171526566700,20.321566650390626,0.04981646257042884,-0.004735615970438811,0.002957214970933273
1773790171546529500,20.341529541015625,0.035899580898880956,-0.012708540211536456,-0.007743508532550186
1773790171566493700,20.36149365234375,0.03993921167850494,-0.015193185217678547,-0.00799930079136975
1773790171586457900,20.381457763671875,0.048768999344110484,-0.010758999879227484,0.0029899573299102485
1773790171606421800,20.401421875,0.048768999344110484,-0.0034902532685548064,0.009008459567604587
1773790171626384600,20.421384521484374,0.03904021701216698,-0.012108067267469595,-0.0016147417202591896
1773790171646348800,20.441348876953125,0.04891688338220119,-0.0023636740911519155,0.0031382066941820085
1773790171666312700,20.461312744140624,0.035001170754432674,-0.01346244558506878,0.0007028419065754861
1773790171686276600,20.481276611328123,0.042783495193719864,-0.014001374767359812,0.0022978194804396477
1773790171706240800,20.50124072265625,0.04906769002974033,-0.009070875545637682,-0.010081139433570205
1773790171726203600,20.52120361328125,0.045778000834584234,0.004108099755819421,0.007898014107672498
1773790171746167600,20.54116748046875,0.05221183327436447,-0.00594298703278182,-0.004485356119973585
1773790171766131700,20.561131591796876,0.043082770401239395,-0.0059474714116542595,-0.00740785597055219
1773790171786095600,20.581095703125,0.0451782813757658,-0.0031167437810450793,-0.0033666634215041994
1773790171806058800,20.601058837890626,0.03275836026370525,-0.003527158062707167,0.0003710161363240331
1773790171826022700,20.621022705078126,0.039191023659706115,-0.0029180839703651144,-0.006241424273373559
1773790171845986600,20.640986572265625,0.03664659987390041,0.004155633258551825,0.0008811758818570524
1773790171865950500,20.660950439453124,0.04173310935795307,-0.0032695049236528572,0.007252117419568821
1773790171885913600,20.68091357421875,0.03604688041508198,0.005643047388270497,-0.01236461986140348
1773790171905877500,20.70087744140625,0.051608606684207914,0.0007957397878402844,0.00430426393202506
1773790171925841700,20.720841552734374,0.03873801919519901,-0.012336864204797893,-0.016414918165514245
1773790171945805600,20.7408056640625,0.025869769793748856,-0.01057276115870336,0.0011945618131197987
1773790171965769500,20.76076953125,0.04023322618901729,-0.01007266386616975,0.006259781913971528
1773790171985732600,20.780732666015624,0.04098141420781612,-0.004826767135900445,-0.007966932891728356
1773790172005696500,20.800696533203126,0.036789807736873625,0.00008827878836309537,0.006828476046863943
1773790172025660700,20.82066064453125,0.045918286088109016,-0.008748751468781847,0.0014075104440562426
1773790172045624800,20.840624755859373,0.042326399075984955,0.005036149269994348,-0.009533415023470297
1773790172065587700,20.860587646484376,0.04127952037155628,-0.011864789713639766,0.005396607479685917
1773790172085551600,20.880551513671875,0.03529401622116565,-0.008825762227748054,-0.0001513637699652463
1773790172105515800,20.900515869140627,0.04965864166021347,-0.0005314285791362636,-0.004894174382882192
1773790172125479700,20.920479736328126,0.0324514862716198,-0.007963165465486236,-0.011218345036264508
1773790172145443600,20.940443603515625,0.05040741420090198,-0.005584284672047943,0.009005573490774259
