time,seconds_elapsed,z,y,x
1773790151240789500,0.03578955078125,-0.0002664803760126233,-0.00031586107797920704,0.00005399063229560852
1773790151260753400,0.05575341796875,0.0011581281432881951,0.0006416563410311937,-0.0003988095559179783
1773790151280717300,0.07571728515625,0.00027026550378650427,-0.00036635342985391617,-0.0001452290453016758
1773790151300681500,0.095681396484375,0.00011960812844336033,0.000545307295396924,0.00047030625864863396
1773790151320646100,0.115646240234375,-0.001073015620931983,0.0010377417784184217,0.0007363110780715942
1773790151340610000,0.135610107421875,0.0004524621181190014,-0.0005784598179161549,-0.0009408984333276749
1773790151360574000,0.155573974609375,0.0006118653109297156,0.00006597442552447319,0.00020926771685481071
1773790151380538000,0.1755380859375,-0.0010486836545169353,0.0000302738044410944,0.00023889867588877678
1773790151400502000,0.195501953125,0.0013837475562468171,0.0002895032521337271,0.0006576473824679852
1773790151420466000,0.2154658203125,-0.0011721844784915447,0.00012351851910352707,-0.00018694531172513962
1773790151440429800,0.235429931640625,-0.0009719112422317266,0.000747807789593935,-0.0000068675726652145386
1773790151460394000,0.25539404296875,-0.0008744400693103671,-0.00021699396893382072,-0.0002969615161418915
1773790151480358000,0.27535791015625,0.0004118107899557799,0.0007397853769361973,0.00004870397970080376
1773790151500321800,0.29532177734375,-0.0004118417273275554,-0.00006582005880773067,0.0008991360664367676
1773790151520286200,0.3152861328125,-0.0005943537689745426,-0.00001872866414487362,0.0005787392146885395
1773790151540250000,0.33525,-0.00031109433621168137,-0.0004412627313286066,0.0015376140363514423
1773790151563958000,0.3589580078125,-0.0005492005730047822,-0.0008659388404339552,-0.0008666473440825939
1773790151583922000,0.378921875,0.00025562650989741087,-0.0013000117614865303,-0.0013828729279339314
1773790151603885800,0.3988857421875,0.00012433527444954962,0.001495512668043375,-0.0009835325181484222
1773790151623849000,0.418848876953125,-0.00030819096718914807,0.0005163447931408882,0.0003374973312020302
1773790151643812900,0.438812744140625,-0.0007666270830668509,-0.0001721701119095087,0.0003910125233232975
1773790151663776800,0.45877685546875,-0.0002943289000540972,0.0007947934791445732,0.00003458419814705849
1773790151683741200,0.4787412109375,-0.00010356827988289297,-0.00031691230833530426,-0.0010682153515517712
1773790151703705000,0.498705078125,-0.000781187554821372,0.00047786952927708626,-0.0006608241237699986
1773790151723669000,0.5186689453125,-0.0009973893174901605,0.0009833676740527153,-0.0007060496136546135
1773790151743633200,0.538633056640625,0.00011432026803959161,-0.00010763853788375854,0.0005470584146678448
1773790151763597000,0.55859716796875,-0.0004211911291349679,-0.00010517379269003868,0.0005953200161457062
1773790151783561000,0.57856103515625,-0.00019907861133106053,0.0002452842891216278,0.000253995880484581
1773790151803524900,0.59852490234375,-0.0010596667416393757,-0.00023469864390790462,0.00003581913188099861
1773790151823489000,0.618489013671875,-0.001175187760964036,-0.0003090121317654848,0.0006303559057414532
1773790151843453000,0.638452880859375,0.0005728000542148948,-0.00032489350996911526,-0.0007365788333117962
1773790151863416800,0.658416748046875,0.0005829162546433508,0.00016342010349035263,0.0006448901258409023
1773790151883381000,0.678381103515625,0.0008824625983834267,0.0007297771517187357,0.00013177143409848213
1773790151903345000,0.698344970703125,0.0003220250364392996,-0.00023878458887338638,0.000215963926166296
1773790151923309000,0.71830908203125,0.0008157006814144552,0.0007829254027456045,-0.0010475078597664833
1773790151943273000,0.73827294921875,-0.00014665766502730548,0.0004159337840974331,-0.0010812412947416306
1773790151963237000,0.758237060546875,-0.00176188291516155,-0.00022625247947871685,0.0007924535311758518
1773790151983201000,0.778200927734375,0.0002559066051617265,-0.0012064052280038595,-0.00041864439845085144
1773790152003165000,0.7981650390625,-0.0002808792924042791,0.0010617366060614586,-0.00005537457764148712
1773790152023129000,0.818129150390625,-0.0001340105663985014,0.0014582443982362747,0.0001025875099003315
1773790152043093000,0.838093017578125,-0.0007738154963590205,0.0010862040799111128,0.0007301098667085171
1773790152063057000,0.858056884765625,0.00020805955864489079,-0.000676055671647191,-0.00045987265184521675
1773790152083020000,0.87802001953125,0.0010791592067107558,0.00019988813437521458,-0.0016327030025422573
1773790152102984000,0.89798388671875,-0.0012688960414379835,-0.0004096671473234892,-0.0007585184648633003
1773790152122947800,0.91794775390625,0.0010807416401803493,0.0005053863860666752,-0.0014988970942795277
1773790152142912000,0.937912109375,-0.000003113818820565939,0.0002231472171843052,-0.0004270551726222038
1773790152162876000,0.9578759765625,-0.00035809160908684134,-0.0003072724211961031,-0.00011880602687597275
1773790152182839800,0.97783984375,-0.0016467884415760636,0.0012220977805554867,0.001125792507082224
1773790152202804000,0.997803955078125,0.0001609811733942479,0.0005120995920151472,0.00005444185808300972
1773790152222768000,1.01776806640625,0.00011325677041895688,0.0011626393534243107,-0.0009048962965607643
1773790152242732000,1.03773193359375,-0.0009550072718411684,0.0006601596251130104,0.00021330267190933228
1773790152262696000,1.057696044921875,0.0007064290111884475,0.00015780841931700706,0.00033721234649419785
1773790152282660000,1.07766015625,-0.0007835392607375979,-0.00026839389465749264,-0.00012665428221225739
1773790152302624000,1.0976240234375,-0.0010616747895255685,0.000799595145508647,-0.0002096281386911869
1773790152322587100,1.117587158203125,-0.002067879308015108,-0.000651227543130517,-0.0013868138194084167
1773790152342551300,1.13755126953125,0.0001501257938798517,0.00027496740221977234,-0.0005504121072590351
1773790152362515200,1.15751513671875,0.0010035657323896885,-0.0004476152826100588,0.0014865421690046787
1773790152382479000,1.17747900390625,0.0014654226833954453,0.0012201728532090783,-0.0004157004877924919
1773790152402443300,1.197443359375,0.0009404516313225031,0.00004356773570179939,-0.0003421427682042122
1773790152422407200,1.2174072265625,0.0005376422195695341,0.0007788271177560091,0.0002741902135312557
1773790152442371000,1.23737109375,-0.0006897019920870662,0.0008584223687648773,0.0008468944579362869
1773790152462334200,1.257334228515625,0.0009278780198656023,-0.000053316354751586914,-8.44709575176239e-7
1773790152482298000,1.277298095703125,0.0002061560662696138,-0.00029891403391957283,-0.0005756583996117115
1773790152502262000,1.297261962890625,0.00013154838234186172,-0.0008757656905800104,0.0002449220046401024
1773790152522226200,1.31722607421875,0.0004406809457577765,0.000006283167749643326,0.0008210074156522751
1773790152542190000,1.337190185546875,-0.0011675499845296144,0.0005387000273913145,0.00037232041358947754
1773790152562154000,1.357154052734375,0.000016035803128033876,-0.00016475142911076546,0.00016286876052618027
1773790152582118100,1.3771181640625,-0.0010186792351305485,0.0003824308514595032,0.00004906998947262764
1773790152602082300,1.397082275390625,-0.00162345333956182,-0.0002909263130277395,0.00009255902841687202
1773790152622046200,1.417046142578125,-0.00016615306958556175,-0.000369595130905509,-0.00011765351518988609
1773790152642010000,1.437010009765625,0.000021535728592425585,0.0006289132870733738,0.001309678889811039
1773790152661974300,1.456974365234375,0.0009078311268240213,-0.00018608267419040203,0.00041156355291604996
1773790152681938200,1.476938232421875,0.0010422379709780216,0.0004662103019654751,-0.00015537161380052567
1773790152701902000,1.496902099609375,-0.00012491532834246755,0.0001794507261365652,-0.00020624371245503426
1773790152721866200,1.5168662109375,0.0009118753951042891,-0.0003464173059910536,-0.0006548003293573856
1773790152741830100,1.536830078125,0.0003188913979101926,-0.00020402227528393269,-0.0007246062159538269
1773790152761794000,1.5567939453125,0.0009998404420912266,-0.00008148024789988995,-0.00010967208072543144
1773790152781758000,1.576758056640625,0.0005008799489587545,0.0006243751849979162,0.00011791475117206573
1773790152801721000,1.59672119140625,-0.0009150469559244812,0.0002540578134357929,0.0012256326153874397
1773790152821685000,1.61668505859375,0.0008064814610406756,0.00007727299816906452,0.0000799223780632019
1773790152841649200,1.636649169921875,-0.000215535779716447,0.0004689351189881563,-0.0009198165498673916
1773790152861613000,1.656613037109375,0.0008093582582660019,0.0002519369591027498,0.0003030993975698948
1773790152881577200,1.6765771484375,0.0005876616341993213,0.0006187041290104389,0.0005687852390110493
1773790152901541000,1.696541015625,0.00011328243999741971,0.00002297060564160347,0.0005414099432528019
1773790152921505300,1.71650537109375,-0.0010382693726569414,0.0016387396026402712,0.00103343790397048
1773790152941469200,1.73646923828125,-0.00011409478611312807,-0.0006415604148060083,-0.0006636022590100765
1773790152961433000,1.75643310546875,-0.0007903451914899051,0.00041227112524211407,-0.0006268168799579144
1773790152981397200,1.776397216796875,0.00018508399080019444,0.00003778492100536823,-0.0003994288854300976
1773790153001361200,1.796361083984375,-0.00043953643762506545,0.00023078802041709423,0.0002888091839849949
1773790153021325000,1.816324951171875,0.0018317252397537231,0.0017033902695402503,-0.0002342723309993744
1773790153041289200,1.836289306640625,0.0016221670666709542,-0.000014034565538167953,-0.000030492432415485382
1773790153061253000,1.856253173828125,-0.0007957054767757654,-0.001141242915764451,0.00015099812299013138
1773790153081217000,1.876217041015625,-0.00012903503375127912,-0.0006897759158164263,-0.00006569363176822662
1773790153101181000,1.896180908203125,0.00018630594422575086,0.00042233685962855816,-0.0001977980136871338
1773790153121145300,1.916145263671875,0.0011449186131358147,0.0006788496393710375,-0.00039648544043302536
1773790153141108000,1.93610791015625,-0.0008883592672646046,0.00003068661317229271,0.0007217535749077797
1773790153161072000,1.956072021484375,0.0006111712427809834,0.00011931895278394222,0.0007189461030066013
1773790153181036300,1.976036376953125,-0.001276796916499734,0.00012657628394663334,0.0014953091740608215
1773790153201000200,1.996000244140625,0.0004788262885995209,0.0004892256110906601,-0.0010185232385993004
1773790153220964000,2.015964111328125,0.0009115806897170842,-0.00025429902598261833,-0.001064943615347147
1773790153240928300,2.03592822265625,-0.0010950327850878239,0.0006062730681151152,0.001524297520518303
1773790153260892200,2.05589208984375,0.000014244986232370138,-0.0018284888938069344,-0.0010342709720134735
1773790153280856000,2.07585595703125,-0.0006539068417623639,-0.0005769974086433649,0.0008301045745611191
1773790153300820200,2.0958203125,-0.00037510093534365296,0.00047538219951093197,0.0016097784973680973
1773790153320788000,2.1157880859375,-0.0003059234586544335,0.000762387877330184,0.000517119187861681
1773790153340752000,2.135751953125,0.0002561085857450962,-0.00008670566603541374,-0.0005143247544765472
1773790153360715800,2.1557158203125,-0.0005111558130010962,-0.0006806808523833752,0.0013950704596936703
1773790153380680200,2.17568017578125,-0.0005249909590929747,-0.00022004428319633007,-0.00023145321756601334
1773790153400644000,2.19564404296875,0.00007275678217411041,-0.000647244043648243,-0.0003253566101193428
1773790153420608000,2.21560791015625,-0.000002434477210044861,-0.0004600794054567814,0.0006294283084571362
1773790153440571100,2.235571044921875,-0.0003249295405112207,-0.00025266408920288086,0.001569618470966816
1773790153460535000,2.25553515625,-0.0006013677921146154,-0.0010144344996660948,-0.0008950126357376575
1773790153480499000,2.2754990234375,0.00039039336843416095,0.0016809508670121431,0.00043150782585144043
1773790153500463000,2.295463134765625,0.0006409130874089897,-0.0010162771213799715,0.0007405565120279789
1773790153520427000,2.315427001953125,0.0006951559334993362,-0.00026924023404717445,-0.0014587962068617344
1773790153540391000,2.335390869140625,0.00043908017687499523,-0.0003455707337707281,-0.00006576394662261009
1773790153560355000,2.35535498046875,-0.000618712801951915,0.00022223731502890587,-0.00019713398069143295
1773790153580319000,2.375319091796875,-0.0011366098187863827,-0.0009164237417280674,-0.00018586916849017143
1773790153600283000,2.395282958984375,-0.0005131039069965482,0.0006218238268047571,-0.00039044395089149475
1773790153620246800,2.415246826171875,-0.0006600223132409155,-0.0013925738167017698,0.0008987733162939548
1773790153640211000,2.4352109375,-0.0011082611745223403,-0.0001000906340777874,-0.001989328768104315
1773790153660175000,2.455175048828125,0.0003855989489238709,0.0009596203453838825,-0.0006778477691113949
1773790153680139000,2.475138916015625,-0.00011227633513044566,-0.001353727886453271,-0.0006491923704743385
1773790153700103200,2.495103271484375,0.0004113960894756019,-0.0004493528977036476,0.0013564415276050568
1773790153720067000,2.515067138671875,-0.00031388463685289025,0.0003549496177583933,-0.0005364008247852325
1773790153740030000,2.535030029296875,0.0003436295664869249,0.00018952414393424988,0.0012155924923717976
1773790153759994000,2.554994140625,-0.0005119289853610098,0.00024360674433410168,-0.0010729380883276463
1773790153779958000,2.5749580078125,-0.00003726161958184093,-0.00014027045108377934,0.0015188981778919697
1773790153799922000,2.594921875,-0.000676873663906008,0.0002684486098587513,-0.001058720052242279
1773790153819886000,2.614885986328125,0.000056212200433947146,-0.00021990644745528698,-0.0008901683613657951
1773790153839850000,2.63485009765625,-0.0010835531866177917,-0.0001294494140893221,0.00037547899410128593
1773790153859814000,2.65481396484375,-0.0005657068104483187,-0.00039934576489031315,-0.00008453521877527237
1773790153879777800,2.67477783203125,0.00014009223377797753,-0.0006309149321168661,-0.0014708340167999268
1773790153899742000,2.694741943359375,-0.0005870836321264505,0.000377460615709424,-0.0002614031545817852
1773790153919705900,2.714705810546875,-0.0008452337933704257,0.00006180605851113796,0.001104417722672224
1773790153939670000,2.734669921875,-0.00014694378478452563,0.00022830860689282417,0.00032410910353064537
1773790153959634200,2.75463427734375,-0.0005824345862492919,-0.000008847098797559738,-0.0001359633170068264
1773790153979598000,2.77459814453125,-0.00012865295866504312,-0.0010790072847157717,0.00017764465883374214
1773790153999562000,2.79456201171875,-0.000060490070609375834,-0.0007315664552152157,0.0011074705980718136
1773790154019525000,2.814525146484375,-0.0008004441624507308,-0.0006577067542821169,0.00020473357290029526
1773790154039489000,2.834489013671875,-0.0003545744111761451,-0.0012291078455746174,-0.0010993541218340397
1773790154059453000,2.854452880859375,0.0007431411650031805,0.00011495151557028294,-0.0004072468727827072
1773790154079417000,2.8744169921875,-0.0015051002847030759,0.0004422131460160017,-0.0003241724334657192
1773790154099381000,2.894381103515625,-0.0002800211077556014,0.000005759764462709427,-0.000014965888112783432
1773790154119345000,2.914344970703125,-0.0011410145089030266,0.000018926337361335754,0.00046713557094335556
1773790154139309000,2.93430908203125,-0.0002702501369640231,-0.00009906245395541191,0.0011898796074092388
1773790154159273000,2.95427294921875,-0.00025709005421958864,0.0011520632542669773,0.0009324774146080017
1773790154179236900,2.97423681640625,-0.000877631246112287,0.001200991915538907,-0.00007994519546627998
1773790154199200800,2.99420068359375,-0.00002819267683662474,0.0014125312445685267,0.0009356741793453693
1773790154219165200,3.014165283203125,-0.00026294460985809565,0.0005025910213589668,-0.00004059029743075371
1773790154239129000,3.034129150390625,0.00010118688805960119,-0.0005066283047199249,0.0002976604737341404
1773790154259093000,3.054093017578125,-0.0008129976922646165,-0.00031605293042957783,0.0008942810818552971
1773790154279057200,3.07405712890625,0.000018120277673006058,0.0007058130577206612,-0.000752550084143877
1773790154299020000,3.09402001953125,-0.00025586754782125354,0.0002699850592762232,0.0010861065238714218
1773790154318980000,3.11397998046875,0.0004625235160347074,-0.00020732241682708263,0.001676416490226984
1773790154338944300,3.1339443359375,-0.00022279296535998583,0.00010511651635169983,-0.0007949089631438255
1773790154358908200,3.153908203125,0.0013486503157764673,0.0007340137381106615,-0.00021858187392354012
1773790154378872000,3.1738720703125,0.00042686445522122085,-0.00002740928903222084,-0.0003017215058207512
1773790154398836200,3.193836181640625,0.00005099890404380858,-0.00044748280197381973,-0.0006758524104952812
1773790154418800000,3.213800048828125,0.00020281609613448381,-0.00040137371979653835,-0.0012618117034435272
1773790154438764000,3.233763916015625,0.0009343696874566376,-0.0013797222636640072,-0.00014691846445202827
1773790154458728200,3.253728271484375,0.00035990646574646235,0.00004052254371345043,-0.0005654841661453247
1773790154478692000,3.273692138671875,-0.00003873146488331258,-0.0014073285274207592,-0.0004776124842464924
1773790154498656000,3.293656005859375,0.0002805804251693189,-0.00014529633335769176,0.0004620100371539593
1773790154518620000,3.313619873046875,0.0003201813669875264,-0.00012149801477789879,0.0001310901716351509
1773790154538584000,3.333583984375,-0.0002741549687925726,0.0001989603042602539,0.00007907254621386528
1773790154558547000,3.353546875,-0.0010289615020155907,0.0005622818134725094,-0.00010430486872792244
1773790154578511000,3.373510986328125,0.0002230181999038905,0.0009908124338835478,-0.000916243065148592
1773790154598475300,3.393475341796875,0.00035348409437574446,0.0005839378573000431,0.000955694355070591
1773790154618439200,3.413439208984375,0.00022496154997497797,-0.00042137946002185345,0.0007428494282066822
1773790154638403000,3.433403076171875,0.0018134081037715077,-0.00028466666117310524,-0.0011015296913683414
1773790154658367200,3.4533671875,-0.00012800836702808738,-0.0006594883743673563,0.00015818187966942787
1773790154678331100,3.4733310546875,0.0009005278698168695,0.000357986893504858,-0.0004830341786146164
1773790154698295000,3.493294921875,0.0002622242318466306,0.00028017000295221806,-0.0005835867486894131
1773790154718259200,3.51325927734375,0.0007864735089242458,-0.0003919114824384451,-0.00009626476094126701
1773790154738223000,3.53322314453125,-0.00009664410026744008,0.0006497609429061413,0.0010458175092935562
1773790154758187000,3.55318701171875,0.00009951725951395929,-0.0010257263202220201,-0.0001299940049648285
1773790154778151000,3.57315087890625,0.0001259939162991941,0.00042096013203263283,-0.0006182841025292873
1773790154798114000,3.593114013671875,-0.00012721546227112412,-0.0001293120440095663,-0.0002902047708630562
1773790154818078000,3.613077880859375,-0.00046862359158694744,-0.00012909178622066975,-0.0007391413673758507
1773790154838042000,3.6330419921875,0.0004581090761348605,0.0010056623723357916,-0.00031285360455513
1773790154858006000,3.653006103515625,0.0003176724712830037,-0.0008572794031351805,-0.0011217142455279827
1773790154877970200,3.67297021484375,-0.00003074752748943865,-0.0011657786089926958,-0.0015541049651801586
1773790154897934000,3.69293408203125,0.0008694791467860341,-0.0003420726861804724,0.00010119983926415443
1773790154917898200,3.712898193359375,-0.0005729857948608696,-0.0015831273049116135,-0.0010881880298256874
1773790154937862100,3.732862060546875,0.0009579753968864679,-0.00012652366422116756,0.000645854976028204
1773790154957826000,3.752825927734375,0.0006155075971037149,0.0002464884892106056,-0.0014549996703863144
1773790154977790200,3.772790283203125,0.0003265100240241736,0.0021498517598956823,-0.0001135203056037426
1773790154997754000,3.792754150390625,-0.0002531606296543032,-0.0005547385662794113,-0.00009365659207105637
1773790155017718000,3.812718017578125,0.0006982064223848283,-0.0005528861656785011,-0.00004948629066348076
1773790155037682200,3.83268212890625,0.0004240664711687714,-0.0005292193964123726,0.0003058682195842266
1773790155057645000,3.85264501953125,0.0012128365924581885,0.0006355044897645712,-0.0001958068460226059
1773790155077609000,3.87260888671875,0.0019919241312891245,-0.000507549149915576,-0.00033670663833618164
1773790155097573000,3.892572998046875,-0.0013398590963333845,0.0005745829548686743,0.000030346214771270752
1773790155117537000,3.912537109375,-0.0004170584143139422,0.0007381192408502102,-0.0005536200478672981
1773790155137501000,3.9325009765625,0.0003191297291778028,0.00002155546098947525,-0.0008447393774986267
1773790155157465300,3.95246533203125,0.0004945893306285143,0.001113773207180202,-0.001239690463989973
1773790155177429200,3.97242919921875,-0.0009024696191772819,-0.0003456990234553814,0.00047180522233247757
1773790155197393200,3.99239306640625,-0.000010482326615601778,-0.0004342955071479082,-0.00007357634603977203
1773790155217357000,4.012357177734375,-0.00028591835871338844,-0.00005423929542303085,-0.0008302945643663406
1773790155237321200,4.0323212890625,-0.00005881494143977761,-0.0005484132561832666,0.002421973505988717
1773790155257285000,4.05228515625,-0.00003648491110652685,-0.000028935959562659264,-0.0007330230437219143
1773790155277249000,4.0722490234375,0.0011152413208037615,0.0008829466532915831,-0.0015145237557590008
1773790155297212200,4.092212158203125,0.0009578350000083447,0.0005994918756186962,0.0005377484485507011
1773790155317175800,4.11217578125,0.00036050527705810964,-0.0017068081069737673,-0.00036744261160492897
1773790155337140000,4.132139892578125,0.001145406044088304,0.0004959802608937025,0.00027796579524874687
1773790155357104000,4.152104248046875,0.00134726008400321,-0.0012844149023294449,-0.00020041689276695251
1773790155377068000,4.172068115234375,0.0009100334718823433,0.0007033473812043667,0.0013529900461435318
1773790155397032000,4.192031982421875,0.00003417002153582871,-0.000457793939858675,-0.0002797548659145832
1773790155416996000,4.21199609375,-0.00047265191096812487,-0.0015765831340104342,0.00010898616164922714
1773790155436960000,4.2319599609375,0.0000031945528462529182,-0.0005782400257885456,0.0004468122497200966
1773790155456924000,4.251923828125,-0.00031860885792411864,-0.0011371676810085773,0.0004968126304447651
1773790155476888000,4.27188818359375,-0.0006315482896752656,0.0002648984082043171,0.0005568908527493477
1773790155496852000,4.29185205078125,-0.00001661566784605384,0.0006038288120180368,-0.0004547303542494774
1773790155516816000,4.31181591796875,-0.00014426253619603813,0.00047955242916941643,-0.00045065581798553467
1773790155536779000,4.331779052734375,0.0022276851814240217,0.0005101936403661966,-0.0003427816554903984
1773790155556743000,4.351742919921875,-0.00027450305060483515,0.00019173836335539818,0.0003926614299416542
1773790155576706800,4.371706787109375,0.0006378656253218651,-0.00007434049621224403,-0.0003346884623169899
1773790155596671000,4.3916708984375,0.00020142145513091236,-0.0002902294509112835,0.0010542836971580982
1773790155616635100,4.41163525390625,-0.000060013640904799104,0.0000604244414716959,-0.0002778642810881138
1773790155636599000,4.43159912109375,0.0013938522897660732,0.0007634067442268133,0.000664545688778162
1773790155656563000,4.45156298828125,-0.00029684414039365947,0.0009881916921585798,0.00007171789184212685
1773790155676527000,4.471527099609375,0.00023505583521910012,0.0004984682891517878,0.000017306767404079437
1773790155696491000,4.491490966796875,-0.0024247088003903627,0.000022734515368938446,-0.0002495977096259594
1773790155716455000,4.511454833984375,0.0003446954069659114,0.000670150388032198,0.00014026230201125145
1773790155736419000,4.531419189453125,0.0008605114417150617,0.0002162011805921793,-0.00030091265216469765
1773790155756382000,4.5513818359375,-0.00011419429210945964,0.00033319275826215744,-0.0004984894767403603
1773790155776345900,4.571345947265625,-0.00020909879822283983,-0.0003109523095190525,-0.0009923158213496208
1773790155796310000,4.59131005859375,0.0004954321775585413,-0.0006362020503729582,-0.0007720580324530602
1773790155816274000,4.61127392578125,0.001510845497250557,-0.0002542966976761818,0.0008539082482457161
1773790155836237800,4.63123779296875,0.0007338915602304041,0.0008350592106580734,-0.001147520262748003
1773790155856202000,4.651201904296875,0.0016489413101226091,-0.001025996170938015,-0.00012578396126627922
1773790155876166000,4.671165771484375,0.00002144480822607875,-0.00036624493077397346,-0.000598701648414135
1773790155896130000,4.691130126953125,-0.00046984912478365004,-0.0014950188342481852,0.00003452645614743233
1773790155916094000,4.711093994140625,-0.00015662144869565964,0.0004357208963483572,-0.0007056957110762596
1773790155936057000,4.73105712890625,0.0016070569399744272,0.0011427408317103982,0.0008531734347343445
1773790155956021000,4.75102099609375,-0.00018040757277049124,0.0007281911093741655,-0.00021465960890054703
1773790155975985200,4.770985107421875,-0.0004386927466839552,0.0007339580915868282,-0.0015846677124500275
1773790155995949000,4.790948974609375,0.0000988148822216317,2.6728957891464233e-7,-0.00042706867679953575
1773790156015912000,4.810911865234375,-0.000134464877191931,-0.000882274005562067,0.0003211214207112789
1773790156035876000,4.8308759765625,-0.0005723324720747769,0.0010768112260848284,-0.00041968934237957
1773790156055840000,4.850840087890625,-0.001547485706396401,0.0009001810103654861,-0.0001541287638247013
1773790156075804000,4.870803955078125,-0.0009120547911152244,0.0006156149320304394,-0.0001493627205491066
1773790156095768000,4.89076806640625,0.00005288407555781305,0.0004634165670722723,-0.0004957704804837704
1773790156115732000,4.91073193359375,0.000763983407523483,-0.00047973846085369587,-0.000687737949192524
1773790156135696000,4.93069580078125,0.0006693616742268205,-0.0005361156072467566,-0.0008803103119134903
1773790156155660000,4.950659912109375,0.0004459261544980109,-0.0003244883846491575,-0.00019343197345733643
1773790156175624000,4.9706240234375,0.0006733402260579169,0.0016804897459223866,-0.0009488915093243122
1773790156195587800,4.990587890625,-0.0003258193901274353,0.00020734872668981552,0.00021427730098366737
1773790156215552000,5.010552001953125,-0.0003221339138690382,-0.00025928975082933903,-0.001527152955532074
1773790156235515000,5.030514892578125,-0.0006084924098104239,0.0005682611372321844,0.00010081101208925247
1773790156255479000,5.05047900390625,-0.0011688547674566507,-0.00009002373553812504,-0.00012664776295423508
1773790156275443200,5.070443115234375,-0.0013359412550926208,0.0014447272988036275,-0.00036942074075341225
1773790156295407000,5.090406982421875,-0.000538245658390224,-0.0008526591118425131,-0.0004670126363635063
1773790156315371000,5.11037109375,-0.0004126972344238311,-0.0010548762511461973,-0.000581804197281599
1773790156335335200,5.130335205078125,0.0012842383002862334,0.0008662915788590908,-0.000043058767914772034
1773790156355299300,5.15029931640625,-0.0003956664295401424,-0.00017608841881155968,-0.0007181535474956036
1773790156375263200,5.17026318359375,-0.00021267696865834296,-0.00043413741514086723,-0.00047568557783961296
1773790156395227100,5.19022705078125,-0.0004664987209253013,0.00039409659802913666,-0.0005359416827559471
1773790156415190300,5.210190185546875,0.0008021040121093392,-0.000752751249819994,-0.001367025077342987
1773790156435154200,5.230154296875,-0.0009076975984498858,0.0015787594020366669,-0.0010012248530983925
1773790156455118000,5.2501181640625,0.00018064554024022073,-0.001532283378764987,-0.00048070028424263
1773790156475082200,5.270082275390625,0.0008322277572005987,-0.0004851599223911762,-0.0009998786263167858
1773790156495046100,5.290046142578125,0.00045181188033893704,-0.00101212109439075,0.00020495476201176643
1773790156515010000,5.310010009765625,0.00018646178068593144,-0.00008781789802014828,-0.0002613482065498829
1773790156534974200,5.32997412109375,0.00008684590284246951,-0.00043761287815868855,0.0008123498409986496
1773790156554938000,5.349938232421875,0.0003493147960398346,-0.00039083254523575306,-0.00047892751172184944
1773790156574902000,5.369902099609375,0.00013097973715048283,0.0011105953017249703,-0.0005890191532671452
1773790156594866000,5.389865966796875,-0.001523885177448392,-0.0008453312329947948,-0.0011360603384673595
1773790156614829000,5.4098291015625,-0.0002388898574281484,0.0005425161216408014,-0.0016591022722423077
1773790156634793000,5.42979296875,0.0006984237697906792,0.00021624471992254257,-0.0009465082548558712
1773790156654757400,5.44975732421875,-0.0010840077884495258,0.0011813180753961205,0.0009764470160007477
1773790156674721300,5.46972119140625,-0.00032794184517115355,-0.0005299162585288286,-0.0009368667379021645
1773790156694685200,5.489685302734375,-0.00008984026499092579,-0.0004271245561540127,-0.00039657438173890114
1773790156714649000,5.509649169921875,-0.002578338608145714,-0.000012867385521531105,-0.00006216438487172127
1773790156734613200,5.52961328125,0.0009853187948465347,0.00009925407357513905,-0.0007835421711206436
1773790156754577200,5.5495771484375,0.0007828203961253166,-0.0006943109910935163,-0.00007181428372859955
1773790156774541000,5.569541015625,-0.000029795861337333918,-0.00016328762285411358,0.0001374976709485054
1773790156794505200,5.589505126953125,0.0007393300766125321,-0.0013053836300969124,-0.0009739333763718605
1773790156814468000,5.609468017578125,-0.00020443444373086095,-0.0003224292304366827,0.00015252269804477692
1773790156834432000,5.629431884765625,0.0003916294954251498,-0.00024341768585145473,0.00019643735140562057
1773790156854396200,5.649396240234375,-0.0006140703335404396,0.00016202125698328018,0.0001963539980351925
1773790156874360000,5.669360107421875,0.001095026615075767,0.00028232391923666,0.0004949592985212803
1773790156894324000,5.689323974609375,0.0005580642609857023,-0.001101447269320488,-0.0005881865508854389
1773790156914288000,5.7092880859375,-0.0009333878406323493,0.00015572900883853436,-0.0005007334984838963
1773790156934252300,5.729252197265625,0.000733701279386878,0.0007892628200352192,0.0006113480776548386
1773790156954216200,5.74921630859375,0.0002845743438228965,0.0004894656594842672,0.0008509517647325993
1773790156974180000,5.76918017578125,-0.0011894598137587309,-0.0005678352899849415,-0.0009073433466255665
1773790156994144300,5.789144287109375,0.0011209200602024794,0.0003466969355940819,0.00024286098778247833
1773790157014107100,5.809107177734375,0.00023746953229419887,-0.00043761800043284893,-0.0010332786478102207
1773790157034071300,5.8290712890625,0.0008352356962859631,-0.0010272725485265255,-0.000006392132490873337
1773790157054035200,5.84903515625,-0.0015942638274282217,-0.00009616557508707047,-0.0006531826220452785
1773790157073999000,5.8689990234375,-0.000012990290997549891,-0.0008857236243784428,-0.0009657726623117924
1773790157093963300,5.88896337890625,0.0009154402650892735,-0.0003766757436096668,0.00029489677399396896
1773790157113927200,5.90892724609375,0.001147342612966895,-0.000403799582272768,0.0002530338242650032
1773790157133891000,5.92889111328125,-0.0001925769029185176,0.0010462836362421513,-0.00009587034583091736
1773790157153855000,5.94885498046875,-0.00004627631278708577,-0.0005916089285165071,-0.0008389619179069996
1773790157173819100,5.968819091796875,-0.00009444190072827041,0.0007320346776396036,-0.0004946626722812653
1773790157193783000,5.988782958984375,0.0003063794574700296,0.0001847452949732542,-0.0004164893180131912
1773790157213746200,6.00874609375,-0.0005871809553354979,-0.0010399206075817347,0.00010218331590294838
1773790157233710000,6.0287099609375,0.0007286047330126166,0.0005861690733581781,-0.0002846475690603256
1773790157253674000,6.048674072265625,-0.00006839033449068666,0.000564181013032794,-0.0006415536627173424
1773790157273638100,6.06863818359375,0.0006017659907229245,-0.00018623447977006435,-0.00010938290506601334
1773790157293602300,6.088602294921875,0.0008204319165088236,-0.0012480078730732203,0.0007020710036158562
1773790157313566200,6.108566162109375,-0.00017692838446237147,0.00024439021944999695,0.000031664036214351654
1773790157333530600,6.128530517578125,-0.00031575452885590494,0.0012984515633434057,0.00008388515561819077
1773790157353494500,6.14849462890625,0.0005771068972535431,-0.00020283600315451622,-0.001098030712455511
1773790157373458700,6.168458740234375,0.00010121699597220868,0.00035158637911081314,0.0014080689288675785
1773790157393421600,6.188421630859375,-0.0014355599414557219,-0.0007184715941548347,-0.0007877298630774021
1773790157413385700,6.2083857421875,-0.000565623864531517,0.0007592062465846539,0.00020673219114542007
1773790157433350000,6.228349853515625,-0.0007055257447063923,-0.0005336552858352661,-0.0006248988211154938
1773790157453313800,6.248313720703125,0.000023587228497490287,0.00006665801629424095,0.0006814482621848583
1773790157473277700,6.268277587890625,0.0008511082851327956,-0.00039098900742828846,-0.0005065011791884899
1773790157493241900,6.288241943359375,-0.0014626933261752129,-0.00015049614012241364,-0.0006972774863243103
1773790157513205800,6.308205810546875,0.000044939719373360276,0.0007603603880852461,0.0006501628085970879
1773790157533169700,6.328169677734375,-0.00011988016194663942,0.0009622450452297926,-0.00019009271636605263
1773790157553133800,6.3481337890625,-0.00046567112440243363,0.0011156420223414898,0.0009327842853963375
1773790157573096700,6.3680966796875,-0.002123737707734108,-0.0006064602639526129,0.0017107813619077206
1773790157593060600,6.388060546875,0.0008645951165817678,-0.0002272960264235735,0.0005096178501844406
1773790157613024800,6.408024658203125,0.00151740200817585,0.0008321781642735004,0.0016724690794944763
1773790157632988700,6.42798876953125,-0.0016464609652757645,-0.00037905899807810783,-0.0006459546275436878
1773790157652952600,6.44795263671875,0.0000936677897698246,-0.000636326614767313,0.001973717473447323
1773790157672916700,6.467916748046875,-0.0007920393254607916,-0.000259951688349247,0.0006568101234734058
1773790157692880600,6.487880615234375,0.00040858477586880326,-0.0006071545649319887,-0.0008567804470658302
1773790157712844800,6.5078447265625,-0.000874746183399111,-0.00031706481240689754,0.0008490970358252525
1773790157732808700,6.52780859375,-0.0007843718049116433,-0.0007697660475969315,-0.00014856038615107536
1773790157752771600,6.547771484375,-0.0014164142776280642,-0.00013884413056075573,0.000974894966930151
1773790157772735700,6.56773583984375,-0.0011439472436904907,-0.0009774630889296532,0.0002651386894285679
1773790157792700000,6.587699951171875,0.0003152774297632277,0.0005671854596585035,0.0008236737921833992
1773790157812663800,6.607663818359375,0.0004899414489045739,-0.0000159568153321743,-0.0009853029623627663
1773790157832627700,6.627627685546875,-0.00023771804990246892,0.0003212734591215849,-0.00014202389866113663
1773790157852591900,6.647591796875,0.00010173286136705428,-0.0006835523527115583,0.0017650490626692772
1773790157872555800,6.6675556640625,-0.0003395465901121497,0.00009879213757812977,0.0017111413180828094
1773790157892519700,6.687519775390625,0.00009790914918994531,0.0002249283716082573,-0.00020382553339004517
1773790157912483600,6.707483642578125,0.0005916039226576686,-0.000039307866245508194,0.0011035297065973282
1773790157932446700,6.72744677734375,-0.0006479169242084026,0.00044745136983692646,-0.0014133150689303875
1773790157952410600,6.74741064453125,-0.0001690205099293962,0.0009818575344979763,0.0004415917210280895
1773790157972374800,6.767374755859375,-0.0005595837137661874,-0.0012929250951856375,-0.0013915272429585457
1773790157992338700,6.787338623046875,-0.0001993094483623281,0.0007065087556838989,0.00041852984577417374
1773790158012302600,6.807302490234375,0.0003307574079371989,0.0010069890413433313,0.0003323252312839031
1773790158032266500,6.8272666015625,-0.002082366030663252,0.0008665579371154308,0.0016673807986080647
1773790158052231000,6.84723095703125,0.00006452888919739053,0.0006705424748361111,0.00015016179531812668
1773790158072194800,6.86719482421875,-0.0003632360021583736,0.00027596019208431244,-0.00016238819807767868
1773790158092158700,6.88715869140625,0.0004847784584853798,-0.0002188661601394415,-0.0015505524352192879
1773790158112121900,6.907121826171875,0.0006810114718973637,0.0015425686724483967,0.002167021157220006
1773790158132085800,6.927085693359375,0.00009759060048963875,-0.00044820550829172134,-0.0009776647202670574
1773790158152049700,6.947049560546875,-0.00030066678300499916,-0.0003611522261053324,0.001224953681230545
1773790158172013800,6.967013916015625,0.0006893954123370349,0.0002448796294629574,-0.0017894655466079712
1773790158191977700,6.986977783203125,0.000060859674704261124,-0.0007637431845068932,-0.00015963194891810417
1773790158211941600,7.006941650390625,-0.0013813376426696777,0.000988102750852704,-0.0003831894136965275
1773790158231905800,7.02690576171875,-0.00147984956856817,0.000049958936870098114,0.0000028260983526706696
1773790158251869700,7.04686962890625,0.0004852323327213526,-0.0011496127117425203,-0.0002022339031100273
1773790158271832800,7.066832763671875,0.00017151972861029208,-0.00037973118014633656,-0.0010944404639303684
1773790158291796700,7.086796630859375,-0.000012851072824560106,0.00021730386652052402,0.0006349119357764721
1773790158311760600,7.1067607421875,0.0002509266196284443,0.0004600218962877989,-0.00019460869953036308
1773790158331724300,7.126724365234375,-0.00024250864225905389,0.00007913261651992798,-0.00033478206023573875
1773790158351688400,7.1466884765625,-0.0013987934216856956,-0.0002079787664115429,-0.0005113803781569004
1773790158371652400,7.16665234375,-0.0007866796804592013,0.0003689844161272049,-0.0007491656579077244
1773790158391616500,7.186616455078125,-0.0007704034796915948,-0.0005315942689776421,-0.00003083329647779465
1773790158411580700,7.20658056640625,-0.0003685994306579232,0.00021400302648544312,-0.0005250959657132626
1773790158431544600,7.226544677734375,0.00034538813633844256,0.00003248825669288635,0.00037760334089398384
1773790158451507500,7.246507568359375,-0.0011458734516054392,0.0008571171201765537,-0.000010221265256404877
1773790158471471600,7.2664716796875,-0.0008707852684892714,0.0003393411170691252,0.0005515646189451218
1773790158491435500,7.286435546875,-0.00047718180576339364,-0.0004913012962788343,-0.0002682316116988659
1773790158511399400,7.3063994140625,-0.00008646342030260712,-0.0010082900989800692,0.0002820887602865696
1773790158531363600,7.326363525390625,0.0011153121013194323,0.00043639098294079304,-0.0007128077559173107
1773790158551327500,7.346327392578125,-0.0008143945597112179,0.000049165915697813034,0.000003086403012275696
1773790158571291400,7.36629150390625,0.0004052598378621042,-0.0010254299268126488,-0.00035057123750448227
1773790158591255600,7.386255615234375,0.00023548401077277958,0.0006353885401040316,0.0004093274474143982
1773790158611219500,7.406219482421875,-0.0006258570356294513,0.00016814679838716984,-0.001904438715428114
1773790158631182300,7.426182373046875,-0.0008411503513343632,-0.0017667417414486408,-0.0007415506988763809
1773790158651146500,7.446146484375,-0.001059129019267857,0.0003207505214959383,-0.0009042173624038696
1773790158671110400,7.4661103515625,0.00044282805174589157,-0.0004050701390951872,0.001267078798264265
1773790158691074300,7.48607421875,0.0009299879311583936,-0.00005732383579015732,-0.00011068908497691154
1773790158711038500,7.50603857421875,-0.0011068932944908738,-0.0009196610189974308,-0.0004709223285317421
1773790158731002600,7.526002685546875,0.0003362960123922676,0.00019205338321626186,-0.0004631653428077698
1773790158750966500,7.545966552734375,-0.0013292878866195679,0.0008624400943517685,0.0017783879302442074
1773790158770929700,7.5659296875,-0.00028312939684838057,0.0000815405510365963,-0.0013568596914410591
1773790158790893600,7.5858935546875,0.00011077798262704164,-0.00016686390154063702,0.0007682405412197113
1773790158810857500,7.605857421875,0.0018104832852259278,-0.0005993524100631475,-0.00007138121873140335
1773790158830821600,7.625821533203125,-0.0010697219986468554,0.0006194920279085636,-0.00019656820222735405
1773790158850785500,7.64578564453125,0.00010827135702129453,0.0007472850847989321,0.000234224833548069
1773790158870749400,7.66574951171875,-0.0009932774119079113,0.0007189363241195679,0.0010914872400462627
1773790158890713300,7.68571337890625,-0.0007700743735767901,0.00029163085855543613,-0.0004775221459567547
1773790158910677500,7.705677490234375,-0.00037934858119115233,0.0009163597133010626,0.000443978700786829
1773790158930641400,7.725641357421875,0.0000627147383056581,0.0002743110526353121,-0.0012619025073945522
1773790158950604500,7.7456044921875,-0.0007206492009572685,0.000049761030822992325,-0.0012014657258987427
1773790158970568400,7.765568359375,0.0010953724849969149,0.0007525733672082424,-0.0003203549422323704
1773790158990532400,7.785532470703125,0.0001457597390981391,-0.00018168706446886063,0.0000903671607375145
1773790159010496300,7.805496337890625,0.0007188027375377715,0.0005621663294732571,0.0012446772307157516
1773790159030460700,7.825460693359375,-0.00023764942307025194,-0.0003922684118151665,0.00010398495942354202
1773790159050424600,7.845424560546875,-0.00020746715017594397,-0.0008256277069449425,0.0013977643102407455
1773790159070388500,7.865388427734375,0.00021503478637896478,-0.00014123180881142616,0.001103974413126707
1773790159090352600,7.8853525390625,-0.0008333921432495117,0.00028164382092654705,-0.00033013010397553444
1773790159110315500,7.9053154296875,-0.00002636402496136725,0.0007784254848957062,-0.00021837232634425163
1773790159130279400,7.925279541015625,0.0006463354220613837,0.0001969833392649889,-0.00018469477072358131
1773790159150243600,7.94524365234375,0.001174348988570273,0.00104844244197011,0.000589130911976099
1773790159170207500,7.96520751953125,0.0006097215227782726,0.00042948382906615734,-0.001213060226291418
1773790159190171400,7.98517138671875,-0.0007869262481108308,-0.00036413106136024,-0.0020059412345290184
1773790159210135600,8.005135498046876,0.00006132500129751861,-0.0002786444965749979,0.00017390120774507523
1773790159230099500,8.025099365234375,0.00027881114510819316,-0.00004580290988087654,0.0008834684267640114
1773790159250063400,8.0450634765625,0.00021161942277103662,0.00005392846651375294,0.0011112554930150509
1773790159270026500,8.065026611328125,0.0004940066719427705,-0.00040147360414266586,0.0009194905869662762
1773790159289990400,8.084990478515625,-0.0008272648556157947,-0.0005031335167586803,0.00015040626749396324
1773790159309954300,8.104954345703124,-0.00005643581971526146,0.00014799623750150204,-0.00007311534136533737
1773790159329919000,8.1249189453125,-0.0008501401171088219,0.0003238117787986994,0.0006485553458333015
1773790159349883000,8.1448828125,-0.00013796999701298773,0.001571031752973795,0.0004929550923407078
1773790159369846800,8.1648466796875,0.0008720722980797291,0.0007965252734720707,-0.00020393496379256248
1773790159389810700,8.184810791015625,-0.0006477215210907161,0.0005249930545687675,0.0006027929484844208
1773790159409774800,8.20477490234375,-0.000045619759475812316,-0.0009873516391962767,-0.0007278220728039742
1773790159429737700,8.22473779296875,-0.0005395563784986734,0.00010081427171826363,0.0002602464519441128
1773790159449702000,8.244701904296875,0.0014506003353744745,0.00142922333907336,0.0005705393850803375
1773790159469665800,8.264665771484376,-0.00046298184315674007,-0.0011768615804612637,-0.0005484037101268768
1773790159489629700,8.284629638671875,0.0006892775418236852,-0.0006396889220923185,-0.0006155045703053474
1773790159509593900,8.30459375,-0.00099569174926728,0.001065987627953291,-0.0003743157722055912
1773790159529558000,8.32455810546875,0.00006033864337950945,-0.0001069169957190752,-0.0013314466923475266
1773790159549522000,8.34452197265625,-0.0011204829206690192,0.0000751330517232418,-0.0019685677252709866
1773790159588201700,8.38320166015625,-0.00008614733815193176,0.00041272188536822796,-0.0013111629523336887
1773790159608165600,8.40316552734375,0.0012014785315841436,-0.00026967539452016354,-0.00042913202196359634
1773790159628130000,8.423130126953126,0.0008809331338852644,-0.0004354403354227543,0.0011686356738209724
1773790159648094000,8.443093994140625,0.00010129217116627842,0.000037081772461533546,-0.0006180503405630589
1773790159668057900,8.463057861328124,0.00015954852278809994,0.0008218139410018921,0.00018226681277155876
1773790159688022000,8.48302197265625,0.0007011207053437829,-0.00031305523589253426,0.0007627378217875957
1773790159707986000,8.50298583984375,-0.0005363841191865504,0.00003389245830476284,0.00036693550646305084
1773790159727949800,8.52294970703125,0.00037359894486144185,0.000026714755222201347,-0.0008995817042887211
1773790159747913000,8.542912841796875,-0.001100850524380803,-0.0003054083790630102,-0.00040675653144717216
1773790159767876900,8.562876953125,-0.0005093691288493574,0.0003555517178028822,0.00033172545954585075
1773790159787840800,8.5828408203125,0.0006834756350144744,-0.00024165306240320206,0.0002703554928302765
1773790159807805000,8.602804931640625,-0.0005887500010430813,0.00037493067793548107,0.000905016902834177
1773790159827768800,8.622768798828124,-0.0004194896318949759,-0.0007174904458224773,-0.0012228591367602348
1773790159847732700,8.642732666015625,0.0007355996058322489,0.00036852038465440273,-0.0012220023199915886
1773790159867696600,8.662696533203125,-0.0006648174021393061,0.0005978571716696024,0.0003282208926975727
1773790159887659800,8.68265966796875,0.00016880594193935394,-0.0005416795611381531,-0.0004757074639201164
1773790159907623700,8.702623779296875,0.0007683063158765435,0.0005387300625443459,-0.00038029998540878296
1773790159927587800,8.722587890625,0.00007788787479512393,0.0002781767398118973,-0.0011028819717466831
1773790159947552000,8.742552001953126,0.0005244615022093058,0.0000719618983566761,-0.00018195994198322296
1773790159967516000,8.762515869140625,0.00037372432416304946,-0.0017101450357586145,0.0000703791156411171
1773790159987479800,8.782479736328124,-0.0011523448629304767,-0.00003277091309428215,0.0006952080875635147
1773790160007443000,8.80244287109375,0.0019609208684414625,0.00045174453407526016,-0.0005657840520143509
1773790160027406800,8.82240673828125,-0.0007961501833051443,0.0005440935492515564,-0.00023704348132014275
1773790160047371000,8.84237109375,0.00022663238632958382,-0.0005330464337021112,0.00032679224386811256
1773790160067335000,8.8623349609375,0.0012122190091758966,-0.00002560415305197239,-0.0011430680751800537
1773790160087298800,8.882298828125,0.00036022180574946105,0.001878092996776104,0.0005442309193313122
1773790160107263000,8.902262939453125,-0.00013871872215531766,-0.0003289957530796528,-0.00022340938448905945
1773790160127227000,8.922226806640625,0.0008657345315441489,-0.0004641853738576174,0.0001626955345273018
1773790160147190800,8.942190673828126,0.00008400523074669763,0.00036014593206346035,0.0009173424914479256
1773790160167154000,8.96215380859375,0.000271392724243924,0.0003063557669520378,0.000407420564442873
1773790160187117800,8.982117919921874,-0.0001569008600199595,-0.000029792310670018196,-0.00023340154439210892
1773790160207081700,9.002081787109375,-0.00017339695477858186,0.001794353243894875,-0.0007698079571127892
1773790160227046000,9.0220458984375,-0.0007867664098739624,-0.00139973359182477,-0.0003917161375284195
1773790160247009800,9.042009765625,-0.000007704657036811113,-0.0004488017875701189,-0.0008868123404681683
1773790160266974000,9.061973876953125,0.00011424736294429749,0.0006101611070334911,-0.0002539842389523983
1773790160286937900,9.081937744140625,-0.0010503489756956697,0.0003065376076847315,0.0003864876925945282
1773790160306900700,9.101900634765625,-0.00043038511648774147,0.00042228633537888527,-0.0006606318056583405
1773790160326864100,9.121864013671875,0.0009560356847941875,-0.0008624226320534945,0.0006515583954751492
1773790160346828300,9.141828369140624,-0.00012834930384997278,-0.0015745116397738457,-0.00023471470922231674
1773790160366792200,9.161792236328125,-0.00029540201649069786,-0.00038977176882326603,0.0007478767074644566
1773790160386756000,9.181756103515625,0.0008311704732477665,-0.00048447074368596077,-0.0010491739958524704
1773790160406720300,9.20172021484375,0.00042194308480247855,0.0000805542804300785,-0.000927370972931385
1773790160426684200,9.22168408203125,-0.0008770269341766834,-0.0010799076408147812,0.00018041161820292473
1773790160446648000,9.24164794921875,0.00005503601278178394,0.0003622653894126415,-0.00023343786597251892
1773790160466611200,9.261611083984375,-0.0003055771521758288,0.0005776712205260992,-0.0009147292003035545
1773790160486575000,9.2815751953125,-0.00009651314758230001,0.0007220371626317501,-0.0001422567293047905
1773790160506539000,9.3015390625,-0.0009234331082552671,-0.00022272136993706226,0.000147875864058733
1773790160526503200,9.321503173828125,-0.0009482840541750193,-0.00039675855077803135,0.00020407699048519135
1773790160546467000,9.341467041015624,-0.0008430344169028103,0.0003588327672332525,-0.0014716396108269691
1773790160566431000,9.361430908203126,-0.00019254062499385327,0.0005041440017521381,-0.0007805670611560345
1773790160586395100,9.38139501953125,0.00031589483842253685,0.00044072349555790424,-0.000843442976474762
1773790160606358000,9.40135791015625,-0.0015948249492794275,-0.0006041803862899542,0.00028328457847237587
1773790160626322000,9.421322021484375,0.0006390095222741365,0.0007065702229738235,0.00038291700184345245
1773790160646286000,9.4412861328125,-0.001238614902831614,0.0007400668691843748,0.0008679931052029133
1773790160666250000,9.46125,0.0003099936875514686,-0.00037617096677422523,0.0013982346281409264
1773790160686214100,9.481214111328125,0.0003578955656848848,0.0016629506135359406,0.0012061912566423416
1773790160706178300,9.50117822265625,0.00008823205280350521,-0.0006151897832751274,0.00181909603998065
1773790160726142200,9.52114208984375,-0.0004175425274297595,-0.00014811381697654724,0.001628297846764326
1773790160746106000,9.541106201171875,-0.0013444420183077455,0.0003882606979459524,-0.0008324217051267624
1773790160766069200,9.5610693359375,-0.0008095933590084314,0.0001532919704914093,-0.00006610993295907974
1773790160786033200,9.581033203125,0.0005571114597842097,-0.0010041927453130484,-0.00028605014085769653
1773790160805997000,9.6009970703125,-0.00006247943383641541,-0.0000761889386922121,0.000900863204151392
1773790160825961200,9.620961181640626,-0.00040981132769957185,0.000003018416464328766,0.00021319789811968803
1773790160845925000,9.640925048828125,0.0005857113283127546,0.000295187346637249,-0.0016142786480486393
1773790160865889000,9.660888916015624,-0.0010310446377843618,-0.0006120225880295038,0.000885652843862772
1773790160885853000,9.68085302734375,0.0013555214973166585,-0.0002747711259871721,-0.001245640218257904
1773790160905816000,9.700816162109374,-0.0005524876760318875,0.00006675627082586288,0.0001797243021428585
1773790160925780000,9.720780029296876,0.0007947811973281205,-0.0004662349820137024,0.0010687196627259254
1773790160945744100,9.740744140625,-0.0003681708767544478,-0.0003347888123244047,0.00031251367181539536
1773790160965708000,9.7607080078125,-0.0007210832554847002,0.00005887518636882305,0.0008742660284042358
1773790160985672000,9.780671875,-0.0003114381106570363,0.00021508312784135342,0.001160463783890009
1773790161005636000,9.800635986328125,0.0008153013768605888,-0.0005524428561329842,0.00016084685921669006
1773790161025600300,9.820600341796874,0.00019532670557964593,0.0005295351147651672,-0.0006652860902249813
1773790161045564200,9.840564208984375,0.00044498316128738225,0.00010147131979465485,-0.0008039060048758984
1773790161065527300,9.86052734375,0.0009466650080867112,-0.0009217876940965652,0.00007558893412351608
1773790161085491200,9.8804912109375,-0.0007482232176698744,-0.0010601500980556011,-0.001129787415266037
1773790161105455000,9.900455078125,0.0010488755069673061,-0.00023122550919651985,-0.00036874040961265564
1773790161125419300,9.920419189453124,-0.0005474903737194836,-0.0011570642236620188,0.00019414396956562996
1773790161145383200,9.940383056640625,-0.0010265930322930217,0.0009095489513128996,0.0005672532133758068
1773790161165347000,9.96034716796875,-0.00001700466964393854,-0.0007774543482810259,-0.00020728353410959244
1773790161185311000,9.98031103515625,-0.000981552409939468,-0.0002985249739140272,-0.0004160790704190731
1773790161205274000,10.000274169921875,0.000822947476990521,-0.0005973288789391518,0.00035973498597741127
1773790161225238000,10.020238037109374,-0.00025877999723888934,0.00019318354316055775,0.0014226562343537807
1773790161245202200,10.0402021484375,-0.0006146198138594627,0.00026946840807795525,0.0008658585138618946
1773790161265166000,10.060166015625,0.0005442802212201059,0.000945255858823657,0.0005593602545559406
1773790161285130000,10.0801298828125,-0.00008400683873333037,-0.0006400439888238907,0.001117647159844637
1773790161305094000,10.100093994140625,0.0002726670354604721,0.0011382626835256815,0.0008437349461019039
1773790161325058800,10.120058837890625,-0.000038526050047948956,-0.0004891203716397285,0.0006834771484136581
1773790161345022000,10.14002197265625,0.00044572429032996297,-0.0006812128704041243,-0.001545132603496313
1773790161364985900,10.15998583984375,-0.00013514520833268762,-0.0004233242943882942,-0.0007178708910942078
1773790161384950000,10.179949951171874,0.0012075079139322042,0.00046212063170969486,0.00045571569353342056
1773790161404914000,10.199913818359375,0.0009664208046160638,0.0011887871660292149,0.00044304411858320236
1773790161424877800,10.2198779296875,0.00008976471144706011,0.0003449383657425642,-0.0003832611255347729
1773790161444842000,10.239842041015624,0.0006407690234482288,-0.0008165836334228516,-0.001352981198579073
1773790161464806000,10.259805908203125,-0.0016890759579837322,0.0005393275059759617,-0.00008064880967140198
1773790161484768800,10.279768798828124,0.00035477743949741125,0.001005353289656341,0.00014434801414608955
1773790161504733000,10.29973291015625,-0.00016257389506790787,-0.000008909031748771667,-0.000529763288795948
1773790161524696800,10.31969677734375,0.0005434849299490452,-0.0004994254559278488,0.0006261230446398258
1773790161544660700,10.33966064453125,-0.0003085264761466533,-0.00043485802598297596,0.0003105797804892063
1773790161564625000,10.359625,-0.0001601769617991522,0.0005380327347666025,0.0010926672257483006
1773790161584588800,10.3795888671875,-0.0002529409248381853,-0.0005754528101533651,-0.001499114092439413
1773790161604552700,10.399552734375,0.0003681312664411962,-0.0001069139689207077,0.0002480321563780308
1773790161624515800,10.419515869140625,-0.00021048013877589256,0.0004069737624377012,-0.0009790053591132164
1773790161644479700,10.439479736328124,0.00011932619963772595,-0.0002021703403443098,-0.00016299961134791374
1773790161664444000,10.45944384765625,-0.0003430600045248866,-0.0008186516351997852,0.00011946028098464012
1773790161684408000,10.479407958984375,0.0010603168047964573,0.0020890450105071068,-0.00036431802436709404
1773790161704372000,10.4993720703125,0.0005979195120744407,-0.000820826506242156,-0.00007004011422395706
1773790161724335900,10.5193359375,-0.0006664642132818699,0.00035290629602968693,0.0007258579134941101
1773790161744299800,10.5392998046875,0.0005836243508383632,0.0009354699868708849,-0.00006105471402406693
1773790161764264000,10.559263916015626,0.0005822597304359078,0.0012369253672659397,0.0006577898748219013
1773790161784226800,10.579226806640625,0.0005889178719371557,-0.0008669302333146334,0.0008496851660311222
1773790161804191000,10.59919091796875,-0.0007981106173247099,-0.0002726877573877573,0.0018318258225917816
1773790161824155000,10.61915478515625,0.0008594742394052446,0.0011522015556693077,0.00021248683333396912
1773790161844118800,10.639118896484375,0.0009431369253434241,-0.00038188998587429523,0.0002526678144931793
1773790161864082700,10.659082763671876,-0.00025684316642582417,0.00014544976875185966,-0.0012605921365320683
1773790161884046800,10.679046875,-0.0014198123244568706,0.0002693948335945606,-0.0005859569646418095
1773790161904009700,10.699009765625,-0.0006157612078823149,0.00001806020736694336,-0.0019350326620042324
1773790161923974000,10.718973876953125,0.0000834120437502861,-0.0006425429601222277,0.00008730730041861534
1773790161943937800,10.738937744140625,-0.00003883002500515431,-0.001729580108076334,0.0008727912791073322
1773790161963901700,10.758901611328126,-0.00042903050780296326,0.0010636018123477697,-0.0000996696762740612
1773790161983865900,10.778865966796875,0.00045037848758511245,-0.00026137568056583405,0.0006791851483285427
1773790162003830000,10.798830078125,-0.00021765244309790432,0.0002695191651582718,0.0013500051572918892
1773790162023794000,10.8187939453125,-0.0007324141915887594,0.0005119296256452799,0.001090711448341608
1773790162043757800,10.8387578125,0.000060879261582158506,0.0002696635201573372,0.00008711777627468109
1773790162063721000,10.858720947265626,0.0013906466774642467,0.0011955989757552743,0.0004079868085682392
1773790162083684900,10.878684814453125,0.00013883624342270195,0.0006911123637109995,0.0017074057832360268
1773790162103649000,10.89864892578125,-0.0016837785951793194,0.0010637766681611538,0.0013133040629327297
1773790162123613000,10.918613037109376,0.001307799480855465,0.000998342176899314,-0.0009241793304681778
1773790162143576800,10.938576904296875,0.00047209873446263373,0.00028879265300929546,0.0012122830376029015
1773790162163540700,10.958540771484374,-0.0008873717742972076,0.00016802852042019367,-0.0004928167909383774
1773790162183504000,10.97850390625,0.001068498007953167,-0.0001866042148321867,0.0006170156411826611
1773790162203467800,10.9984677734375,0.0003221130755264312,0.0013238798128440976,0.0006812093779444695
1773790162223432000,11.018431884765626,-0.0012085679918527603,0.000723640201613307,0.0004345397464931011
1773790162243395800,11.038395751953125,-0.000601240317337215,0.0003275733906775713,-0.00003573764115571976
1773790162263359700,11.05835986328125,-0.000643571256659925,0.00024926173500716686,-0.0005821790546178818
1773790162283323600,11.07832373046875,-0.0005238663870841265,0.0013500428758561611,-0.0009070993401110172
1773790162303287800,11.098287841796875,-0.0004909599665552378,-0.00014810566790401936,0.00042474037036299706
1773790162323250700,11.118250732421876,0.00007224499131552875,-0.0002568436320871115,-0.0006215875037014484
1773790162343214800,11.13821484375,0.00016395995044149458,0.0003249321598559618,-0.0002306569367647171
1773790162363178800,11.1581787109375,0.001384327420964837,-0.0005897495429962873,-0.0005451547913253307
1773790162383142700,11.178142578125,0.000435454654507339,-0.00031328434124588966,-0.0005237734876573086
1773790162403106800,11.19810693359375,0.00043964668293483555,-0.0005906145088374615,-0.00011366000398993492
1773790162423070700,11.21807080078125,-0.0016975195612758398,0.0005367852281779051,0.00043414952233433723
1773790162443034600,11.23803466796875,0.0008585728355683386,0.0005822128150612116,-0.0000976058654487133
1773790162462997800,11.257997802734375,-0.0006978702149353921,0.00025272020138800144,0.0017406996339559555
1773790162482961700,11.277961669921876,-0.0006596674211323261,0.000024722889065742493,-0.000139633659273386
1773790162502925600,11.297925537109375,0.0007378562586382031,0.0006958595477044582,0.0005819806829094887
1773790162522889700,11.3178896484375,0.0004819011373911053,0.000657067634165287,0.000947980210185051
1773790162542854000,11.33785400390625,-0.0013567141722887754,0.0007351133972406387,0.0001077502965927124
1773790162562817800,11.35781787109375,0.0010933120502159,-0.0009968234226107597,0.0002691047266125679
1773790162582781700,11.37778173828125,-0.0010447452077642083,-0.0014342772774398327,-0.00008837506175041199
1773790162602744800,11.397744873046875,-0.0019478222820907831,0.0011098062386736274,0.00003156345337629318
1773790162622708700,11.417708740234374,-0.001042509451508522,0.0007584549020975828,0.0006321994587779045
1773790162642673000,11.4376728515625,-0.00010463247599545866,-0.0007941396906971931,-0.00006643123924732208
1773790162662636800,11.45763671875,-0.00020948797464370728,-0.0007153141777962446,0.0009757904335856438
1773790162682600700,11.4776005859375,0.0002704071521293372,0.00010368414223194122,-0.0007571089081466198
1773790162702564600,11.497564697265625,-0.0001530224981252104,0.0003404330927878618,0.001335351262241602
1773790162722528800,11.51752880859375,0.000726769445464015,0.0004328899085521698,-0.00004743412137031555
1773790162742491600,11.53749169921875,0.0003282396064605564,0.0006773360073566437,0.0014003156684339046
1773790162762455800,11.557455810546875,0.0007590035093016922,0.00020018266513943672,0.0006151809357106686
1773790162782419700,11.577419677734374,0.0002446123689878732,-0.00004649115726351738,-0.0007482105866074562
1773790162802383600,11.597383544921875,0.0012451449874788523,0.0005228619556874037,-0.001065859105437994
1773790162822347500,11.617347412109375,-0.0003211992443539202,-0.0001344475895166397,0.00008121086284518242
1773790162842311700,11.637311767578124,-0.001081222202628851,-0.0004712881054729223,0.0009761652909219265
1773790162862275800,11.65727587890625,-0.00028541148640215397,-0.000735320383682847,0.0018613599240779877
1773790162882238700,11.67723876953125,-0.0005344303790479898,-0.0009462428279221058,0.0006065573543310165
1773790162902203000,11.697202880859376,0.001629781094379723,-0.0005285423249006271,0.000972038134932518
1773790162922166800,11.717166748046875,-0.0003004467289429158,0.0015392123023048043,0.00038888538256287575
1773790162942130700,11.737130615234374,0.0009771622717380524,-0.0023118280805647373,0.000629303976893425
1773790162962094800,11.7570947265625,0.0011753849685192108,0.0014257958391681314,-0.00030207494273781776
1773790162982058800,11.777058837890625,-0.0009892942616716027,0.0004287066403776407,-0.0007119420915842056
1773790163002022700,11.797022705078126,0.000016501711797900498,0.00013737869448959827,-0.00022957567125558853
1773790163021985800,11.81698583984375,0.00021321889653336257,-0.000002902466803789139,-0.0008603520691394806
1773790163041949700,11.83694970703125,0.00027836987283080816,0.0008884514681994915,0.0008181310258805752
1773790163061913900,11.856913818359375,-0.0005003184196539223,-0.00189886218868196,0.00001377379521727562
1773790163081877800,11.876877685546875,0.0002362751547480002,-0.0008282214403152466,0.00006179651245474815
1773790163101841700,11.896841552734376,0.0008057284285314381,-0.0007151479367166758,-0.00040619634091854095
1773790163121805600,11.9168056640625,0.0009604379301890731,-0.000850216718390584,-0.0008322484791278839
1773790163141768700,11.936768798828124,-0.0023072899784892797,-0.00019452814012765884,-0.00024412944912910461
1773790163161732600,11.956732666015625,0.000029320755857042968,-0.0006106162909418344,0.000684808474034071
1773790163181696800,11.97669677734375,0.0010328165953978896,0.00015620258636772633,-0.00039672059938311577
1773790163201660700,11.99666064453125,-0.00023996146046556532,0.0008311020210385323,0.00035473937168717384
1773790163221624600,12.01662451171875,-0.0009205631795339286,-0.0004671975038945675,-0.0007121209055185318
1773790163241588700,12.036588623046875,0.0012933065881952643,0.00001320941373705864,-0.0003330595791339874
1773790163261553000,12.056552978515626,0.0002719561744015664,-0.0002252301201224327,0.001283132005482912
1773790163281515800,12.076515869140625,-0.001362849841825664,0.0005035367794334888,0.0018174652941524982
1773790163301480000,12.09647998046875,-0.0008004574337974191,0.0011450444580987096,0.0010596350766718388
1773790163321443800,12.11644384765625,0.0016309618949890137,0.0014517303789034486,-0.00039530638605356216
1773790163341407500,12.136407470703125,0.0000797889952082187,0.00047540594823658466,-0.0005962229333817959
1773790163361371400,12.156371337890626,-0.00031173357274383307,0.0012849511113017797,-0.0005707908421754837
1773790163381335600,12.17633544921875,-0.001475711353123188,0.00009611062705516815,-0.000012122094631195068
1773790163401298400,12.19629833984375,0.00017836691404227167,0.001176838530227542,0.000013706274330615997
1773790163421262600,12.2162626953125,-0.0005000951932743192,0.0012942267348989844,0.0006234482862055302
1773790163441226500,12.2362265625,0.0013055689632892609,-0.0002543975133448839,-0.00048291124403476715
1773790163461190400,12.2561904296875,-0.00040724180871620774,0.0007621427066624165,-0.0012586824595928192
1773790163481154600,12.276154541015625,-0.0011192039819434285,0.0005691060796380043,-0.00017387140542268753
1773790163501118500,12.296118408203125,0.00010428988025523722,-0.00034598796628415585,0.0007544592954218388
1773790163521082400,12.316082275390626,-0.001152880024164915,-0.0010039238259196281,-0.0004559340886771679
1773790163541045500,12.33604541015625,-0.0011227730428799987,-0.0006099001038819551,0.0011702091433107853
1773790163561009400,12.356009521484374,0.00025392501265741885,-0.0011163053568452597,0.001256242860108614
1773790163580973300,12.375973388671875,-0.00039232673589140177,-0.0014415085315704346,0.00052675511687994
1773790163600937500,12.3959375,0.00017479054804425687,-0.0009077650029212236,0.001512883696705103
1773790163620901600,12.415901611328126,0.00077539257472381,0.00036584818735718727,0.0006075697019696236
1773790163640865500,12.435865478515625,-0.0011008582077920437,0.000554532278329134,0.0008059968240559101
1773790163660829400,12.455829345703124,-0.00009125482756644487,-0.0012845501769334078,-0.00022542709484696388
1773790163680792600,12.47579248046875,-0.0013841257896274328,-0.000512236263602972,0.0008601699955761433
1773790163700756500,12.495756591796875,0.0002840783563442528,-0.0000965166836977005,0.00004550907760858536
1773790163720720600,12.515720703125,0.00004901937791146338,0.0010135597549378872,0.00019743526354432106
1773790163740684500,12.5356845703125,-0.0007847482920624316,-0.0010258560068905354,-0.00004636403173208237
1773790163760648400,12.5556484375,-0.00044374921708367765,-0.000385654391720891,-0.0012594475410878658
1773790163780612400,12.5756123046875,0.00031673512421548367,-0.0001679819542914629,-0.00005307886749505997
1773790163800575500,12.595575439453125,-0.0002924310101661831,-0.0006069988012313843,0.0005059284158051014
1773790163820539400,12.615539306640626,-0.0010807437356561422,-0.0005312073044478893,0.0007550218142569065
1773790163840503600,12.635503662109375,-0.0005469843745231628,-0.0006807309109717607,-0.00017678411677479744
1773790163860467500,12.655467529296875,-0.0007812731200829148,-0.00022540148347616196,-0.0013189120218157768
1773790163880431400,12.675431396484376,-0.0007188934832811356,-0.0007458545733243227,-0.000620352104306221
1773790163900395500,12.6953955078125,-0.00029403186636045575,0.00034533976577222347,-0.0010439627803862095
1773790163920359400,12.715359375,0.002179568400606513,0.00015023723244667053,-0.00025727180764079094
1773790163940322300,12.735322265625,0.00019139690266456455,-0.001029592240229249,0.00015928549692034721
1773790163960286500,12.755286376953125,0.00006812850187998265,-0.00040650111623108387,-0.0003987816162407398
1773790163980250600,12.775250732421876,0.0004918422782793641,0.00038961763493716717,0.00048403581604361534
1773790164000214500,12.795214599609375,0.00009571701230015606,0.0006409217603504658,0.00013550976291298866
1773790164020178400,12.815178466796874,-0.00040612241718918085,-0.00012632645666599274,-0.0021553728729486465
1773790164040142600,12.835142578125,-0.00007189507596194744,0.0025597538333386183,0.0006592655554413795
1773790164060105500,12.85510546875,0.000008373826858587563,0.0004254213999956846,-0.00047931866720318794
1773790164080069600,12.875069580078126,-0.0014560087583959103,-0.00025497982278466225,-0.000032071955502033234
1773790164100033500,12.895033447265625,0.00044507108395919204,0.0008533983491361141,-0.0005376865155994892
1773790164119997400,12.91499755859375,-0.0025068295653909445,0.0007344770710915327,0.0007660114206373692
1773790164139961600,12.934961669921876,-0.0005925340810790658,-0.00019245618022978306,-0.0011566421017050743
1773790164159925500,12.954925537109375,-0.0001845652877818793,-0.0004896039608865976,0.000813088845461607
1773790164179888400,12.974888427734374,-0.0006300430977717042,0.001663564471527934,-0.0005838992074131966
1773790164199852500,12.9948525390625,0.0011165592586621642,0.0013783868635073304,-0.0006520282477140427
1773790164219816400,13.01481640625,0.00023609187337569892,0.0010036863386631012,0.00007837964221835136
1773790164239780400,13.0347802734375,0.0005419397493824363,0.0005790749564766884,-0.0005041253753006458
1773790164259744500,13.05474462890625,0.00044747182982973754,-0.00010291789658367634,0.0007109884172677994
1773790164279708400,13.07470849609375,0.00001407816307619214,0.0005355195607990026,-0.00019835401326417923
1773790164299671300,13.09467138671875,0.0009860286954790354,-0.001978249056264758,-0.0003931852988898754
1773790164319635500,13.114635498046875,-0.0016563013195991516,-0.0009194754529744387,-0.00017196638509631157
1773790164339599000,13.13459912109375,-0.0008096228120848536,-0.0012581944465637207,0.0009336597286164761
1773790164359563000,13.15456298828125,-0.0007856474840082228,0.0007619706448167562,-0.0025977022014558315
1773790164379527200,13.174527099609374,0.001232175505720079,0.00044655241072177887,-0.000694778747856617
1773790164399491000,13.194490966796875,0.0010042020585387945,-0.0001885362435132265,0.0005023153498768806
1773790164419454200,13.2144541015625,-0.0003909416263923049,-0.0005929714534431696,-0.0001293029636144638
1773790164439418000,13.234418212890626,-0.0005570047069340944,0.0005800500512123108,0.0012379065155982971
1773790164459382000,13.254382080078125,-0.0014501572586596012,-0.0010514215100556612,-0.00023111049085855484
1773790164479346000,13.274345947265624,0.001713415258564055,-0.00020360387861728668,0.0009047873318195343
1773790164499310300,13.294310302734376,-0.00025349989300593734,-0.0015313373878598213,0.0006940816529095173
1773790164519274200,13.314274169921875,0.00036667301901616156,-0.0012062059249728918,0.001570765394717455
1773790164539238100,13.334238037109374,0.001012172200717032,-0.00030420231632888317,-0.000014756806194782257
1773790164559201300,13.354201171875,-0.00011249721865169704,0.001177328173071146,-0.00019426317885518074
1773790164579165200,13.374165283203125,0.00019793069805018604,-0.0006487155333161354,-0.0008672853000462055
1773790164599129000,13.394129150390626,0.0004508265701588243,-0.0006974374409765005,-0.0010759313590824604
1773790164619093200,13.41409326171875,-0.000561519293114543,0.00012430711649358273,-0.0005257688462734222
1773790164639057200,13.43405712890625,-0.00041180363041348755,0.0004200364928692579,0.0005405661650002003
1773790164659021000,13.45402099609375,0.0019926782697439194,0.0013291393406689167,-0.0014821048825979233
1773790164678984200,13.473984130859375,0.000989031745120883,0.0004196742083877325,0.0005613872781395912
1773790164698948000,13.493947998046876,0.00027832775958813727,-0.0009835236705839634,-0.0003902711905539036
1773790164718912000,13.513912109375,0.000659910321701318,-0.0010211020708084106,0.001768740825355053
1773790164738876200,13.533876220703124,0.0008666802896186709,0.0014860600931569934,0.0003887452185153961
1773790164758840000,13.553840087890626,-0.00006067687354516238,-0.00010874820873141289,-0.0009507355280220509
1773790164778804000,13.573803955078125,-0.0006429195636883378,0.0004285103641450405,-0.00023513706400990486
1773790164798767000,13.59376708984375,-0.0004933183663524687,0.000033947406336665154,0.00036775320768356323
1773790164818731000,13.61373095703125,-0.0002382489328738302,0.00042685563676059246,-0.0008717854507267475
1773790164838695200,13.633695068359375,0.0003787282039411366,0.0001389598473906517,0.00037508970126509666
1773790164858659000,13.6536591796875,-0.00013517538900487125,-0.00005817716009914875,0.0017151508945971727
1773790164878623200,13.673623291015625,0.00008567871554987505,0.0004927879199385643,-0.00038415705785155296
1773790164898587100,13.693587158203124,0.0003401032299734652,-0.00006170407868921757,-0.0013086195103824139
1773790164918550300,13.71355029296875,-0.0015811006305739284,-0.0002511078491806984,0.00005933176726102829
1773790164938514200,13.73351416015625,-0.00003916224522981793,-0.0001254074741154909,-0.00021809805184602737
1773790164958478300,13.753478271484376,-0.0001365655625704676,0.00047217332758009434,-0.0014089061878621578
1773790164978442200,13.773442138671875,-0.0014945304719731212,0.0003554921131581068,-0.0009377198293805122
1773790164998406100,13.79340625,-0.0005402119131758809,-0.0011692470870912075,-0.0021546133793890476
1773790165018370000,13.8133701171875,-0.0000237843778450042,-0.00024472130462527275,-0.0003947666846215725
1773790165038333200,13.833333251953125,-0.0012354729697108269,-0.0000720941461622715,-0.0006382591091096401
1773790165058297000,13.853297119140626,0.0007488264236599207,0.0003760494291782379,-0.00017569493502378464
1773790165078261200,13.87326123046875,-0.0014715484576299787,0.0008405044209212065,-0.0016668899916112423
1773790165098225200,13.89322509765625,0.00041245497413910925,0.0006199169438332319,-0.0018286327831447124
1773790165118189000,13.91318896484375,0.00015105716011021286,-0.0010341114830225706,0.0006075617857277393
1773790165138153000,13.933153076171875,0.0002669150708243251,-0.00004228786565363407,-0.00017265696078538895
1773790165158116000,13.9531162109375,-0.0001577197399456054,-0.0009692718740552664,-0.0001094168983399868
1773790165178080000,13.973080078125,0.0011640684679150581,0.00015922822058200836,0.00008467258885502815
1773790165198044200,13.993044189453125,-0.0002962034195661545,0.0009748251177370548,0.0000216788612306118
1773790165218008000,14.013008056640626,-0.0006760486867278814,0.00045722140930593014,-0.0019464613869786263
1773790165237972200,14.03297216796875,0.000663393409922719,0.001504110754467547,0.0000728280283510685
1773790165257935000,14.05293505859375,-0.00022956079919822514,0.0014715491561219096,-0.0009127641096711159
1773790165277899300,14.072899169921875,-0.0014476206852123141,0.00035603693686425686,0.000044241081923246384
1773790165297863200,14.09286328125,0.00012848965707235038,-0.00005763792432844639,-0.0014993855729699135
1773790165317827300,14.112827392578126,0.0013618696248158813,0.0011097171809524298,-0.00004758639261126518
1773790165337791700,14.132791748046875,0.00038867228431627154,-0.0003266925923526287,0.0003828308545053005
1773790165357755600,14.152755615234375,0.00011901216930709779,0.0013586424756795168,0.0012362864799797535
1773790165377718800,14.17271875,-0.0002592868695501238,-0.00006704474799335003,-0.0002613072283565998
1773790165397682700,14.1926826171875,0.0004835623549297452,0.0003735348582267761,-0.0006932560354471207
1773790165417646800,14.212646728515624,-0.00005550889181904495,-0.00032613426446914673,0.00041361525654792786
1773790165437610800,14.23261083984375,-0.0015639296034350991,-0.0008202160242944956,-0.0010852580890059471
1773790165457575000,14.252574951171875,0.00010059247142635286,0.0006073531694710255,-0.0005538938567042351
1773790165477538800,14.272538818359376,0.00004821119364351034,-0.0029341322369873524,0.00020723138004541397
1773790165497502000,14.292501953125,-0.0011063810670748353,-0.00003638514317572117,0.00015766499564051628
1773790165517465900,14.3124658203125,0.0004370317328721285,-0.00048490450717508793,-0.0004062848165631294
1773790165537429800,14.3324296875,0.0004586674622260034,-0.000809364952147007,0.00030010053887963295
1773790165557393700,14.3523935546875,-0.0006741483230143785,-0.0002249802928417921,-0.0016041765920817852
1773790165577357800,14.37235791015625,0.0012742727994918823,-0.000014148885384202003,0.00045251473784446716
1773790165597321700,14.39232177734375,-0.00004090997390449047,-0.00016036094166338444,-0.0004798402078449726
1773790165617284900,14.412284912109374,-0.000760466034989804,0.0013834347482770681,-0.00047863321378827095
1773790165637248800,14.432248779296875,-0.0015896824188530445,0.0011927395826205611,-0.001091020181775093
1773790165657212700,14.452212646484375,0.0008226042846217752,0.0006759301759302616,-0.00017014192417263985
1773790165677176800,14.4721767578125,-0.000761122559197247,0.0006868625059723854,0.00013460591435432434
1773790165697140700,14.492140625,0.0020117759704589844,-0.0000645248219370842,-0.0006913673132658005
1773790165717104600,14.512104736328125,-0.0000796297681517899,0.0007075839675962925,0.0012978245504200459
1773790165737067800,14.53206787109375,0.000029700109735131264,0.0020627607591450214,0.0002707894891500473
1773790165757031700,14.55203173828125,0.000022008753148838878,-0.0005946338642388582,-0.0011616176925599575
1773790165776995600,14.57199560546875,0.0010933419689536095,-0.0007623475976288319,-0.00014071306213736534
1773790165796960000,14.5919599609375,-0.00008937146048992872,-0.0004816688597202301,0.00020597456023097038
1773790165816924000,14.611923828125,0.0005349391722120345,-0.001019105315208435,0.0006780638359487057
1773790165836886800,14.63188671875,0.0013453713618218899,-0.0003563864156603813,-0.000008994713425636292
1773790165856851000,14.651850830078125,0.0006737504154443741,0.000112948939204216,0.0007617427036166191
1773790165876814800,14.67181494140625,0.0013194252969697118,-0.0007549051661044359,-0.0007928437553346157
1773790165896778800,14.69177880859375,0.0005832516471855342,0.0005985728930681944,0.00024366984143853188
1773790165916743000,14.711742919921875,-0.0010091980220749974,-0.0002225737553089857,0.000059839338064193726
1773790165936706800,14.731706787109376,-0.0005058143869973719,0.0010539748473092914,0.0012797871604561806
1773790165956669700,14.751669677734375,-0.0002894367789849639,0.0006253053434193134,0.0003560115583240986
1773790165976633900,14.7716337890625,-0.0009221371728926897,0.00007078796625137329,-0.001391884870827198
1773790165996597800,14.79159765625,0.0003014643443748355,-0.0002394684124737978,-0.0004071206785738468
1773790166016561700,14.811561767578125,-0.00013343532918952405,-0.0004130206070840359,-0.0012611537240445614
1773790166036525800,14.83152587890625,-0.0006594289443455637,-0.00025226292200386524,0.000021992716938257217
1773790166056488700,14.85148876953125,-0.00013208304881118238,0.0008347313851118088,-0.00037138303741812706
1773790166076452600,14.87145263671875,0.0005926117300987244,-0.0006422752048820257,-0.00006785430014133453
1773790166096416800,14.891416748046876,-0.0007664331933483481,-0.00005739415064454079,0.0001139412634074688
1773790166116380700,14.911380615234375,-0.000023534114006906748,-0.0007610390894114971,0.0002451571635901928
1773790166136344600,14.931344482421874,-0.0001665223971940577,0.0006300972308963537,-0.00013759220018982887
1773790166156309000,14.95130908203125,-0.0000047852518036961555,0.00043112877756357193,0.0010600900277495384
1773790166176271600,14.971271728515624,-0.0002274138678330928,-0.0003953217528760433,-0.0008061770349740982
1773790166196235800,14.99123583984375,0.00027174598653800786,-0.0003779118414968252,-0.000821179710328579
1773790166216200000,15.011199951171875,-0.000976264476776123,-0.00028616306371986866,-0.0002202843315899372
1773790166236163800,15.031163818359374,0.000024222710635513067,-0.000973281217738986,0.00047521432861685753
1773790166256127700,15.051127685546875,0.0004953359020873904,-0.00004756636917591095,0.0004272772930562496
1773790166276091000,15.0710908203125,-0.0007975774351507425,-0.000047365669161081314,0.00011146534234285355
1773790166296054800,15.0910546875,-0.00005718355532735586,-0.0009082176256924868,0.00034405896440148354
1773790166316019000,15.11101904296875,-0.00041686464101076126,0.0005888473242521286,-0.0010184040293097496
1773790166335982300,15.130982421875,-0.00006679733633063734,0.00065452023409307,-0.00031558098271489143
1773790166355946200,15.1509462890625,-0.0009263455867767334,-0.000517797190696001,-0.001328298356384039
1773790166375910400,15.170910400390625,-0.00016437744488939643,-0.0006094926502555609,-0.0007393448613584042
1773790166395873300,15.190873291015626,0.00005300829070620239,-0.0015040033031255007,-0.0006506927311420441
1773790166415837200,15.210837158203125,0.0002333161246497184,0.00019150320440530777,-0.00024694157764315605
1773790166435801300,15.23080126953125,0.000021919287974014878,-0.0005167215131223202,-0.0009357300586998463
1773790166455765200,15.25076513671875,0.0006599953630939126,0.0001939504873007536,-0.00026583345606923103
1773790166475729400,15.2707294921875,-0.00047302519669756293,0.0007405523210763931,-0.00006330152973532677
1773790166495692300,15.2906923828125,0.0006168041145429015,-0.0003976149018853903,0.00007074791938066483
1773790166515656400,15.310656494140625,-0.0009957854636013508,0.0009458211716264486,-0.00001778639853000641
1773790166535620400,15.330620361328124,-0.0001333350664936006,-0.0005499504040926695,0.0010111993178725243
1773790166555584500,15.35058447265625,-0.00024047840270213783,0.00009435764513909817,-0.0006434102542698383
1773790166575548400,15.37054833984375,0.0011340721976011992,0.00021431688219308853,-0.0003810012713074684
1773790166595511600,15.390511474609376,0.0005379525246098638,0.00003840913996100426,-0.0008087418973445892
1773790166615475500,15.410475341796875,0.000286941445665434,-0.0011482867412269115,-0.0006291903555393219
1773790166635439400,15.430439453125,-0.0002862685068976134,0.0011585734318941832,-0.0006596846505999565
1773790166655403300,15.4504033203125,-0.0004772300599142909,0.00019518728367984295,0.0008109044283628464
1773790166675367400,15.470367431640625,-0.0009178012842312455,-0.0007855298463255167,-0.0008652489632368088
1773790166695331300,15.490331298828124,0.000013313896488398314,0.00015600770711898804,-0.0002944222651422024
1773790166715294500,15.51029443359375,-0.0005339975468814373,-0.0010406512301415205,0.0008147410117089748
1773790166735258400,15.53025830078125,-0.0003098147572018206,0.0002529262565076351,0.0007944726385176182
1773790166755222300,15.55022216796875,0.0007156678475439548,0.0006897002458572388,0.00008050026372075081
1773790166775186200,15.570186279296875,-0.00022721890127286315,-0.00006213504821062088,-0.0005379975773394108
1773790166795150300,15.590150390625,-0.000353615905623883,-0.0005749894771724939,-0.0007057725451886654
1773790166815113200,15.61011328125,-0.0007405536016449332,-0.0015738534275442362,-0.0009034206159412861
1773790166835077400,15.630077392578125,-0.00012027649790979922,-0.0007286835461854935,-0.00008719693869352341
1773790166855041300,15.650041259765626,0.00007773106335662305,-0.00020537409000098705,0.0018427828326821327
1773790166875005200,15.670005126953125,-0.0011664392659440637,0.00036633037962019444,-0.000046897679567337036
1773790166894969300,15.68996923828125,-0.001444992027245462,0.00042746146209537983,-0.0005533695220947266
1773790166914932200,15.70993212890625,0.0009728092700242996,0.0011887854197993875,-0.000667098443955183
1773790166934896400,15.729896484375,0.0008669288945384324,0.0005704872310161591,-0.0006679347716271877
1773790166954860500,15.749860595703124,-0.0017585881287232041,0.000010885996744036674,0.0010084803216159344
1773790166974824400,15.769824462890625,-0.0007395370048470795,-0.0005740246269851923,-0.0005745170637965202
1773790166994788400,15.789788330078125,-0.0003165008674841374,-0.0003185246605426073,0.0007982607930898666
1773790167014751500,15.80975146484375,0.00041395932203158736,0.0019482695497572422,-0.0010596453212201595
1773790167034715400,15.82971533203125,-0.00019265417358838022,0.00020166579633951187,-0.00014092540368437767
1773790167054679300,15.84967919921875,0.0009031525114551187,0.001040794188156724,0.0017629028297960758
1773790167074643500,15.8696435546875,-0.0007129692239686847,-0.0007958868518471718,0.0005994858220219612
1773790167094607400,15.889607421875,0.0010346492053940892,-0.0005333651788532734,-0.001371404156088829
1773790167114570500,15.909570556640626,-0.0008361813379451632,0.0005218398291617632,-0.0013175713829696178
1773790167134534400,15.929534423828125,-0.00032550314790569246,0.00015357625670731068,-0.0011458983644843102
1773790167154498300,15.949498291015624,0.00013593537732958794,-0.0003763840068131685,-0.000656886026263237
1773790167174462200,15.969462158203125,-0.0000565794762223959,-0.0007136906497180462,-0.0005477708764374256
1773790167194426400,15.98942626953125,-0.000647375185508281,0.00024030497297644615,0.000022569671273231506
1773790167214389200,16.00938916015625,-0.00043589482083916664,-0.0005412872415035963,0.000020369887351989746
1773790167234353400,16.029353515625,-0.0004538237117230892,0.00014052563346922398,0.0006347615271806717
1773790167254317300,16.0493173828125,0.0005040166433900595,0.00010651513002812862,0.001985405571758747
1773790167274281200,16.06928125,-0.0011919380631297827,-0.0002131783403456211,0.0011905580759048462
1773790167294245000,16.0892451171875,0.00038214653613977134,0.0010254529770463705,0.00014147628098726273
1773790167314208300,16.109208251953124,0.0012810990447178483,-0.00015542958863079548,0.00006143515929579735
1773790167334172200,16.129172119140627,-0.0004691343638114631,-0.00031607411801815033,0.0008497168309986591
1773790167354136600,16.149136474609374,0.0013946527615189552,-0.0005435959901660681,-0.00009213900193572044
1773790167374100500,16.1691005859375,-0.0007349808001890779,-0.00030648079700767994,-0.00004034675657749176
1773790167394064400,16.189064453125,-0.0006722108228132129,0.00013158516958355904,0.001438200008124113
1773790167414027500,16.209027587890624,0.00033252997673116624,-0.000008535338565707207,0.0005644797347486019
1773790167433991400,16.228991455078123,-0.0004910558345727623,-0.0003900551237165928,0.0013075261376798153
1773790167453955300,16.248955322265626,-0.00027615364524535835,-0.0006802771240472794,0.0009633321315050125
1773790167473919500,16.26891943359375,0.0010973168537020683,0.0004099856596440077,0.00003196904435753822
1773790167493883400,16.28888330078125,-0.00002759025665000081,0.0003494182601571083,0.0012356420047581196
1773790167513846300,16.30884619140625,0.000734415662009269,-0.0003663920797407627,-0.0004735654219985008
1773790167533810400,16.328810546875,0.0007670744089409709,-0.0012258007191121578,0.00042502768337726593
1773790167553774300,16.3487744140625,0.000660455203615129,0.0001086012925952673,0.0013016914017498493
1773790167573738200,16.36873828125,0.00020903714175801724,0.00031412113457918167,0.000487765297293663
1773790167593702400,16.388702392578125,0.00015327574510592967,0.0005191310774534941,0.00032396381720900536
1773790167613665300,16.408665283203124,-0.0007004108629189432,-0.00019672815687954426,0.0006045885384082794
1773790167633629400,16.42862939453125,0.0002721601922530681,-0.0018152070697396994,-0.0010738694109022617
1773790167653593300,16.44859326171875,0.0003245676343794912,0.000015092547982931137,-0.00035850657150149345
1773790167673557200,16.46855712890625,0.0003803470463026315,0.00029079592786729336,0.0004974291659891605
1773790167693521200,16.488521240234373,-0.001200087950564921,-0.0004080054350197315,0.00012313853949308395
1773790167713484300,16.508484375,0.0006544938078150153,0.00043645245023071766,0.00030274316668510437
1773790167733448200,16.5284482421875,-0.0012607370736077428,-0.00032928353175520897,0.00047380849719047546
1773790167753412400,16.548412353515626,0.0011902740225195885,0.000760780880227685,-0.0000742841511964798
1773790167773376500,16.56837646484375,-0.0007054280722513795,-0.000127128092572093,-0.00006374670192599297
1773790167793340400,16.58834033203125,-0.0007051751017570496,-0.0008036976214498281,-0.0008322545327246189
1773790167813303600,16.608303466796876,0.00031986390240490437,-0.0002618851140141487,-0.0014871214516460896
1773790167833267500,16.628267333984375,0.0005817188648506999,-0.0013490028213709593,0.000414940994232893
1773790167853231400,16.6482314453125,0.0010838945163413882,0.0006806268356740475,-0.0006461902521550655
1773790167873195500,16.668195556640626,-0.0006799740949645638,0.0007602365221828222,-0.001048227772116661
1773790167893159400,16.688159423828125,-0.000055929849622771144,0.00036844145506620407,0.00018365075811743736
1773790167913122300,16.708122314453124,-0.00039577618008479476,-0.0010826203506439924,-0.001440790481865406
1773790167933086500,16.72808642578125,0.0000780654518166557,0.0009472952224314213,-0.001059665810316801
1773790167953050400,16.74805029296875,0.0006332494667731225,-0.00018003606237471104,-0.00013949116691946983
1773790167973014300,16.76801416015625,-0.00018657316104508936,0.0017182157607749104,0.00022283056750893593
1773790167992977400,16.787977294921873,0.001971148420125246,0.000439023831859231,-0.00017862208187580109
1773790168012941300,16.80794140625,0.000566127069760114,-0.0005797490011900663,0.001756005920469761
1773790168032905200,16.8279052734375,0.0004718239069916308,-0.0002814314793795347,-0.0001951637677848339
1773790168052869400,16.847869384765627,-0.0009892787784337997,0.0006133625283837318,0.0007766322232782841
1773790168072833300,16.867833251953126,0.00006847715121693909,0.0013126031262800097,-0.0007955441251397133
1773790168092796400,16.88779638671875,-0.0006648139096796513,0.0000021462328732013702,0.000019666273146867752
1773790168112760300,16.90776025390625,0.0001577536459080875,0.0004275352694094181,-0.0004953006282448769
1773790168132724200,16.92772412109375,-0.0007064078818075359,0.00010260194540023804,-0.001155270729213953
1773790168152688400,16.9476884765625,-0.0019302750006318092,-0.00038962368853390217,0.00010329112410545349
1773790168172652300,16.96765234375,0.00012534178677015007,0.00014131353236734867,0.000031366944313049316
1773790168192615200,16.987615234375,-0.00019719278498087078,0.0003759237006306648,0.00038535892963409424
1773790168212579300,17.007579345703125,-0.0015110850799828768,0.000591350020840764,-0.0014799931086599827
1773790168232543500,17.02754345703125,0.0014012673636898398,0.00015995395369827747,-0.0009172237478196621
1773790168252507400,17.04750732421875,0.0005838903598487377,0.0002677314914762974,-0.0002786419354379177
1773790168272470500,17.067470458984374,-0.00025042309425771236,-0.00033703376539051533,-0.0009687980636954308
1773790168292434400,17.087434326171874,0.000054548741900362074,-0.0015312943141907454,0.0006687953136861324
1773790168312398300,17.1073984375,-0.0009908777428790927,0.00043956399895250797,0.00029424671083688736
1773790168332362500,17.127362548828124,0.0018552866531535983,0.0003833356313407421,-0.000935165211558342
1773790168352326400,17.147326416015623,-0.0005398602224886417,0.00014303927309811115,0.0013548368588089943
1773790168372289500,17.16728955078125,0.00008784876263234764,0.0002640488091856241,0.00024337321519851685
1773790168392253400,17.18725341796875,0.0005177883431315422,0.0007838953752070665,-0.00013110553845763206
1773790168412217300,17.20721728515625,0.0009763606358319521,0.00007902923971414566,-0.00014915410429239273
1773790168432181200,17.22718115234375,0.0003277762734796852,0.00023952126502990723,0.00019183475524187088
1773790168452145400,17.2471455078125,-0.00011401806841604412,-0.0008032568730413914,-0.000004751607775688171
1773790168472108300,17.2671083984375,-0.00008577860717196018,0.00010098773054778576,-0.0006397082470357418
1773790168492072400,17.287072509765625,0.0007012160494923592,0.000942564569413662,-0.000027259811758995056
1773790168512036400,17.307036376953125,0.000454699678812176,-0.001059632282704115,0.00020640436559915543
1773790168532000300,17.327000244140624,0.00035220495192334056,0.0005468202289193869,0.00047721993178129196
1773790168551964200,17.346964111328123,0.0007184057030826807,0.0006777369417250156,0.00041984720155596733
1773790168571927300,17.36692724609375,-0.00017964644939638674,0.0019425776554271579,0.00023179082199931145
1773790168591891200,17.38689111328125,0.00017813211889006197,0.000463718781247735,0.000509501900523901
1773790168611855400,17.40685546875,-0.0007810943061485887,0.00044848350808024406,-0.0005229795351624489
1773790168631819300,17.4268193359375,-0.0005026576691307127,-0.000460365554317832,0.0010476429015398026
1773790168651782400,17.446782470703123,0.000055880387662909925,0.00015828642062842846,-0.0011592037044465542
1773790168671746300,17.466746337890626,0.00119303772225976,-0.00027931458316743374,0.00013464968651533127
1773790168691710500,17.48671044921875,-0.0007049065316095948,-0.00009647756814956665,0.00015097344294190407
1773790168711674400,17.50667431640625,-0.00036230130353942513,-0.00042211730033159256,0.001269001979380846
1773790168731638500,17.526638427734376,-0.00015873307711444795,-0.0004505172837525606,0.0002341107465326786
1773790168751601400,17.546601318359375,0.00027553830295801163,0.00007967744022607803,0.0011835950426757336
1773790168771565300,17.5665654296875,0.0011184202739968896,0.0007584765553474426,-0.000032986514270305634
1773790168791529500,17.586529541015626,-0.0005061951233074069,0.0005985421594232321,-0.00018873391672968864
1773790168811493400,17.606493408203125,0.0015737336361780763,-0.000038485974073410034,-0.0011783642694354057
1773790168831456500,17.62645654296875,0.000884899462107569,0.0004206907469779253,-0.000600762665271759
1773790168851420400,17.64642041015625,-0.00107356917578727,-0.0012996322475373745,0.0016846801154315472
1773790168871384300,17.66638427734375,-0.0010477129835635424,0.0003914015833288431,-0.0003317049704492092
1773790168891348500,17.686348388671874,0.0008582719601690769,0.00034349015913903713,-0.0001562405377626419
1773790168911312400,17.7063125,0.0011887819273397326,-0.0007830746471881866,3.520399332046509e-7
1773790168931275300,17.726275146484376,-0.0011062279809266329,0.0010615482460707426,0.0005148486234247684
1773790168951239400,17.746239501953124,-0.00028234452474862337,0.00035868422128260136,-0.0005290992558002472
1773790168971203300,17.766203369140626,-0.0015018387930467725,0.0015722087118774652,-0.0011650100350379944
1773790168991167200,17.786167236328126,0.00013579794904217124,0.0005298438481986523,0.00037907762452960014
1773790169011130400,17.80613037109375,-0.0004996293573640287,-0.0005527520552277565,0.00020414777100086212
1773790169031094300,17.82609423828125,0.0005956498207524419,-0.000027101952582597733,-0.0007058274932205677
1773790169051058200,17.84605810546875,0.00003714323975145817,0.000339914346113801,0.00011083297431468964
1773790169071022300,17.866022216796875,0.0012576819863170385,-0.00006431480869650841,-0.0004964331164956093
1773790169090985200,17.885985107421874,-0.0002957983233500272,0.00006166775710880756,-0.0007708650082349777
1773790169110949400,17.905949462890625,-0.0006116649019531906,-0.0010672516655176878,0.00008388888090848923
1773790169130913300,17.925913330078124,-0.0005337195470929146,0.0000525184441357851,-0.001026209443807602
1773790169150877200,17.945877197265624,-0.0007291753427125514,0.0002462367992848158,-0.001600543037056923
1773790169170841300,17.96584130859375,0.00044626527233049273,-0.0012806686572730541,-0.00044137006625533104
1773790169190804200,17.98580419921875,-0.0009686626144684851,0.001385712530463934,-0.00023055076599121094
1773790169210768400,18.005768310546873,-0.0005787435220554471,0.00032098451629281044,0.0011635995469987392
1773790169230732500,18.025732666015625,-0.0007850376423448324,-0.0002216910943388939,-0.00027813995257019997
1773790169250696400,18.045696533203124,-0.000966508814599365,-0.0005774649325758219,0.0010516513139009476
1773790169270659300,18.065659423828127,0.0004802893381565809,-0.00007940432988107204,0.0009264582768082619
1773790169290623500,18.08562353515625,-0.0013228874886408448,0.00010760314762592316,-0.0005428441800177097
1773790169310587400,18.10558740234375,0.000011956959497183561,-0.00018149008974432945,-0.000931872520595789
1773790169330551800,18.1255517578125,-0.00016646049334667623,0.0018231472931802273,0.0010085166431963444
1773790169350516000,18.145515869140624,-0.0008995772805064917,0.00008643954060971737,0.0013177166692912579
1773790169370478800,18.165478759765627,0.0002748448750935495,-0.0009384851437062025,-0.0004874994046986103
1773790169390443000,18.185443115234374,-0.000696605013217777,0.0007004814688116312,0.0009772740304470062
1773790169410407200,18.2054072265625,0.0007275062380358577,-0.00001605297438800335,0.00112257432192564
1773790169430371000,18.22537109375,-0.00039161310996860266,0.0009004978928714991,0.0006439276039600372
1773790169450334000,18.245333984375,-0.0013397900620475411,-0.0006843346636742353,-0.0006219767965376377
1773790169470298000,18.265298095703123,0.0005431208992376924,0.0009311444591730833,0.00042999302968382835
1773790169490262000,18.285261962890626,0.00006955195567570627,0.0002580236177891493,-0.001773773692548275
1773790169510226000,18.305225830078125,-0.00035659107379615307,0.0009639686904847622,-0.0005359896458685398
1773790169530190000,18.325190185546877,0.00006890136864967644,-0.0000470159575343132,0.0007738778367638588
1773790169550153000,18.345153076171876,0.000042056606616824865,0.0013645829167217016,0.00004113325849175453
1773790169570117000,18.3651171875,0.0005641801981255412,-0.0007986822165548801,0.00017653917893767357
1773790169590081000,18.3850810546875,0.0007454113801941276,0.000182304996997118,0.00018778815865516663
1773790169610045000,18.405044921875,-0.00004079542122781277,0.0007060591597110033,-0.0005899225361645222
1773790169630008000,18.425008056640625,0.00078118487726897,-0.0008481403347104788,-0.00005454430356621742
1773790169649972000,18.444971923828124,0.0005497258389368653,0.0004849783144891262,0.0001946701668202877
1773790169669935900,18.464935791015623,0.0003692003956530243,0.00016894331201910973,-0.0001275455579161644
1773790169689900000,18.484900146484375,0.00030100473668426275,0.0014065424911677837,-0.00021731248125433922
1773790169709863000,18.50486279296875,0.00020316013251431286,0.00034257955849170685,0.00002024741843342781
1773790169729826800,18.524826904296877,-0.0007118689245544374,-0.0008321146015077829,-0.0008423011749982834
1773790169749791000,18.544791015625,0.0003279230440966785,0.0002454256173223257,0.00040040211752057076
1773790169769755000,18.5647548828125,0.0007199366227723658,-0.00041473587043583393,0.0006519234739243984
1773790169789718800,18.58471875,0.0008435704512521625,0.0006781502161175013,-0.0011099954135715961
1773790169809682000,18.604681884765625,0.0007935526664368808,0.00016400800086557865,-0.0004678904078900814
1773790169829645800,18.624645751953125,-0.0011303960345685482,0.0008431554306298494,-0.0005000652745366096
1773790169849610000,18.64460986328125,0.0002175221306970343,-0.0006808082107454538,0.0002683098427951336
1773790169869574100,18.66457421875,0.00035678123822435737,0.0002332471776753664,0.0009824587032198906
1773790169889537000,18.684537109375,0.00043301668483763933,0.00008760043419897556,0.0005235965363681316
1773790169909501200,18.704501220703126,0.001207832247018814,0.0005143990274518728,-0.0007201461121439934
1773790169929465000,18.724465087890625,0.0003243717073928565,-0.00015851948410272598,0.0006070476956665516
1773790169949429000,18.744428955078124,-0.00025382981402799487,0.0005346210673451424,0.00017618993297219276
1773790169969392000,18.76439208984375,0.0011173710227012634,-0.0004520956426858902,-0.0010518566705286503
1773790169989356000,18.78435595703125,-0.00009104114724323153,-0.0003987797535955906,-0.0011874446645379066
1773790170009320000,18.80431982421875,0.00036461331183090806,0.0012847463367506862,0.00029175402596592903
1773790170029284000,18.8242841796875,0.001798716257326305,0.0007245508022606373,-0.000048201531171798706
1773790170049247000,18.8442470703125,0.00025230165920220315,-0.000019682804122567177,0.0002799937501549721
1773790170069211000,18.8642109375,0.0008894256898202002,-0.00046873465180397034,-0.00002043694257736206
1773790170089175000,18.884175048828126,0.0008190461667254567,0.0004472103901207447,0.0006965179927647114
1773790170109139000,18.904138916015626,0.0004046717658638954,0.0003588905092328787,-0.0004302654415369034
1773790170129102800,18.924102783203125,-0.00040677309152670205,-0.0012921371962875128,-0.0008031032048165798
1773790170149066000,18.94406591796875,0.00024934328394010663,0.0000282160472124815,0.00026446254923939705
1773790170169030000,18.96402978515625,0.0017325107473880053,0.00115583511069417,-0.0012373640201985836
1773790170188994000,18.983994140625,-0.0004984929109923542,0.00040683429688215256,-0.0016886298544704914
1773790170208958000,19.0039580078125,0.0010935794562101364,-0.00034563872031867504,0.001211745198816061
1773790170228920800,19.0239208984375,0.0006043219473212957,0.00019963830709457397,-0.0003686174750328064
1773790170248885000,19.043885009765624,0.000950599554926157,0.0002891574986279011,0.0010140081867575645
1773790170268849000,19.063848876953124,-0.00036318867933005095,0.0005041041877120733,-0.0002040145918726921
1773790170288812800,19.083812744140626,-0.0002775583998300135,0.001608287449926138,-0.0013838829472661018
1773790170308777200,19.103777099609374,-0.0010415927972644567,0.000008862698450684547,6.575137376785278e-7
1773790170328739800,19.12373974609375,-0.0009222013759426773,0.00003715837374329567,0.0006538792513310909
1773790170348703500,19.143703369140624,0.0005517905810847878,0.0015244290698319674,0.00045869825407862663
1773790170368667400,19.16366748046875,0.0008366105612367392,0.0008200944866985083,0.000270260963588953
1773790170388631300,19.18363134765625,0.000316518300678581,-0.00009419280104339123,-0.0002283584326505661
1773790170408594400,19.203594482421874,-0.0004205561999697238,0.0002940325066447258,-0.001782973762601614
1773790170428558300,19.223558349609377,0.000687366584315896,-0.0004644810687750578,0.0004933029413223267
1773790170448522200,19.243522216796876,0.0002508584875613451,0.0009465205948799849,-0.0010743956081569195
1773790170468486400,19.263486328125,-0.001033690175972879,0.00011704699136316776,-0.0012031425721943378
1773790170488450300,19.2834501953125,0.0003737144870683551,-0.0000409088097512722,0.0007005762308835983
1773790170508413400,19.303413330078126,-0.001028183614835143,0.00110469083301723,0.0006140652112662792
1773790170528377300,19.32337744140625,0.0012680093059316278,0.00011966773308813572,-0.002136947587132454
1773790170548341200,19.34334130859375,-0.000085550855146721,0.00003104540519416332,0.0006129764951765537
1773790170568305200,19.36330517578125,-0.0010237845126539469,0.00015297415666282177,-0.0015498572029173374
1773790170588268300,19.383268310546875,-0.00031665555434301496,0.0007389218080788851,-0.001418766099959612
1773790170608232200,19.403232177734374,0.00037033349508419633,-0.000045977067202329636,0.0006639910861849785
1773790170628196400,19.4231962890625,0.0011086639715358615,-0.0007954896427690983,0.0006125443615019321
1773790170648160500,19.443160400390624,0.0013277707621455193,0.0003907964564859867,0.0007885396480560303
1773790170668123100,19.463123046875,-0.0005802374216727912,-0.0004712033551186323,-0.0011298302561044693
1773790170688087600,19.483087646484375,-0.0004438925825525075,0.000031541334465146065,0.0004687984474003315
1773790170708051500,19.503051513671874,0.0001777314901119098,0.0010990304872393608,-0.0006294962950050831
1773790170728015400,19.523015380859373,0.0009430948412045836,-0.00006862147711217403,0.0012440611608326435
1773790170747979500,19.5429794921875,0.0009467799100093544,-0.00021836813539266586,-0.0005528777837753296
1773790170767942400,19.5629423828125,0.0009121880866587162,-0.0010464065708220005,-0.00004408089444041252
1773790170787906300,19.58290625,0.00019501105998642743,-0.0007678661495447159,0.0004661679267883301
1773790170807870500,19.602870361328126,-0.0017177462577819824,0.0001344194170087576,0.0005206647329032421
1773790170827834400,19.62283447265625,-0.0009377197711728513,-0.0011891932226717472,-0.000635840930044651
1773790170847797500,19.642797607421876,-0.0008003148250281811,-0.0011658796574920416,-0.00024613412097096443
1773790170867761400,19.662761474609376,0.00011110378545708954,0.0005898177623748779,-0.00016836030408740044
1773790170887725300,19.682725341796875,-0.0006657656049355865,-0.0002277602907270193,0.0018838448449969292
1773790170907689200,19.702689208984374,-0.0005066159646958113,-0.0005354236345738173,-0.001210788730531931
1773790170927652400,19.72265234375,-0.00007919348718132824,0.0002850722521543503,-0.0004905229434370995
1773790170947616300,19.7426162109375,-0.0009802872082218528,-0.00048259622417390347,-0.00040483707562088966
1773790170967580400,19.762580322265624,0.0006601465865969658,0.000723954988643527,-0.00044598476961255074
1773790170987544300,19.78254443359375,0.00009608077380107716,0.00026811729185283184,0.0024128907825797796
1773790171007508200,19.80250830078125,0.00041729866643436253,0.0003926497884094715,0.000521387904882431
1773790171027471400,19.822471435546873,-0.0010623473208397627,-0.00028060260228812695,0.00004419870674610138
1773790171047435300,19.842435302734376,-0.00009114801650866866,0.0006954539567232132,0.0002571926452219486
1773790171067399200,19.862399169921876,-0.000498663168400526,-0.0011308803223073483,0.0001833345741033554
1773790171087363300,19.88236328125,-0.0001902072981465608,-0.0003014106769114733,-0.0002153259702026844
1773790171107326200,19.902326171875,-0.0005618424620479345,0.0009598336182534695,-0.0013970336876809597
1773790171127290400,19.922290283203125,0.0011936614755541086,-0.000028838636353611946,-0.00011704396456480026
1773790171147254500,19.942254638671876,0.0007963354582898319,0.000700698234140873,0.0007896004244685173
1773790171167218400,19.962218505859376,-0.00017970539920497686,-0.00003495789133012295,0.00035122456029057503
1773790171187181600,19.982181640625,-0.00023096984659787267,0.0008575920946896076,0.00026377057656645775
1773790171207145500,20.0021455078125,0.0004699197306763381,0.000988375162705779,-0.0016846256330609322
1773790171227109400,20.022109375,-0.00022923914366401732,0.003068772377446294,-0.0004985667765140533
1773790171247073500,20.042073486328125,-0.00020522522390820086,0.0005153499078005552,0.00048179831355810165
1773790171267037400,20.062037353515624,0.0002939027617685497,-0.0005716646555811167,0.0006538773886859417
1773790171287000300,20.082000244140627,-0.0011017115321010351,-0.00031208572909235954,-0.00014379573985934258
1773790171306964500,20.101964599609374,-0.0005157522391527891,-0.0002362367231398821,0.0003385460004210472
1773790171326928400,20.121928466796874,-0.00024120038142427802,0.0012969269882887602,0.0009901197627186775
1773790171346892500,20.141892578125,-0.00039435754297301173,-0.0005191958043724298,-0.0007031029090285301
1773790171366855700,20.161855712890624,-0.0008974287193268538,-0.00035141664557158947,-0.00029723672196269035
1773790171386819600,20.181819580078123,0.00015364990395028144,-0.0007050668355077505,0.0011959499679505825
1773790171406783500,20.201783447265626,-0.00032305484637618065,0.0001005332451313734,0.00018374202772974968
1773790171426747600,20.22174755859375,-0.0019542835652828217,0.00038727791979908943,-0.00008243555203080177
1773790171446710500,20.24171044921875,0.0003148151154164225,0.0003931298851966858,-0.0009207176044583321
1773790171466674700,20.2616748046875,-0.00003801338607445359,-0.00027082953602075577,-0.0019342321902513504
1773790171486638600,20.281638671875,0.0010976932244375348,0.0006415494717657566,0.00020597921684384346
1773790171506602800,20.301602783203126,0.0004105778061784804,0.0008764700032770634,0.0006448193453252316
1773790171526566700,20.321566650390626,0.0006814685184508562,0.00013816868886351585,0.0004732017405331135
1773790171546529500,20.341529541015625,-0.0012786330189555883,0.001253739115782082,-0.0012462199665606022
1773790171566493700,20.36149365234375,-0.0005809059366583824,0.0011256334837526083,-0.0001154039055109024
1773790171586457900,20.381457763671875,0.0014159501297399402,0.0006708502769470215,-0.0005622548051178455
1773790171606421800,20.401421875,-0.0005915972869843245,-0.0012727444991469383,0.00031442148610949516
1773790171626384600,20.421384521484374,0.0006437673000618815,-0.00007929629646241665,-0.0007107011042535305
1773790171646348800,20.441348876953125,0.0012617695610970259,0.0006748561281710863,-0.0003788168542087078
1773790171666312700,20.461312744140624,-0.0010411564726382494,0.0003416941035538912,0.0006313091143965721
1773790171686276600,20.481276611328123,-0.0004223997239023447,-0.0003406517207622528,0.0005319556221365929
1773790171706240800,20.50124072265625,-0.000372760376194492,0.0007758019492030144,0.0015106629580259323
1773790171726203600,20.52120361328125,0.0006762418779544532,-0.0007884593214839697,0.00020863674581050873
1773790171746167600,20.54116748046875,-0.0009441512520425022,0.0012689726427197456,0.0010796156711876392
1773790171766131700,20.561131591796876,-0.0007011941634118557,-0.00015094643458724022,-0.000019873958081007004
1773790171786095600,20.581095703125,-0.00009955998393706977,0.0001841189805418253,0.000835995189845562
1773790171806058800,20.601058837890626,-0.0024807185400277376,0.0004906945396214724,0.0003749416209757328
1773790171826022700,20.621022705078126,0.0017632803646847606,-0.0008062890265136957,-0.000843144953250885
1773790171845986600,20.640986572265625,-0.000093290233053267,-0.0003649587742984295,0.0027716492768377066
1773790171865950500,20.660950439453124,0.00013939570635557175,-0.00005770055577158928,-0.001006116159260273
1773790171885913600,20.68091357421875,-0.0004159403615631163,-0.0007580236997455359,0.0003377925604581833
1773790171905877500,20.70087744140625,0.00008811643056105822,-0.0010096586775034666,0.00007520848885178566
1773790171925841700,20.720841552734374,-0.0003938059671781957,-0.00026912963949143887,-0.000047029461711645126
1773790171945805600,20.7408056640625,-0.0013930803397670388,-0.0001820728648453951,-0.0009279320947825909
1773790171965769500,20.76076953125,-0.0006530949613079429,0.00008624279871582985,-0.000983869656920433
1773790171985732600,20.780732666015624,-0.00048733019502833486,0.0010255371453240514,0.00006333552300930023
1773790172005696500,20.800696533203126,0.00007073399319779128,0.0001548530999571085,0.0013648788444697857
1773790172025660700,20.82066064453125,-0.0009578005410730839,0.000014236196875572205,-0.0006583048962056637
1773790172045624800,20.840624755859373,-0.0011424418771639466,-0.0002652991097420454,0.0002492251805961132
1773790172065587700,20.860587646484376,-0.0006193456356413662,-0.0003757826052606106,-0.0009999917820096016
1773790172085551600,20.880551513671875,0.00044279685243964195,-0.0001287942286580801,-0.00010055117309093475
1773790172105515800,20.900515869140627,-0.00021879513224121183,0.00007395818829536438,-0.001234350260347128
1773790172125479700,20.920479736328126,0.0004722746671177447,-0.0005397927016019821,-0.0007134391926229
1773790172145443600,20.940443603515625,0.0015609312104061246,-0.00046544731594622135,0.0015183044597506523
1773790172165406700,20.96040673828125,-0.00018165477376896888,0.00008732522837817669,-0.0006023738533258438
