time,seconds_elapsed,z,y,x
1773790151230807600,0.0258076171875,0.00016644757124595344,-0.0034075146540999413,-0.005519401282072067
1773790151250771500,0.045771484375,0.0006269080913625658,-0.002828543307259679,-0.005875465925782919
1773790151270735600,0.065735595703125,0.000024234765078290366,-0.00307568465359509,-0.006127667147666216
1773790151290699500,0.085699462890625,0.0003177151083946228,-0.003026416292414069,-0.00708720413967967
1773790151310664000,0.105663818359375,-0.0002748382103163749,-0.0027196200098842382,-0.006176403257995844
1773790151330627800,0.1256279296875,-0.001344363670796156,-0.0028474517166614532,-0.006424343679100275
1773790151350592000,0.145592041015625,-0.000431432097684592,-0.0024796691723167896,-0.007730091456323862
1773790151370556000,0.165555908203125,-0.001885784324258566,-0.0022125542163848877,-0.007185208611190319
1773790151390520000,0.18552001953125,-0.00041012681322172284,-0.003834685543552041,-0.005774798337370157
1773790151410484000,0.20548388671875,-0.00014807176194153726,-0.0040852888487279415,-0.00498170917853713
1773790151430448000,0.2254482421875,-0.0007182545377872884,-0.003186205867677927,-0.0060086240991950035
1773790151450412000,0.245412109375,0.0007946872501634061,-0.0027614317368716,-0.006402771919965744
1773790151470376000,0.2653759765625,-0.0008990831556729972,-0.0033193640410900116,-0.005584382452070713
1773790151490340000,0.285340087890625,-0.0011747203534469008,-0.00256409146822989,-0.004983306862413883
1773790151510304000,0.305303955078125,-0.0007760451408103108,-0.0014966964954510331,-0.005993976723402739
1773790151530268000,0.325267822265625,0.0006093312404118478,-0.0032320122700184584,-0.006072539836168289
1773790151550231800,0.345231689453125,0.0009219863568432629,-0.00418355967849493,-0.004250404890626669
1773790151570196000,0.365196044921875,-0.0018301242962479591,-0.00378994457423687,-0.0031854070257395506
1773790151590160000,0.385159912109375,-0.0007060039788484573,-0.0015480954898521304,-0.00570023013278842
1773790151610123800,0.405123779296875,-0.0011486213188618422,-0.0026351979468017817,-0.005939381662756205
1773790151630088200,0.425088134765625,-0.0011052117915824056,-0.003973968792706728,-0.006591057404875755
1773790151650052000,0.445052001953125,-0.000012783173588104546,-0.003227218519896269,-0.005530852824449539
1773790151670016000,0.46501611328125,0.00025539714260958135,-0.002588326344266534,-0.005002481862902641
1773790151689980000,0.48497998046875,-0.00033902039285749197,-0.0025798040442168713,-0.006368417292833328
1773790151709944000,0.504944091796875,-0.0005046690348535776,-0.0023824640084058046,-0.0068174260668456554
1773790151729908000,0.524907958984375,0.000005060006060375599,-0.0026852653827518225,-0.00469541922211647
1773790151749871900,0.544871826171875,-0.0006945523782633245,-0.0032794165890663862,-0.005938050337135792
1773790151769836000,0.5648359375,-0.001291100517846644,-0.003266633255407214,-0.004828311037272215
1773790151789800000,0.584800048828125,-0.0016708672046661377,-0.0036495958920568228,-0.0062307314947247505
1773790151809763800,0.604763916015625,-0.0003576625313144177,-0.0033742249943315983,-0.005923402961343527
1773790151829728000,0.62472802734375,-0.0002508697798475623,-0.004875981714576483,-0.006716225761920214
1773790151849692000,0.64469189453125,0.00026764770154841244,-0.0019273296929895878,-0.005319397896528244
1773790151869656000,0.664656005859375,0.00006258428766159341,-0.002204298507422209,-0.005449626594781876
1773790151889620000,0.684619873046875,-0.0011377023765817285,-0.002862365450710058,-0.006075735669583082
1773790151909584100,0.704584228515625,0.0002772350562736392,-0.0016799219883978367,-0.005547896958887577
1773790151929548000,0.724548095703125,-0.0005906891310587525,-0.0013739247806370258,-0.006207295693457127
1773790151949511200,0.74451123046875,-0.0010104032699018717,-0.004289287142455578,-0.006096241995692253
1773790151969475000,0.76447509765625,0.00042530681821517646,-0.0037880802992731333,-0.005887450184673071
1773790151989439000,0.78443896484375,0.0004961469094268978,-0.003270095447078347,-0.006183327175676823
1773790152009403000,0.80440283203125,0.00007163903501350433,-0.0014274542918428779,-0.0051873051561415195
1773790152029367000,0.824366943359375,0.00043329631444066763,-0.0028991170693188906,-0.00734260119497776
1773790152049331000,0.8443310546875,-0.0003352919884491712,-0.0023411849979311228,-0.004765193909406662
1773790152069294000,0.864294189453125,-0.0011880361707881093,-0.0027446537278592587,-0.00640863087028265
1773790152089258000,0.884258056640625,-0.00108284130692482,-0.003885019337758422,-0.005363872740417719
1773790152109222000,0.904221923828125,-0.0015638081822544336,-0.002898318227380514,-0.005804093088954687
1773790152129185800,0.924185791015625,0.0007446198142133653,-0.0030921963043510914,-0.007193997036665678
1773790152149150000,0.94414990234375,0.0008543420699425042,-0.0030748858116567135,-0.005810484755784273
1773790152169113900,0.96411376953125,-0.0014234596164897084,-0.0027473168447613716,-0.005839246790856123
1773790152189078000,0.984078125,-0.00020133497309871018,-0.0031547807157039642,-0.006101568229496479
1773790152209042200,1.004042236328125,0.00010705907334340736,-0.0033241575583815575,-0.004804342519491911
1773790152229006000,1.024006103515625,-0.001002413802780211,-0.0015523566398769617,-0.004831773228943348
1773790152248970000,1.043969970703125,0.0016500946367159486,-0.0024399880785495043,-0.006667756475508213
1773790152268934000,1.063933837890625,0.0005446164286695421,-0.004006193019449711,-0.005628590937703848
1773790152288898000,1.08389794921875,-0.0001637844106880948,-0.0024317323695868254,-0.005323126446455717
1773790152308862000,1.103862060546875,0.0005435511702671647,-0.002570749493315816,-0.005945240613073111
1773790152328825300,1.123825439453125,0.0014516890514642,-0.0033723609521985054,-0.005877596326172352
1773790152348789200,1.143789306640625,-0.00010918960470007733,-0.004476773552596569,-0.0062853265553712845
1773790152368753200,1.163753173828125,-0.00004021373388241045,-0.002400839701294899,-0.00552233075723052
1773790152388717000,1.183717041015625,-0.0006889597862027586,-0.0034171019215136766,-0.005498095881193876
1773790152408681200,1.20368115234375,-0.0007672567153349519,-0.0029526466969400644,-0.006555637344717979
1773790152428645000,1.22364501953125,0.000401604687795043,-0.002734533743932843,-0.005607551895081997
1773790152448609000,1.243609130859375,0.000404534162953496,-0.002037584548816085,-0.0044080642983317375
1773790152468572200,1.263572265625,-0.000264718197286129,-0.002261822810396552,-0.0064387246966362
1773790152488536000,1.2835361328125,-0.0012005530297756195,-0.002980609890073538,-0.005181978922337294
1773790152508500200,1.303500244140625,0.0001174454009742476,-0.0027057717088609934,-0.006361759267747402
1773790152528464100,1.323464111328125,-0.00043302998528815806,-0.004143878817558289,-0.005656553898006678
1773790152548428000,1.343427978515625,-0.0005259743193164468,-0.003629089565947652,-0.005301021970808506
1773790152568392000,1.363391845703125,-0.0006908240029588342,-0.002974484581500292,-0.005591040477156639
1773790152588356400,1.3833564453125,-0.0019283948931843042,-0.003052781568840146,-0.005060005933046341
1773790152608320300,1.4033203125,0.0015185344964265823,-0.0014165353495627642,-0.004746818449348211
1773790152628284200,1.4232841796875,-0.0009092031978070736,-0.00210602767765522,-0.004995024763047695
1773790152648248300,1.443248291015625,-0.0002633866388350725,-0.0022714100778102875,-0.006166815757751465
1773790152668212200,1.463212158203125,0.00017896443023346364,-0.002808836055919528,-0.006711964961141348
1773790152688176000,1.483176025390625,-0.0005158542771823704,-0.0031760858837515116,-0.006327404174953699
1773790152708140000,1.50314013671875,0.00016325176693499088,-0.0019742012955248356,-0.005278651602566242
1773790152728104200,1.523104248046875,-0.0004974784678779542,-0.0036101811565458775,-0.005191033706068993
1773790152748068000,1.543068115234375,-0.0018381137633696198,-0.002712695859372616,-0.005081044975668192
1773790152768032000,1.563031982421875,-0.00018109494703821838,-0.003343332326039672,-0.006638195365667343
1773790152787996200,1.58299609375,0.0000351537273672875,-0.003293797606602311,-0.004098338540643454
1773790152807959000,1.602958984375,0.0014820491196587682,-0.0030538467690348625,-0.004677842371165752
1773790152827923000,1.6229228515625,-0.0010753844399005175,-0.004234426189213991,-0.006371612660586834
1773790152847887000,1.64288720703125,0.000687361869495362,-0.0028900622855871916,-0.005342034623026848
1773790152867851300,1.662851318359375,-0.00016671388584654778,-0.00227806787006557,-0.00498144282028079
1773790152887815200,1.682815185546875,-0.0009262474486604333,-0.002169144805520773,-0.006304501090198755
1773790152907779300,1.702779296875,0.00006391586794052273,-0.0036557212006300688,-0.005871737375855446
1773790152927743200,1.7227431640625,0.00018136126163881272,-0.0025449167005717754,-0.006047239992767572
1773790152947707100,1.74270703125,0.00022929816623218358,-0.0029784792568534613,-0.005572398193180561
1773790152967671000,1.762671142578125,0.0005307680112309754,-0.0013584784464910626,-0.0054701329208910465
1773790152987635200,1.78263525390625,0.0005856291390955448,-0.0038807583041489124,-0.005508216097950935
1773790153007599000,1.80259912109375,-0.00027057717670686543,-0.0024716798216104507,-0.005742307752370834
1773790153027563000,1.82256298828125,-0.000559263804461807,-0.0038831550627946854,-0.006932474672794342
1773790153047527200,1.842527099609375,-0.0008831042214296758,-0.0032109732273966074,-0.004600078333169222
1773790153067491000,1.862490966796875,-0.00018216021999251097,-0.0027515781112015247,-0.006368683185428381
1773790153087455000,1.882455078125,0.000360059377271682,-0.0022386531345546246,-0.004583033733069897
1773790153107419100,1.902419189453125,-0.0010149306617677212,-0.002724946476519108,-0.00752103328704834
1773790153127383300,1.92238330078125,-0.00003302319601061754,-0.0034503915812820196,-0.005318598821759224
1773790153147346200,1.94234619140625,-0.0007158577209338546,-0.003768905531615019,-0.006197175942361355
1773790153167310300,1.962310302734375,-0.00010492854926269501,-0.0034376082476228476,-0.005980394314974546
1773790153187274200,1.982274169921875,0.0008085357258096337,-0.0031819448340684175,-0.006207029335200787
1773790153207238100,2.002238037109375,0.00031079089967533946,-0.003947603516280651,-0.005823001731187105
1773790153227202300,2.022202392578125,-0.0007579356315545738,-0.0032863407395780087,-0.0045585329644382
1773790153247166200,2.042166259765625,-0.00014460964302998036,-0.0015121428295969963,-0.005578523501753807
1773790153267130000,2.062130126953125,-0.0006231797160580754,-0.0021174794528633356,-0.004989698529243469
1773790153287094000,2.082093994140625,0.00011105381418019533,-0.0021172130946069956,-0.003867708845064044
1773790153307058200,2.10205810546875,-0.00042051312630064785,-0.0027598338201642036,-0.0052296495996415615
1773790153327026000,2.12202587890625,0.00007776429993100464,-0.0029846045654267073,-0.004971322603523731
1773790153346989800,2.14198974609375,-0.000952080066781491,-0.0037175065372139215,-0.00549330236390233
1773790153366954000,2.1619541015625,0.0005038700764998794,-0.0027920580469071865,-0.004517253953963518
1773790153386918100,2.181918212890625,-0.0006016080733388662,-0.003552923211827874,-0.005583317019045353
1773790153406882000,2.201882080078125,-0.0007179882377386093,-0.0019534286111593246,-0.005921804811805487
1773790153426846000,2.221845947265625,-0.0004111920716241002,-0.0028730181511491537,-0.0049529471434652805
1773790153446809000,2.24180908203125,-0.0011177286505699158,-0.0035361452028155327,-0.005607818253338337
1773790153466773000,2.26177294921875,0.0008825715631246567,-0.00310577847994864,-0.005796636454761028
1773790153486737000,2.28173681640625,0.00013608753215521574,-0.0027811392210423946,-0.006364955101162195
1773790153506701000,2.301701171875,-0.0004034689045511186,-0.0018365158466622233,-0.006760966964066029
1773790153526665000,2.3216650390625,-0.001416002749465406,-0.003279150230810046,-0.005798234138637781
1773790153546628900,2.34162890625,0.000464188982732594,-0.0022567627020180225,-0.006529538426548243
1773790153566593000,2.361593017578125,-0.000648479734081775,-0.0036338833160698414,-0.00532578956335783
1773790153586557000,2.381556884765625,0.0011640676530078053,-0.0031180288642644882,-0.006058425176888704
1773790153606520800,2.401520751953125,-0.001118793967179954,-0.003029079409316182,-0.006735400762408972
1773790153626485000,2.421485107421875,0.00006285060226218775,-0.003498594742268324,-0.005287173669785261
1773790153646449200,2.44144921875,0.001291100517846644,-0.002581668319180608,-0.0065564364194869995
1773790153666413000,2.4614130859375,-0.0006889597862027586,-0.0030099046416580677,-0.005379052832722664
1773790153686377000,2.481376953125,-0.00006870955257909372,-0.0030663637444376945,-0.0054333810694515705
1773790153706341000,2.501341064453125,-0.0002612560929264873,-0.0036312201991677284,-0.004758269991725683
1773790153726305000,2.521304931640625,-0.0004338289436418563,-0.0035633095540106297,-0.006631004624068737
1773790153746268200,2.54126806640625,0.0007227819296531379,-0.003703658003360033,-0.0057492321357131
1773790153766232000,2.561232177734375,0.00039521310827694833,-0.0033902039285749197,-0.007190801203250885
1773790153786196000,2.581196044921875,-0.0007099987124092877,-0.002921487670391798,-0.005105013493448496
1773790153806160000,2.601159912109375,-0.0007382282637991011,-0.0027449200861155987,-0.005864547099918127
1773790153826124000,2.6211240234375,0.0003784351865760982,-0.0030154972337186337,-0.00518757151439786
1773790153846088000,2.641087890625,0.00012197277828818187,-0.001990446588024497,-0.006311425473541021
1773790153866051800,2.6610517578125,0.0006950850365683436,-0.003148389048874378,-0.004995024763047695
1773790153886016000,2.68101611328125,0.00022184131375979632,-0.002386458683758974,-0.0062331282533705235
1773790153905980000,2.70097998046875,-0.0006458165589720011,-0.002767823403701186,-0.006298109423369169
1773790153925944000,2.720944091796875,-0.0003251719754189253,-0.002475142013281584,-0.006086388137191534
1773790153945908000,2.740907958984375,-0.0004034689045511186,-0.0036573191173374653,-0.006292516831308603
1773790153965872000,2.7608720703125,0.000031158982892520726,-0.003916711080819368,-0.006997988559305668
1773790153985836000,2.7808359375,0.00019201391842216253,-0.0034669029992073774,-0.005768939387053251
1773790154005800000,2.800800048828125,0.0013046825770288706,-0.003222425002604723,-0.006206497084349394
1773790154025763000,2.82076318359375,-0.0014112089993432164,-0.0025925873778760433,-0.005618737079203129
1773790154045727000,2.84072705078125,-0.000107858024421148,-0.0020570256747305393,-0.005282646510750055
1773790154065691000,2.86069091796875,-0.001350222621113062,-0.0029057750944048166,-0.0052197957411408424
1773790154085655000,2.880655029296875,0.00018801917030941695,-0.0028855351265519857,-0.00449914438650012
1773790154105619000,2.900618896484375,0.00007776429993100464,-0.0019342538435012102,-0.006046440917998552
1773790154125582800,2.920582763671875,0.00019813918333966285,-0.002566754585132003,-0.00643632747232914
1773790154145547000,2.940547119140625,-0.0018053569365292788,-0.0023454460315406322,-0.00481393001973629
1773790154165511000,2.960510986328125,0.0010516822803765535,-0.0023521038237959146,-0.005283977836370468
1773790154185474800,2.980474853515625,-0.00008788431296125054,-0.003753725439310074,-0.006138053722679615
1773790154205439000,3.00043896484375,-0.00019467707898002118,-0.0038514635525643826,-0.00538411270827055
1773790154225403100,3.020403076171875,-0.00023861923546064645,-0.0030860709957778454,-0.005432316102087498
1773790154245367000,3.040366943359375,0.0007605988066643476,-0.0038860845379531384,-0.005399026442319155
1773790154265331000,3.0603310546875,-0.0008679241873323917,-0.0023917849175632,-0.0057279267348349094
1773790154285295000,3.080295166015625,-0.0008503473363816738,-0.0030594393610954285,-0.005232844967395067
1773790154305258000,3.100258056640625,0.00036751621519215405,-0.002603506203740835,-0.006858971435576677
1773790154325218300,3.12021826171875,-0.0003299656673334539,-0.002520415699109435,-0.00449807895347476
1773790154345182200,3.14018212890625,-0.0003515372518450022,-0.0024735440965741873,-0.005432582460343838
1773790154365146000,3.16014599609375,-0.00007909588020993397,-0.002748914761468768,-0.005620335228741169
1773790154385110000,3.180110107421875,0.00004953479583491571,-0.0022011026740074158,-0.005352154839783907
1773790154405074200,3.20007421875,-0.00046339002437889576,-0.0031017838045954704,-0.006000368390232325
1773790154425038000,3.2200380859375,0.0005193164106458426,-0.004235757514834404,-0.006499178241938353
1773790154445002000,3.240001953125,-0.001406947965733707,-0.002880475018173456,-0.006560963578522205
1773790154464966100,3.259966064453125,0.00026258768048137426,-0.003506850451231003,-0.005853095557540655
1773790154484930000,3.279929931640625,0.0002492718631401658,-0.0037894118577241898,-0.005016596522182226
1773790154504894000,3.29989404296875,-0.00010333064710721374,-0.0033960631117224693,-0.005487443413585424
1773790154524858000,3.319858154296875,0.0007728493656031787,-0.003058640519157052,-0.006213953718543053
1773790154544822300,3.339822265625,-0.0005989448982290924,-0.0029342707712203264,-0.00401471508666873
1773790154564785000,3.359784912109375,0.00017443705291952938,-0.0031590417493134737,-0.005720736458897591
1773790154584749300,3.379749267578125,0.0009169263648800552,-0.0017678063595667481,-0.005239769350737333
1773790154604713200,3.399713134765625,-0.0002777676854748279,-0.004066647030413151,-0.00552206439897418
1773790154624677000,3.419677001953125,-0.0001073253879440017,-0.0030333404429256916,-0.006037386134266853
1773790154644641300,3.439641357421875,0.00006844323797849938,-0.0023499734234064817,-0.005846703890711069
1773790154664605200,3.459605224609375,0.0004213120846543461,-0.0026935210917145014,-0.006177202332764864
1773790154684569000,3.479569091796875,-0.0005233111442066729,-0.0030834078788757324,-0.006185458041727543
1773790154704533000,3.499532958984375,-0.000952080066781491,-0.003165433183312416,-0.0060019660741090775
1773790154724497200,3.5194970703125,-0.0007131945458240807,-0.0028599686920642853,-0.005351888481527567
1773790154744461000,3.5394609375,0.00021678130724467337,-0.004089816473424435,-0.005121524911373854
1773790154764425000,3.559425048828125,0.0011440940434113145,-0.0034413367975503206,-0.005830192007124424
1773790154784389000,3.57938916015625,0.000036485307646216825,-0.002231462625786662,-0.006291984114795923
1773790154804352000,3.59935205078125,-0.0009318400407209992,-0.0025015072897076607,-0.007483748719096184
1773790154824316000,3.61931591796875,-0.00002210423735959921,-0.003043993143364787,-0.0058669438585639
1773790154844280000,3.639280029296875,-0.00016884441720321774,-0.0035204326268285513,-0.005839779507368803
1773790154864244200,3.659244140625,-0.0007171892793849111,-0.0024943165481090546,-0.006130064371973276
1773790154884208000,3.6792080078125,-0.00031079089967533946,-0.0022746059112250805,-0.005545500200241804
1773790154904172300,3.69917236328125,-0.0005251753609627485,-0.003736681304872036,-0.007667240686714649
1773790154924136200,3.71913623046875,-0.0014857775531709194,-0.003108175238594413,-0.006673615425825119
1773790154944100000,3.73910009765625,-0.0002495381922926754,-0.0025542378425598145,-0.005360676907002926
1773790154964064000,3.75906396484375,0.0013129384024068713,-0.003349457634612918,-0.004912200383841991
1773790154984028200,3.779028076171875,-0.000428502622526139,-0.002320678671821952,-0.004274107050150633
1773790155003992000,3.798991943359375,-0.0014170679496601224,-0.0019068233668804169,-0.00618146313354373
1773790155023956000,3.8189560546875,-0.0008109325426630676,-0.0024088292848318815,-0.0051833102479577065
1773790155043919000,3.838919189453125,0.0006785734440200031,-0.0034589136485010386,-0.006401440128684044
1773790155063883000,3.858883056640625,-0.0016892430139705539,-0.002067412016913295,-0.005848301574587822
1773790155083847200,3.87884716796875,0.0005291700945235789,-0.004286357667297125,-0.0057492321357131
1773790155103811000,3.89881103515625,0.00010040117194876075,-0.0032498554792255163,-0.0044165863655507565
1773790155123775000,3.91877490234375,-0.00039254993316717446,-0.002478337613865733,-0.006360427476465702
1773790155143739100,3.9387392578125,-0.0010266485624015331,-0.003438939806073904,-0.006335660349577665
1773790155163703300,3.958703369140625,0.001748897833749652,-0.001493500778451562,-0.006678675301373005
1773790155183667200,3.978667236328125,-0.0011377023765817285,-0.0021169467363506556,-0.006130862981081009
1773790155203631000,3.998631103515625,-0.00014993596414569765,-0.0027273432351648808,-0.0056893108412623405
1773790155223595300,4.01859521484375,-0.0006913566030561924,-0.002459961920976639,-0.006159891374409199
1773790155243559200,4.03855908203125,-0.0004934837343171239,-0.0035635759122669697,-0.005678658373653889
1773790155263523000,4.058523193359375,0.00010040117194876075,-0.0030360035598278046,-0.00526773277670145
1773790155283486200,4.078486328125,0.00031425300403498113,-0.003192863892763853,-0.005909820552915335
1773790155303450000,4.0984501953125,-0.0000500674286740832,-0.0032088428270071745,-0.005173190496861935
1773790155323414000,4.1184140625,0.0009528790251351893,-0.002685531508177519,-0.00580835435539484
1773790155343378200,4.138378173828125,0.0007986819837242365,-0.002495914464816451,-0.005645102355629206
1773790155363342000,4.158342041015625,-0.0003025351034011692,-0.003585413796827197,-0.005417668726295233
1773790155383306000,4.178305908203125,0.00007590009045088664,-0.0020394488237798214,-0.006164685357362032
1773790155403270000,4.198269775390625,-0.00022157499915920198,-0.0028549085836857557,-0.004471980035305023
1773790155423234000,4.218234130859375,0.0002487392339389771,-0.002280997345224023,-0.005095958709716797
1773790155443198000,4.238197998046875,0.002301770029589534,-0.004163319710642099,-0.004491155035793781
1773790155463161900,4.258161865234375,0.00021225394448265433,-0.003215500619262457,-0.00768721429631114
1773790155483126000,4.2781259765625,-0.000467118457891047,-0.0019771307706832886,-0.005093828309327364
1773790155503090000,4.29808984375,-0.0005970807396806777,-0.003418699838221073,-0.004942294210195541
1773790155523053000,4.318052978515625,-0.0016407734947279096,-0.00330231967382133,-0.0062914518639445305
1773790155543017000,4.338016845703125,-0.0001294296234846115,-0.004261057823896408,-0.004920190200209618
1773790155564230000,4.35922998046875,-0.0009922938188537955,-0.002668753731995821,-0.006730873137712479
1773790155584194000,4.379194091796875,-0.0008098672842606902,-0.0032764871139079332,-0.006220079027116299
1773790155604158000,4.399157958984375,-0.00006578007742064074,-0.0033012544736266136,-0.006102900020778179
1773790155624121900,4.419121826171875,-0.0001448759576305747,-0.0023992417845875025,-0.006216616835445166
1773790155644085000,4.4390849609375,-0.0011749867117032409,-0.0036245621740818024,-0.006219546310603619
1773790155664049000,4.459048828125,-0.0015864450251683593,-0.0023012375459074974,-0.005850432440638542
1773790155684012800,4.4790126953125,-0.0006838997360318899,-0.0024708807468414307,-0.005566539242863655
1773790155703977000,4.49897705078125,-0.0003406183095648885,-0.0026972496416419744,-0.00555322365835309
1773790155723941000,4.518941162109375,-0.001434112200513482,-0.003376888344064355,-0.0059907808899879456
1773790155743905000,4.538905029296875,-0.0008210525847971439,-0.0026383937802165747,-0.005835518706589937
1773790155763869000,4.558868896484375,0.00045353634050115943,-0.0012511530658230186,-0.005380117800086737
1773790155783833000,4.5788330078125,-0.00012357067316770554,-0.0031230889726430178,-0.006837133318185806
1773790155803797000,4.598796875,0.0004767058417201042,-0.003191798459738493,-0.004567853640764952
1773790155823761000,4.618760986328125,0.0000066579027588886674,-0.0035401401109993458,-0.0049124667420983315
1773790155843725000,4.63872509765625,-0.00007270430069183931,-0.0032285500783473253,-0.005770537536591291
1773790155863688000,4.65868798828125,-0.00019094864546786994,-0.0034088462125509977,-0.004737497307360172
1773790155883652000,4.678652099609375,-0.0012213257141411304,-0.0012420982820913196,-0.0065353973768651485
1773790155903616000,4.698615966796875,-0.0005797701887786388,-0.0049500176683068275,-0.006532734259963036
1773790155923580000,4.718579833984375,-0.0005864280392415822,-0.0032061797101050615,-0.005054946057498455
1773790155943543800,4.738543701171875,-0.0006639260682277381,-0.0032860743813216686,-0.006726345978677273
1773790155963508000,4.758508056640625,-0.0002713761059567332,-0.002930276095867157,-0.006653375457972288
1773790155983471900,4.778471923828125,-0.00011930961773032323,-0.0029843382071703672,-0.004936168901622295
1773790156003436000,4.79843603515625,-0.0006769755273126066,-0.0027302727103233337,-0.00637747161090374
1773790156023399000,4.81839892578125,-0.000020506340661086142,-0.002829608740285039,-0.0052107409574091434
1773790156043363000,4.838363037109375,0.0005310343112796545,-0.003014165675267577,-0.00490154791623354
1773790156063327000,4.858326904296875,0.00020133497309871018,-0.0025510420091450214,-0.006090116687119007
1773790156083291100,4.878291015625,-0.0005816344055347145,-0.0033222935162484646,-0.007317834068089724
1773790156103255000,4.898255126953125,-0.0007398261222988367,-0.002088983543217182,-0.0060262009501457214
1773790156123219000,4.918218994140625,0.0015478292480111122,-0.003744937013834715,-0.006127667147666216
1773790156143183000,4.93818310546875,-0.0012727247085422277,-0.0037060549948364496,-0.0038306908681988716
1773790156163147000,4.95814697265625,0.0009488842915743589,-0.0013265205780044198,-0.005608084611594677
1773790156183111000,4.97811083984375,-0.0009672601008787751,-0.0026501116808503866,-0.004891161806881428
1773790156203074800,4.99807470703125,0.00024394555657636374,-0.0023148194886744022,-0.005826463922858238
1773790156223038000,5.018037841796875,0.00037044569035060704,-0.0029675604309886694,-0.0043920851312577724
1773790156243001900,5.038001953125,-0.0014194648247212172,-0.0028876655269414186,-0.005881857592612505
1773790156262966000,5.057966064453125,-0.00038748994120396674,-0.0027885958552360535,-0.006569752003997564
1773790156282930000,5.077929931640625,-0.0008759136544540524,-0.003382747294381261,-0.005503954831510782
1773790156302893800,5.097893798828125,0.0006162554491311312,-0.002241050126031041,-0.00627094553783536
1773790156322858000,5.11785791015625,-0.00043888893560506403,-0.0036631780676543713,-0.005499427672475576
1773790156342822100,5.137822265625,0.0006809702608734369,-0.002834135899320245,-0.0059926449321210384
1773790156362786000,5.1577861328125,-0.00010679275874281302,-0.0031518512405455112,-0.006941263098269701
1773790156382750000,5.17775,-0.0010522148804739118,-0.004057059530168772,-0.006725813262164593
1773790156402714400,5.19771435546875,-0.00036724991514347494,-0.0020010992884635925,-0.006157228257507086
1773790156422678300,5.21767822265625,-0.0008636631537228823,-0.0031246868893504143,-0.005875465925782919
1773790156442641200,5.23764111328125,0.00032384038786403835,-0.0027441212441772223,-0.006416886579245329
1773790156462605300,5.257605224609375,-0.00022956448083277792,-0.003600327530875802,-0.005536978133022785
1773790156482569200,5.2775693359375,-0.00038988678716123104,-0.0028961875941604376,-0.0043984767980873585
1773790156502533000,5.297533203125,-0.0008990831556729972,-0.003165699541568756,-0.005652026738971472
1773790156522497300,5.317497314453125,-0.0016879114555194974,-0.003187004942446947,-0.0067873322404921055
1773790156542461200,5.337461181640625,0.0009150621481239796,-0.0025124261155724525,-0.0054307179525494576
1773790156562425000,5.357425048828125,-0.0005603290628641844,-0.003311374457553029,-0.005627525504678488
1773790156582389000,5.377388916015625,0.00026019083452410996,-0.003266367129981518,-0.005579322576522827
1773790156602353200,5.397353271484375,-0.0004700479330495,-0.0032408006954938173,-0.006021406967192888
1773790156622317000,5.417317138671875,-0.001181378262117505,-0.002868224401026964,-0.006450176239013672
1773790156642280200,5.4372802734375,0.00034674355993047357,-0.0031425300985574722,-0.005587311927229166
1773790156662244000,5.457244140625,0.000978978001512587,-0.002942260354757309,-0.006944458931684494
1773790156682208000,5.4772080078125,0.00030599720776081085,-0.0015390408225357533,-0.005948436446487904
1773790156702172200,5.497172119140625,-0.0015672702575102448,-0.002168612089008093,-0.005133509170264006
1773790156722136300,5.51713623046875,-0.00145195540972054,-0.0026112294290214777,-0.0057798586785793304
1773790156742100200,5.537100341796875,0.000788561999797821,-0.004151335451751947,-0.00538304727524519
1773790156762064100,5.557064208984375,0.0003504719934426248,-0.0022248048335313797,-0.0067716194316744804
1773790156782028300,5.5770283203125,0.0008290420519188046,-0.002510828198865056,-0.0073410035111010075
1773790156801992200,5.5969921875,-0.00015393071225844324,-0.0029321403708308935,-0.006127400789409876
1773790156821955300,5.616955322265625,-0.000333161442540586,-0.0025507756508886814,-0.006271477788686752
1773790156841919200,5.636919189453125,-0.0005757753970101476,-0.004312722943723202,-0.0051806471310555935
1773790156861883100,5.656883056640625,0.0007102650706656277,-0.0019824570044875145,-0.00663393409922719
1773790156881847000,5.676846923828125,-0.0002463423879817128,-0.003099919529631734,-0.006523945834487677
1773790156901811200,5.696811279296875,0.00040293627534992993,-0.004226969089359045,-0.00572952488437295
1773790156921775000,5.716775146484375,-0.0002561961009632796,-0.0021459751296788454,-0.0033393376506865025
1773790156941739000,5.736739013671875,-0.0007922904333099723,-0.002746251644566655,-0.006334062200039625
1773790156961703200,5.756703125,-0.0010000169277191162,-0.004024568945169449,-0.006804642733186483
1773790156981667000,5.7766669921875,-0.0013627394801005721,-0.004727377090603113,-0.004350806120783091
1773790157001631200,5.79663134765625,-0.0020160130225121975,-0.00245143985375762,-0.004326038993895054
1773790157021594000,5.816593994140625,-0.001008539111353457,-0.002968359272927046,-0.004502872936427593
1773790157041558300,5.836558349609375,-0.00015925703337416053,-0.0038048583082854748,-0.0062581622041761875
1773790157061522200,5.856522216796875,-0.0008269115351140499,-0.002228533150628209,-0.00598518829792738
1773790157081486300,5.876486328125,-0.0013259878614917397,-0.0026671558152884245,-0.006180131807923317
1773790157101450200,5.8964501953125,0.0004242415598127991,-0.0033936661202460527,-0.0039007319137454033
1773790157121414100,5.9164140625,0.0004261057765688747,-0.002986735198646784,-0.007315437309443951
1773790157141378000,5.9363779296875,-0.0000852211524033919,-0.003120425855740905,-0.007311975117772818
1773790157161342200,5.95634228515625,-0.00015659387281630188,-0.0036557212006300688,-0.006086920853704214
1773790157181306000,5.97630615234375,0.0005403553950600326,-0.003198190126568079,-0.004793956410139799
1773790157201270000,5.99627001953125,-0.0003528688393998891,-0.002826146548613906,-0.004653607495129108
1773790157221233200,6.016233154296875,-0.0008881642133928835,-0.002519350266084075,-0.005107676610350609
1773790157241197000,6.036197021484375,-0.0012053466634824872,-0.002855441300198436,-0.005898901727050543
1773790157261161200,6.0561611328125,-0.00010679275874281302,-0.004144943784922361,-0.006720220670104027
1773790157281125000,6.076125,0.0005589975044131279,-0.002665025182068348,-0.006188121158629656
1773790157301089000,6.096089111328125,-0.0008394283941015601,-0.0034735610242933035,-0.004876514431089163
1773790157321053700,6.1160537109375,0.000143544384627603,-0.002627474721521139,-0.005320196971297264
1773790157341017600,6.136017578125,0.000707868195604533,-0.002793922321870923,-0.005621666554361582
1773790157360981800,6.155981689453125,-0.0012303803814575076,-0.004406199790537357,-0.00612287363037467
1773790157380945700,6.175945556640625,0.0004034689045511186,-0.0034522556234151125,-0.005851497408002615
1773790157400908800,6.19590869140625,-0.0003222425002604723,-0.002951315138489008,-0.006847519893199205
1773790157420872700,6.215872802734375,-0.0008908273885026574,-0.0024253407027572393,-0.00646562222391367
1773790157440836600,6.235836669921875,-0.0003225088003091514,-0.0029521139804273844,-0.006394249852746725
1773790157460800800,6.25580078125,0.0008458199445158243,-0.0033545177429914474,-0.005178516730666161
1773790157480764700,6.2757646484375,-0.0009624664089642465,-0.0041497377678751945,-0.005526059307157993
1773790157500728800,6.295728759765625,-0.000811997801065445,-0.003943875432014465,-0.005952964071184397
1773790157520692700,6.315692626953125,0.0008729841792955995,-0.0035537220537662506,-0.006713562645018101
1773790157540657000,6.335656982421875,-0.000013848437447450124,-0.0033489251509308815,-0.005769472103565931
1773790157560620800,6.355620849609375,0.0005083974683657289,-0.0038892803713679314,-0.004562527406960726
1773790157580584000,6.375583984375,-0.000568052229937166,-0.0035960664972662926,-0.005647499579936266
1773790157600547800,6.3955478515625,0.0007475492893718183,-0.003988882526755333,-0.005054413340985775
1773790157620511700,6.41551171875,-0.000075101139373146,-0.003157443832606077,-0.00532552320510149
1773790157640475600,6.4354755859375,-0.0002668487431947142,-0.0023670175578445196,-0.006786533165723085
1773790157660439800,6.455439697265625,0.0007472829893231392,-0.0028764803428202868,-0.005112470127642155
1773790157680403700,6.47540380859375,-0.0010229201288893819,-0.0036136433482170105,-0.0054152715019881725
1773790157700367600,6.49536767578125,0.0007677893154323101,-0.00256382510997355,-0.006999586243182421
1773790157720331800,6.515331787109375,-0.001401355373673141,-0.0034405377227813005,-0.007001450285315514
1773790157740295700,6.535295654296875,-0.000013315805517777335,-0.0036597158759832382,-0.00595536082983017
1773790157760258600,6.555258544921875,-0.001068193931132555,-0.003992611076682806,-0.0057071540504693985
1773790157780222700,6.57522265625,-0.00020426444825716317,-0.002133724745362997,-0.006909305229783058
1773790157800186600,6.5951865234375,-0.0018194715958088636,-0.0027923244051635265,-0.006047772243618965
1773790157820150500,6.615150634765625,0.0008586031035520136,-0.0033065807074308395,-0.006222475785762072
1773790157840115000,6.635114990234375,0.0005515406373888254,-0.002234924817457795,-0.004522313829511404
1773790157860078800,6.655078857421875,0.0009643306257203221,-0.0017944378778338432,-0.005544967483729124
1773790157880042800,6.675042724609375,-0.00026551715563982725,-0.003450924064964056,-0.00740358792245388
1773790157900006700,6.695006591796875,-0.00030546457855962217,-0.004133225884288549,-0.006494384724646807
1773790157919970800,6.714970703125,-0.001395496423356235,-0.0032706281635910273,-0.006792392116039991
1773790157939933700,6.73493359375,0.0009318400407209992,-0.002811499172821641,-0.005263737868517637
1773790157959897900,6.75489794921875,-0.0021654162555933,-0.00398648576810956,-0.0062696137465536594
1773790157979861800,6.77486181640625,-0.00004900216299574822,-0.003288205014541745,-0.00666269613429904
1773790157999825700,6.79482568359375,-0.0000655137628200464,-0.0029228192288428545,-0.005000085104256868
1773790158019789600,6.81478955078125,-0.00023968449386302382,-0.0023273364640772343,-0.006646184716373682
1773790158039753700,6.834753662109375,0.0009528790251351893,-0.002095375210046768,-0.0065377941355109215
1773790158059717600,6.854717529296875,-0.00016298545233439654,-0.004255731590092182,-0.006347111891955137
1773790158079681500,6.874681640625,-0.00038003307417966425,-0.0030897995457053185,-0.0065111625008285046
1773790158099644700,6.894644775390625,-0.0015249260468408465,-0.00373028963804245,-0.005861883983016014
1773790158119608600,6.914608642578125,-0.0013638047967106104,-0.0021912488155066967,-0.006569219287484884
1773790158139572700,6.93457275390625,0.00017070861940737814,-0.0027925907634198666,-0.006377205718308687
1773790158159537000,6.954536865234375,-0.0006503439508378506,-0.0023310647811740637,-0.007135673891752958
1773790158179500800,6.974500732421875,-0.0004958806093782187,-0.0029611687641590834,-0.00583738274872303
1773790158199464700,6.994464599609375,-0.00009614011651137844,-0.0035569178871810436,-0.006271744146943092
1773790158219428900,7.014428955078125,-0.0003787015157286078,-0.0036495958920568228,-0.005970274563878775
1773790158239392800,7.034392822265625,-0.00015419702685903758,-0.002587793627753854,-0.004963599611073732
1773790158259356700,7.054356689453125,0.00015819176041986793,-0.002454102970659733,-0.005605421494692564
1773790158279319800,7.07431982421875,-0.0011701929615810513,-0.0027385284192860126,-0.007199855986982584
1773790158299283700,7.09428369140625,0.0003355582884978503,-0.003724963404238224,-0.006312756799161434
1773790158319247400,7.114247314453125,0.000931307440623641,-0.0032661007717251778,-0.0054357778280973434
1773790158339211500,7.13421142578125,-0.00033688987605273724,-0.0031185615807771683,-0.006640858482569456
1773790158359175400,7.154175537109375,-0.00119602563790977,-0.0036453348584473133,-0.007017429452389479
1773790158379139300,7.174139404296875,-0.0007291734800674021,-0.0020991035271435976,-0.006719687953591347
1773790158399103500,7.194103515625,-0.0001853560097515583,-0.0035577169619500637,-0.005170527379959822
1773790158419067400,7.2140673828125,-0.0019502328941598535,-0.002606169320642948,-0.005377454683184624
1773790158439031300,7.23403125,0.00036139096482656896,-0.003063700394704938,-0.004935636185109615
1773790158458994400,7.253994384765625,-0.0015792545164003968,-0.003300189273431897,-0.005876531358808279
1773790158478958300,7.273958251953125,0.00008681904728291556,-0.0022943131625652313,-0.006430468522012234
1773790158498922500,7.293922607421875,-0.0015997608425095677,-0.003460245206952095,-0.0062642875127494335
1773790158518886700,7.31388671875,0.000059921123465755954,-0.0022924491204321384,-0.006286924239248037
1773790158538850600,7.3338505859375,0.00004740426811622456,-0.0020354539155960083,-0.005285309627652168
1773790158558814500,7.353814453125,-0.00022397184511646628,-0.004033890087157488,-0.006057892460376024
1773790158578778600,7.373778564453125,-0.00027031084755435586,-0.0011345066595822573,-0.005766808986663818
1773790158598742500,7.393742431640625,-0.0008652610122226179,-0.004437092691659927,-0.005877329967916012
1773790158618705400,7.413705322265625,-0.001680720946751535,-0.0018074874533340335,-0.004851746838539839
1773790158638669600,7.433669677734375,-0.0009925601771101356,-0.00358754419721663,-0.005708485841751099
1773790158658633500,7.453633544921875,-0.0010042780777439475,-0.0021731394808739424,-0.006420881487429142
1773790158678597400,7.473597412109375,0.0009049421059899032,-0.002457298804074526,-0.006958307232707739
1773790158698561500,7.4935615234375,0.0012114719720557332,-0.003151052165776491,-0.006816094275563955
1773790158718525400,7.513525390625,-0.0005483448621816933,-0.0025278725661337376,-0.005820072256028652
1773790158738489300,7.5334892578125,0.0002567287301644683,-0.0018253305461257696,-0.004800081718713045
1773790158758453200,7.553453369140625,-0.00022690132027491927,-0.0022280006669461727,-0.0054967645555734634
1773790158778416400,7.57341650390625,0.0004242415598127991,-0.00375958438962698,-0.005426457151770592
1773790158798380300,7.59338037109375,-0.00119602563790977,-0.00361683894880116,-0.006681072060018778
1773790158818344700,7.6133447265625,-0.0005147890187799931,-0.003299123840406537,-0.006804110016673803
1773790158838308600,7.63330859375,0.0015837819082662463,-0.002531334524974227,-0.004640824627131224
1773790158858272500,7.6532724609375,0.00023515711654908955,-0.003864246653392911,-0.007908523082733154
1773790158878236400,7.673236328125,-0.00032890037982724607,-0.0037033918779343367,-0.005573197267949581
1773790158898200600,7.69320068359375,-0.0007776430575177073,-0.0022921827621757984,-0.005507417023181915
1773790158918164500,7.71316455078125,-0.0010290454374626279,-0.0022660838440060616,-0.006792392116039991
1773790158938127600,7.733127685546875,-0.0003933488915208727,-0.003363838652148843,-0.0054301852360367775
1773790158958091500,7.753091552734375,-0.00017124126316048205,-0.002668221015483141,-0.005046690348535776
1773790158978055400,7.773055419921875,0.00015712650201749057,-0.0036005936563014984,-0.0057652113027870655
1773790158998019600,7.79301953125,-0.0011345066595822573,-0.00364693277515471,-0.006607036106288433
1773790159017983500,7.8129833984375,-0.00038402783684432507,-0.0026165556628257036,-0.0059572248719632626
1773790159037947400,7.832947509765625,-0.0007091998122632504,-0.004339887294918299,-0.00500967213883996
1773790159057911300,7.852911376953125,0.00046845004544593394,-0.004053863696753979,-0.004723116289824247
1773790159077875500,7.87287548828125,0.00006471481174230576,-0.0035545211285352707,-0.007451258134096861
1773790159097839600,7.892839599609375,-0.0006351639167405665,-0.0026458504144102335,-0.004858404863625765
1773790159117802500,7.912802490234375,0.00014993596414569765,-0.004102333448827267,-0.0054142065346241
1773790159137766700,7.9327666015625,-0.0004964132094755769,-0.003242398612201214,-0.007532218471169472
1773790159157730600,7.95273046875,0.00019281286222394556,-0.0038280277512967587,-0.005257878918200731
1773790159177694500,7.972694580078125,-0.0008596684201620519,-0.0034935346338897943,-0.005506884306669235
1773790159197658600,7.99265869140625,-0.0005456816870719194,-0.002427737694233656,-0.004485561978071928
1773790159217622500,8.01262255859375,-0.0002966761530842632,-0.004159058444201946,-0.0054397727362811565
1773790159237586400,8.03258642578125,0.00045912896166555583,-0.003038400551304221,-0.005609150044620037
1773790159257550600,8.052550537109376,-0.00006604639202123508,-0.002703907433897257,-0.00571833923459053
1773790159277513500,8.072513427734375,-0.0002942793071269989,-0.00264824740588665,-0.004208593629300594
1773790159297477400,8.092477294921874,-0.0020937772933393717,-0.0030250847339630127,-0.005367867648601532
1773790159317441500,8.112441650390625,-0.0007254450465552509,-0.002286856295540929,-0.0059929112903773785
1773790159337406000,8.132406005859375,0.00017603494052309543,-0.0012442287988960743,-0.005602758377790451
1773790159357369900,8.152369873046876,-0.0010932276491075754,-0.0029755497816950083,-0.006016879808157682
1773790159377333800,8.172333740234375,-0.0014540859265252948,-0.0033662356436252594,-0.005370530765503645
1773790159397298000,8.1922978515625,0.0003731088654603809,-0.003192331176251173,-0.005453887395560741
1773790159417261800,8.21226171875,0.0003834952076431364,-0.002302835462614894,-0.0046701193787157536
1773790159437225000,8.232224853515625,-0.00020532972121145576,-0.0031398669816553593,-0.005873601883649826
1773790159457188900,8.25218896484375,-0.0002798982313834131,-0.0027137610595673323,-0.005605155136436224
1773790159477152800,8.27215283203125,0.0007395598222501576,-0.002841060282662511,-0.006043777801096439
1773790159497117000,8.292116943359375,-0.002020007697865367,-0.0023406522814184427,-0.007142065558582544
1773790159517080800,8.312080810546876,-0.000025566347176209092,-0.0032586439047008753,-0.005662412848323584
1773790159537044700,8.332044677734375,-0.0005744438385590911,-0.002710032742470503,-0.006494118366390467
1773790159558257000,8.3532568359375,-0.000015978966985130683,-0.002629871480166912,-0.005960420705378056
1773790159578220800,8.373220703125,0.0003462109307292849,-0.003975300583988428,-0.006166549399495125
1773790159598184000,8.393183837890625,-0.0010783139150589705,-0.0037031255196779966,-0.005440039094537497
1773790159618147800,8.41314794921875,0.0002263686910737306,-0.002531334524974227,-0.0049159289337694645
1773790159638111700,8.43311181640625,0.0012775183422490954,-0.0037758296821266413,-0.004083158448338509
1773790159658076000,8.453075927734375,-0.0010431602131575346,-0.0026253440883010626,-0.005597165785729885
1773790159678039800,8.473039794921876,-0.0008974852971732616,-0.0032687638886272907,-0.005176119972020388
1773790159698003700,8.493003662109375,0.0002798982313834131,-0.003515905234962702,-0.00384453940205276
1773790159717968000,8.5129677734375,0.0003099919413216412,-0.0026101642288267612,-0.006056561134755611
1773790159737930800,8.5329306640625,0.0010133327450603247,-0.004086087923496962,-0.005761216394603252
1773790159757894700,8.552894775390625,0.001139300293289125,-0.0023374564480036497,-0.00643712654709816
1773790159777859000,8.572859130859374,-0.0013611416798084974,-0.0027087011840194464,-0.004306064918637276
1773790159797823000,8.592822998046875,-0.0014703312190249562,-0.0034613104071468115,-0.007115433923900127
1773790159817787000,8.612786865234375,0.0003581951605156064,-0.00199337606318295,-0.005593437235802412
1773790159837750800,8.632750732421876,0.0010098706698045135,-0.003275688039138913,-0.005574262235313654
1773790159857715000,8.65271484375,-0.0001030643325066194,-0.002526274649426341,-0.005526858381927013
1773790159877678800,8.672678955078124,-0.0018426411552354693,-0.00440992834046483,-0.005475192796438932
1773790159897642000,8.69264208984375,-0.00011105381418019533,-0.0028581044171005487,-0.005781456362456083
1773790159917606000,8.71260595703125,-0.0000029294772048160667,-0.004462126176804304,-0.005813414230942726
1773790159937569800,8.73256982421875,0.0002324939559912309,-0.0027614317368716,-0.004697549622505903
1773790159957534000,8.752533935546875,-0.0005909554311074317,-0.003138535423204303,-0.006620884872972965
1773790159977497900,8.772497802734375,0.0012924320762977004,-0.003710848744958639,-0.004819256253540516
1773790159997461800,8.792461669921876,-0.00017363809456583112,-0.0020511667244136333,-0.006329268682748079
1773790160017425000,8.8124248046875,-0.0005020058597438037,-0.0030751521699130535,-0.004181695636361837
1773790160037388800,8.832388916015624,0.0005888249143026769,-0.001728657865896821,-0.006823018658906221
1773790160057352700,8.852352783203125,0.0007060039788484573,-0.0027630296535789967,-0.00666296249255538
1773790160077316900,8.87231689453125,-0.0005025385180488229,-0.0027441212441772223,-0.006677343975752592
1773790160097280800,8.89228076171875,-0.0005350290448404849,-0.003260241821408272,-0.004777977243065834
1773790160117245000,8.912244873046875,-0.0010668623726814985,-0.002040514023974538,-0.005303418729454279
1773790160137208800,8.932208740234374,-0.0008644621120765805,-0.0029379993211477995,-0.004750280175358057
1773790160157172000,8.952171875,0.0009345032158307731,-0.002852511825039983,-0.006755374372005463
1773790160177135900,8.972135986328125,-0.0007582019316032529,-0.00347462622448802,-0.006402505561709404
1773790160197100000,8.99210009765625,-0.0008380967774428427,-0.002891660202294588,-0.005702094174921513
1773790160217064000,9.01206396484375,-0.0007315703551284969,-0.00236302288249135,-0.0065050371922552586
1773790160237027800,9.03202783203125,-0.0004822984628845006,-0.0031678301747888327,-0.005282912403345108
1773790160256991700,9.05199169921875,-0.0013257216196507215,-0.002074069809168577,-0.005794239696115255
1773790160276956000,9.071955810546875,0.00047590688336640596,-0.0013933659065514803,-0.005016063805669546
1773790160296919800,9.091919921875,-0.001008539111353457,-0.0025627599097788334,-0.005291967187076807
1773790160316883000,9.111883056640625,-0.0008117315010167658,-0.0028855351265519857,-0.005774798337370157
1773790160336846000,9.13184619140625,-0.00040719733806326985,-0.003326820908114314,-0.005860818549990654
1773790160356810000,9.15181005859375,0.00013395700079854578,-0.004315386060625315,-0.005091963801532984
1773790160376774100,9.171774169921875,0.0001323590986430645,-0.003934287931770086,-0.007530088070780039
1773790160396738000,9.191738037109374,-0.0020501012913882732,-0.0031550468411296606,-0.005983323790132999
1773790160416702000,9.211701904296875,0.0008900284301489592,-0.0026972496416419744,-0.005675728898495436
1773790160436666000,9.231666015625,-0.0007044061203487217,-0.0017038905061781406,-0.0041089910082519054
1773790160456629000,9.25162890625,0.00013502225920092314,-0.003472495824098587,-0.006720220670104027
1773790160476593000,9.271593017578125,-0.000636495475191623,-0.002025333931669593,-0.007212372962385416
1773790160496557000,9.29155712890625,0.00010972223390126601,-0.003132676472887397,-0.007005178835242987
1773790160516521200,9.311521240234375,-0.0004439489566721022,-0.0038336203433573246,-0.005634449888020754
1773790160536485000,9.331485107421875,-0.000046871635277057067,-0.003695402294397354,-0.005313272587954998
1773790160556449300,9.35144921875,-0.0008103998843580484,-0.00285011506639421,-0.006573746912181377
1773790160576413200,9.3714130859375,0.00007536746124969795,-0.0027276095934212208,-0.006744455546140671
1773790160596377000,9.391377197265625,-0.0012543488992378116,-0.00290444353595376,-0.005932724103331566
1773790160616340200,9.41134033203125,0.00006311691686278209,-0.0030562435276806355,-0.004412325099110603
1773790160636304100,9.43130419921875,-0.0010298443958163261,-0.003145193215459585,-0.006668289192020893
1773790160656268000,9.45126806640625,0.0001294296234846115,-0.002978213131427765,-0.0062339273281395435
1773790160676232200,9.471232177734375,-0.0008913599886000156,-0.0024077638518065214,-0.004489556886255741
1773790160696196000,9.491196044921875,-0.0004673847579397261,-0.0037792918737977743,-0.006135124247521162
1773790160716160000,9.511159912109376,-0.00036272252327762544,-0.0029667613562196493,-0.006851780693978071
1773790160736124200,9.531124267578125,-0.00013395700079854578,-0.0032029838766902685,-0.005709550809115171
1773790160756087000,9.551087158203124,-0.0008167914929799736,-0.0031382690649479628,-0.005771336145699024
1773790160776051000,9.571051025390625,-0.0002692455891519785,-0.002377403900027275,-0.006037386134266853
1773790160796015000,9.59101513671875,0.00038163099088706076,-0.0027838023379445076,-0.005780657287687063
1773790160815979000,9.61097900390625,-0.0014940333785489202,-0.003043460426852107,-0.0054941014386713505
1773790160835943200,9.630943115234375,-0.0005081311101093888,-0.0006607302348129451,-0.00567093538120389
1773790160855907300,9.6509072265625,-0.0008990831556729972,-0.003459712490439415,-0.0046578687615692616
1773790160875871200,9.670871337890626,-0.0006735134520567954,-0.002665025182068348,-0.006762032397091389
1773790160895835100,9.690835205078125,-0.0018570221727713943,-0.0035148400347679853,-0.006415821146219969
1773790160915798300,9.71079833984375,0.0019680759869515896,-0.0032285500783473253,-0.004706870764493942
1773790160935762200,9.73076220703125,0.0007113303290680051,-0.0023033679462969303,-0.007101318798959255
1773790160955726000,9.75072607421875,-0.0002079928817693144,-0.0022650184109807014,-0.0044048684649169445
1773790160975690200,9.770690185546876,-0.001020257011987269,-0.0027885958552360535,-0.004613127559423447
1773790160995654100,9.790654052734375,-0.0007536745979450643,-0.004502073861658573,-0.00561181316152215
1773790161015618000,9.8106181640625,-0.0002759034978225827,-0.0029443909879773855,-0.005596366710960865
1773790161035582000,9.83058203125,-0.00008548746700398624,-0.002002697205170989,-0.004367051646113396
1773790161055545000,9.850545166015625,-0.0011683288030326366,-0.0026610305067151785,-0.005880792159587145
1773790161075509000,9.870509033203126,-0.0015640745405107737,-0.00230789533816278,-0.006012352649122477
1773790161095473200,9.89047314453125,-0.0014980280539020896,-0.0015275891637429595,-0.004336691461503506
1773790161115437000,9.91043701171875,-0.0011973571963608265,-0.0031257520895451307,-0.005881857592612505
1773790161135401000,9.93040087890625,0.00035899411886930466,-0.0029401297215372324,-0.005313006229698658
1773790161155364900,9.95036474609375,0.0008066715090535581,-0.0023339942563325167,-0.005084240809082985
1773790161175329300,9.970329345703124,0.0007683219737373292,-0.0034916705917567015,-0.0062488410621881485
1773790161195292000,9.9902919921875,-0.0005696501466445625,-0.0030037793330848217,-0.005953230429440737
1773790161215256300,10.01025634765625,-0.0018399780383333564,-0.0022564963437616825,-0.006657636258751154
1773790161235220200,10.03022021484375,-0.0013036173768341541,-0.004418450407683849,-0.005579322576522827
1773790161255184100,10.05018408203125,0.0004993426846340299,-0.002180596347898245,-0.004560663364827633
1773790161275148000,10.07014794921875,-0.0017281252657994628,-0.0032509206794202328,-0.0064837317913770676
1773790161295112200,10.0901123046875,-0.0013725932221859694,-0.0020636834669858217,-0.006231796927750111
1773790161315076000,10.110076171875,-0.0011627360945567489,-0.0035305526107549667,-0.005650961305946112
1773790161335040800,10.130040771484374,0.00021252025908324867,-0.0029489181470125914,-0.005402488633990288
1773790161355004000,10.15000390625,-0.0008471515611745417,-0.002558498876169324,-0.005735650192946196
1773790161374967800,10.1699677734375,0.000568318588193506,-0.0029859361238777637,-0.0049377670511603355
1773790161394931700,10.189931640625,-0.0009603358921594918,-0.003328684950247407,-0.006835002917796373
1773790161414895900,10.209895751953125,-0.0008122641011141241,-0.002466087229549885,-0.006962568499147892
1773790161434859800,10.22985986328125,-0.0008442220860160887,-0.00318886898458004,-0.005875465925782919
1773790161454824000,10.249823974609376,-0.0006796387024223804,-0.0018548916559666395,-0.007998804561793804
1773790161474787800,10.269787841796875,0.00021997711155563593,-0.003236539661884308,-0.007244597189128399
1773790161494750700,10.289750732421876,-0.0002258360618725419,-0.0024501082953065634,-0.004594485275447369
1773790161514715000,10.30971484375,0.000401604687795043,-0.0024711471050977707,-0.006788930390030146
1773790161534679000,10.329678955078125,-0.0007669904152862728,-0.0020450414158403873,-0.006885070353746414
1773790161554643000,10.349642822265626,-0.0004753742541652173,-0.001939846551977098,-0.0060933125205338
1773790161574606800,10.36960693359375,0.00007643271965207532,-0.004397677723318338,-0.005664543714374304
1773790161594570800,10.38957080078125,0.000716922979336232,-0.0024197481106966734,-0.00478303711861372
1773790161614535000,10.409534912109375,-0.001139033935032785,-0.0036245621740818024,-0.005796902813017368
1773790161634497800,10.429497802734375,0.0007890945998951793,-0.0032860743813216686,-0.00646588858217001
1773790161654462000,10.4494619140625,0.0004106594424229115,-0.002523345174267888,-0.00595509447157383
1773790161674425900,10.46942578125,-0.0015816513914614916,-0.0016538230702280998,-0.005335643421858549
1773790161694389800,10.4893896484375,-0.00018429075134918094,-0.00256435782648623,-0.005366802215576172
1773790161714354000,10.50935400390625,-0.0004546015989035368,-0.0032591766212135553,-0.005263471510261297
1773790161734317800,10.52931787109375,-0.0008207862265408039,-0.003171292133629322,-0.005950300954282284
1773790161754281700,10.54928173828125,-0.0005243764026090503,-0.0032120386604219675,-0.005801429972052574
1773790161774244900,10.569244873046875,-0.0013739247806370258,-0.002180063631385565,-0.006172408349812031
1773790161794208800,10.589208740234374,-0.000022370553779182956,-0.003549993736669421,-0.005515672732144594
1773790161814172700,10.609172607421876,0.00028628981090150774,-0.0031337416730821133,-0.005689843557775021
1773790161834137000,10.62913720703125,-0.0005099953268654644,-0.002094576135277748,-0.007012635935097933
1773790161854101000,10.64910107421875,-0.0006183860241435468,-0.004956675227731466,-0.00574843306094408
1773790161874065000,10.66906494140625,-0.0006213154993019998,-0.003683684393763542,-0.0039009982720017433
1773790161894028800,10.68902880859375,-0.00020879182557109743,-0.003169161733239889,-0.006580670829862356
1773790161913992000,10.708991943359376,-0.0017102820565924048,-0.0037209687288850546,-0.00672315014526248
1773790161933955800,10.728955810546875,0.00024341292737517506,-0.003615241264924407,-0.006405168678611517
1773790161953920000,10.748919921875,0.0006846986943855882,-0.0023225427139550447,-0.006595051847398281
1773790161973884000,10.7688837890625,-0.0005454153870232403,-0.0025947177782654762,-0.006057626102119684
1773790161993847800,10.788847900390625,-0.0008407599525526166,-0.002734533743932843,-0.005588111001998186
1773790162013811700,10.808811767578124,-0.00025513084256090224,-0.0029702235478907824,-0.00538517814129591
1773790162033775900,10.82877587890625,0.0009507485083304346,-0.002350505907088518,-0.00546240946277976
1773790162053738800,10.84873876953125,0.0006929545197635889,-0.002195776207372546,-0.006372145377099514
1773790162073703000,10.868702880859376,0.0005403553950600326,-0.003022954100742936,-0.006189985200762749
1773790162093666800,10.888666748046875,0.0003217098710592836,-0.0023574302904307842,-0.0051777176558971405
1773790162113630700,10.908630615234374,0.0004396878939587623,-0.0030277478508651257,-0.005349758081138134
1773790162133594600,10.9285947265625,0.0003307645965833217,-0.002576075727120042,-0.004655472002923489
1773790162153559000,10.94855908203125,-0.0005811017472296953,-0.00233825552277267,-0.0054512242786586285
1773790162173523000,10.96852294921875,-0.000013315805517777335,-0.0025214808993041515,-0.006399043370038271
1773790162193486000,10.988486083984375,0.0005723133217543364,-0.002808303339406848,-0.005844040773808956
1773790162213450000,11.008449951171874,-0.0008058725506998599,-0.003239202778786421,-0.005560413934290409
1773790162233414000,11.028413818359375,0.0006506102508865297,-0.0029790119733661413,-0.005584648810327053
1773790162253377800,11.048377685546875,0.0004527373821474612,-0.0035715652629733086,-0.0064922538585960865
1773790162273342000,11.068342041015624,-0.000934236915782094,-0.0024407871533185244,-0.005812349263578653
1773790162293305900,11.088305908203125,-0.0003075950953643769,-0.003344397759065032,-0.0065529742278158665
1773790162313269800,11.108269775390625,0.0008428904693573713,-0.0028301412239670753,-0.005643238313496113
1773790162333232600,11.128232666015625,0.00009241169027518481,-0.0037641117814928293,-0.004758536349982023
1773790162353196500,11.148196533203125,-0.0008506136364303529,-0.0026027073618024588,-0.005803028121590614
1773790162373161000,11.168160888671874,0.00014061490946915,-0.0035148400347679853,-0.005621133837848902
1773790162393124900,11.188124755859375,0.0007582019316032529,-0.002749181119725108,-0.006302104331552982
1773790162413088800,11.2080888671875,-0.000018908443962573074,-0.003187004942446947,-0.005851231049746275
1773790162433052700,11.228052734375,-0.0005195827106945217,-0.0026043052785098553,-0.00697934627532959
1773790162453016800,11.248016845703125,-0.0004213120846543461,-0.0026343988720327616,-0.005981726106256247
1773790162472979700,11.267979736328124,0.0002580603177193552,-0.002388855442404747,-0.005750563926994801
1773790162492944000,11.28794384765625,0.00112438655924052,-0.0035864789970219135,-0.006077866069972515
1773790162512907800,11.30790771484375,-0.0003230414295103401,-0.00315930787473917,-0.006161489523947239
1773790162532871700,11.32787158203125,-0.0019094864837825298,-0.0033715618774294853,-0.007297860458493233
1773790162552835600,11.347835693359375,0.0007600661483593285,-0.0026346652302891016,-0.005251753609627485
1773790162572799700,11.3677998046875,-0.00046046054922044277,-0.0026908579748123884,-0.005829926114529371
1773790162592763600,11.387763671875,-0.00033396040089428425,-0.003495665267109871,-0.006037119776010513
1773790162612726800,11.407726806640625,-0.0003576625313144177,-0.004263188224285841,-0.006295446306467056
1773790162632690700,11.427690673828126,0.0010985539993271232,-0.0037987329997122288,-0.005371595732867718
1773790162652654600,11.447654541015625,-0.00038722361205145717,-0.0028674255590885878,-0.0065316688269376755
1773790162672618800,11.46761865234375,-0.0014538196846842766,-0.004066647030413151,-0.007218764163553715
1773790162692583000,11.4875830078125,0.00003808320252574049,-0.003019491909071803,-0.005898102652281523
1773790162712546800,11.507546875,-0.00044341632747091353,-0.004084490239620209,-0.005419266410171986
1773790162732510700,11.5275107421875,0.0004575310740619898,-0.00433029979467392,-0.004473311826586723
1773790162752473900,11.547473876953125,-0.0007592672482132912,-0.00253453035838902,-0.005387308541685343
1773790162772437800,11.567437744140625,-0.0008868326549418271,-0.002183525823056698,-0.005288771353662014
1773790162792401700,11.587401611328126,-0.0004577973741106689,-0.001817607437260449,-0.006477074231952429
1773790162812365800,11.60736572265625,0.00012410330236889422,-0.0023574302904307842,-0.0057218014262616634
1773790162832329700,11.627329833984374,-0.0003028014034498483,-0.0025001754984259605,-0.0067662931978702545
1773790162852293600,11.647293701171876,-0.0019494339358061552,-0.002514556748792529,-0.005072789266705513
1773790162872256800,11.6672568359375,-0.0005400890368036926,-0.0023936491925269365,-0.006578274071216583
1773790162892220700,11.687220703125,0.0005025385180488229,-0.0027976506389677525,-0.004030694253742695
1773790162912184800,11.707184814453125,-0.0010034791193902493,-0.0018900453578680754,-0.006143379956483841
1773790162932148700,11.727148681640625,0.0005222458858042955,-0.002537193475291133,-0.006557501386851072
1773790162952112600,11.747112548828126,0.0015462313313037157,-0.0033784860279411077,-0.005642439238727093
1773790162972076500,11.76707666015625,-0.000258859246969223,-0.001998702296987176,-0.005921538453549147
1773790162992040700,11.787040771484374,0.0008833705214783549,-0.0028655612841248512,-0.0051289820112288
1773790163012003600,11.807003662109375,-0.000011185276889591478,-0.003799531841650605,-0.0052136704325675964
1773790163031967700,11.8269677734375,-0.0017832526937127113,-0.003603257006034255,-0.0070730894804000854
1773790163051931600,11.846931640625,-0.0005193164106458426,-0.0024748756550252438,-0.0068083712831139565
1773790163071895800,11.866895751953125,0.0005507417372427881,-0.002996056107804179,-0.00481313094496727
1773790163091859700,11.886859619140624,0.0003323625132907182,-0.003151052165776491,-0.0064802695997059345
1773790163111824000,11.906823974609376,-0.00028575718170031905,-0.0028796761762350798,-0.005488774739205837
1773790163131787800,11.926787841796875,0.00044314999831840396,-0.0032586439047008753,-0.0056951697915792465
1773790163151751000,11.9467509765625,0.0003182477375958115,-0.0036764938849955797,-0.004128965083509684
1773790163171714800,11.96671484375,0.0004916195175610483,-0.004326837603002787,-0.005372128449380398
1773790163191678700,11.9866787109375,-0.00011371697473805398,-0.002650377806276083,-0.0067812069319188595
1773790163211642600,12.006642578125,-0.00022423815971706063,-0.0016727314796298742,-0.005334045272320509
1773790163231606800,12.026606689453125,-0.0000066579027588886674,-0.0033073797821998596,-0.006431800313293934
1773790163251570700,12.04657080078125,-0.00034727618913166225,-0.0036674391012638807,-0.005800098646432161
1773790163271533800,12.066533935546875,0.0007605988066643476,-0.0027563716284930706,-0.006225405260920525
1773790163291497700,12.086497802734375,-0.00019973708549514413,-0.00267754215747118,-0.006568952929228544
1773790163311461600,12.106461669921876,-0.0006833671359345317,-0.0027254789602011442,-0.00609437795355916
1773790163331425500,12.126425537109375,-0.0009025452891364694,-0.002130262553691864,-0.00771650904789567
1773790163351389400,12.146389404296874,0.0007358313887380064,-0.0037926076911389828,-0.005434979218989611
1773790163371353300,12.166353271484375,-0.0010130665032193065,-0.003483414649963379,-0.006397712044417858
1773790163391317200,12.186317138671875,-0.0008407599525526166,-0.002472212305292487,-0.005530852824449539
1773790163411280400,12.2062802734375,-0.000362988852430135,-0.002950782421976328,-0.004447478801012039
1773790163431244300,12.226244384765625,-0.0008077367674559355,-0.0013875069562345743,-0.004805407952517271
1773790163451208700,12.246208740234374,-0.0009893643436953425,-0.0017201356822624803,-0.0060293967835605145
1773790163471172600,12.266172607421876,-0.0016831178218126297,-0.0032863407395780087,-0.005628324579447508
1773790163491136500,12.286136474609375,0.0006700513185933232,-0.0016772588714957237,-0.005388906225562096
1773790163511100400,12.306100341796874,0.000499875342939049,-0.00373135507106781,-0.005793174263089895
1773790163531064600,12.326064697265625,-0.00045087316539138556,-0.002049302449449897,-0.006110623013228178
1773790163551027500,12.34602734375,-0.0004796353168785572,-0.003156644757837057,-0.0054480284452438354
1773790163570991600,12.36599169921875,0.0005044027348048985,-0.0038312235847115517,-0.004200870171189308
1773790163590955500,12.38595556640625,0.0004647216119337827,-0.003397927153855562,-0.005337773822247982
1773790163610919400,12.40591943359375,-0.0006383596919476986,-0.002570483135059476,-0.006441654171794653
1773790163630883300,12.42588330078125,-0.0006700513185933232,-0.003605121048167348,-0.004939364735037088
1773790163650847500,12.445847412109375,0.00010359696898376569,-0.0032626385800540447,-0.005881058517843485
1773790163670810400,12.465810302734376,-0.000574177538510412,-0.004186222795397043,-0.005131378769874573
1773790163690774500,12.4857744140625,0.00035979304811917245,-0.0019795275293290615,-0.005441104527562857
1773790163710738400,12.505738525390624,0.000023169501218944788,-0.004053330980241299,-0.006487460341304541
1773790163730702300,12.525702392578125,-0.0006777744856663048,-0.002148105762898922,-0.00574869941920042
1773790163750666500,12.54566650390625,-0.0005499427788890898,-0.003314836649224162,-0.005112470127642155
1773790163770630700,12.565630615234374,-0.0005214469274505973,-0.003805124433711171,-0.005021390039473772
1773790163790594600,12.585594482421875,-0.001029311795718968,-0.001487641828134656,-0.006548979319632053
1773790163810557400,12.605557373046874,0.0009227853151969612,-0.0026130937039852142,-0.004884237423539162
1773790163830521600,12.625521484375,-0.0006314354832284153,-0.002311623888090253,-0.007414506748318672
1773790163850485500,12.645485595703125,-0.0007275756215676665,-0.0032461269292980433,-0.006716225761920214
1773790163870449700,12.66544970703125,-0.000019707391402334906,-0.002770752878859639,-0.00609224708750844
1773790163890413600,12.68541357421875,-0.00035127095179632306,-0.0031912659760564566,-0.004789162427186966
1773790163910377500,12.70537744140625,-0.0011824434623122215,-0.0033505228348076344,-0.004830974154174328
1773790163930340600,12.725340576171876,-0.000791491474956274,-0.0015278555219992995,-0.0049098036251962185
1773790163950304500,12.745304443359375,-0.0014801849611103535,-0.003766242414712906,-0.006410761270672083
1773790163970268400,12.765268310546874,-0.00020532972121145576,-0.0030466562602669,-0.006184126250445843
1773790163990232600,12.785232666015625,0.00014274542627390474,-0.0023451796732842922,-0.004108725115656853
1773790164010196500,12.805196533203125,-0.0010207896120846272,-0.003187004942446947,-0.005774798337370157
1773790164030160400,12.825160400390626,-0.0009121326729655266,-0.0035385421942919493,-0.005240568425506353
1773790164050123500,12.84512353515625,-0.0003251719754189253,-0.003875964554026723,-0.004472779110074043
1773790164070087400,12.86508740234375,0.0012508867075666785,-0.001764077926054597,-0.005625927820801735
1773790164090051300,12.88505126953125,0.000014647385796706658,-0.0030216225422918797,-0.006131395697593689
1773790164110015500,12.905015380859375,-0.0012101404136046767,-0.003343332326039672,-0.0060080913826823235
1773790164129979400,12.9249794921875,-0.0008058725506998599,-0.0024469124618917704,-0.0051870387978851795
1773790164149943600,12.944943603515625,-0.0002271676348755136,-0.0020152139477431774,-0.005575327668339014
1773790164169907500,12.964907470703125,0.0002865561400540173,-0.0018807243322953582,-0.0054389736615121365
1773790164189870600,12.98487060546875,0.00040426786290481687,-0.0022690133191645145,-0.00657587731257081
1773790164209834500,13.00483447265625,0.000003994741746282671,-0.0028905950020998716,-0.004855741746723652
1773790164229798700,13.024798583984374,0.00042450788896530867,-0.0036916739773005247,-0.006840062793344259
1773790164249762600,13.044762451171875,-0.00009560748003423214,-0.0036301547661423683,-0.005120992194861174
1773790164269726500,13.0647265625,-0.00006205165118444711,-0.003615241264924407,-0.005945773329585791
1773790164289690400,13.0846904296875,0.0008290420519188046,-0.0029414615128189325,-0.004211789462715387
1773790164309653500,13.104653564453125,-0.00017949705943465233,-0.0025965820532292128,-0.005176652688533068
1773790164329617200,13.1246171875,-0.000025832661776803434,-0.002755839144811034,-0.005290369503200054
1773790164349581300,13.144581298828125,-0.0007896272582001984,-0.0030269487760961056,-0.006803577765822411
1773790164369545200,13.164545166015625,0.0002868224401026964,-0.0028389296494424343,-0.0059907808899879456
1773790164389509000,13.184509033203126,0.0004988100845366716,-0.0034080471377819777,-0.007437143474817276
1773790164409473300,13.204473388671875,0.0002258360618725419,-0.0020325244404375553,-0.006483998149633408
1773790164429436200,13.224436279296874,0.0007568703731521964,-0.0031427964568138123,-0.006370014976710081
1773790164449400000,13.244400146484375,-0.0016974988393485546,-0.00509968725964427,-0.005631520412862301
1773790164469364200,13.2643642578125,-0.0009315737406723201,-0.003608050523325801,-0.005257346201688051
1773790164489328000,13.284328125,-0.0002008023438975215,-0.002898584585636854,-0.005587844643741846
1773790164509292000,13.3042919921875,0.0004362257895991206,-0.002999251941218972,-0.00669332267716527
1773790164529256200,13.324256103515625,-0.0006378270918503404,-0.0033132387325167656,-0.00504083139821887
1773790164549219000,13.344218994140626,-0.0005491438205353916,-0.003781422507017851,-0.005466138012707233
1773790164569183200,13.364183349609375,0.0009376989910379052,-0.003087668912485242,-0.005825931206345558
1773790164589147100,13.384147216796874,0.0007107976707629859,-0.004145476501435041,-0.004023503512144089
1773790164609111000,13.404111083984375,0.00012916330888401717,-0.002097771968692541,-0.007189735770225525
1773790164629075000,13.424074951171875,-0.0008415589109063148,-0.004238953348249197,-0.0055180699564516544
1773790164649039000,13.4440390625,-0.0006002765148878098,-0.0029609024059027433,-0.0054269894026219845
1773790164669002000,13.464001953125,0.0000500674286740832,-0.003961718175560236,-0.005684517323970795
1773790164688966100,13.483966064453124,-0.0005097290268167853,-0.0035513252951204777,-0.00657481187954545
1773790164708930300,13.503930419921875,0.0006764429272152483,-0.002703374717384577,-0.005874933209270239
1773790164728894200,13.523894287109375,-0.0010985539993271232,-0.003326288191601634,-0.005783853121101856
1773790164748858000,13.543858154296874,-0.00021252025908324867,-0.003257578704506159,-0.004560663364827633
1773790164768822300,13.563822265625,-0.00024341292737517506,-0.00279046013019979,-0.006797452457249165
1773790164788785200,13.58378515625,-0.0010106696281582117,-0.0012689962750300765,-0.0052261874079704285
1773790164808749300,13.603749267578126,-0.000016777914424892515,-0.003561178920790553,-0.00577772781252861
1773790164828713200,13.623713134765625,0.00023036343918647617,-0.0037862160243093967,-0.005712480284273624
1773790164848677000,13.643677001953124,-0.0004423510399647057,-0.0027542412281036377,-0.006101568229496479
1773790164868641000,13.66364111328125,-0.0016215987270697951,-0.004707936197519302,-0.00538544449955225
1773790164888605200,13.683605224609375,-0.0008167914929799736,-0.003925765864551067,-0.0057617491111159325
1773790164908568000,13.703568115234376,0.001079645473510027,-0.003631752682849765,-0.004806472919881344
1773790164928532200,13.7235322265625,-0.002098304685205221,-0.00341603672131896,-0.005411277059465647
1773790164948496100,13.74349609375,-0.0008993495139293373,-0.002552107209339738,-0.006533532869070768
1773790164968460000,13.7634599609375,-0.000480434246128425,-0.002972354181110859,-0.0056712012737989426
1773790164988424000,13.783423828125,0.0007166566210798919,-0.002695119008421898,-0.00577746145427227
1773790165008388000,13.80338818359375,-0.00031318774563260376,-0.0032831449061632156,-0.004357197787612677
1773790165028351000,13.82335107421875,0.00040799626731313765,-0.0024644893128424883,-0.004403004422783852
1773790165048315100,13.843315185546874,0.0001675128296483308,-0.0029025792609900236,-0.003997670952230692
1773790165068279300,13.863279296875,-0.0005254416610114276,-0.0032738239970058203,-0.007232346571981907
1773790165088243200,13.8832431640625,0.00007270430069183931,-0.0035774242132902145,-0.004906075540930033
1773790165108207000,13.90320703125,-0.0020932445768266916,-0.001973136095330119,-0.007303719408810139
1773790165128171300,13.923171142578125,-0.0008109325426630676,-0.002020274056121707,-0.005377454683184624
1773790165148134100,13.943134033203124,-0.00019414443522691727,-0.0026043052785098553,-0.005429120268672705
1773790165168098300,13.963098388671876,-0.0008165251929312944,-0.0035979305393993855,-0.004554271697998047
1773790165188062200,13.983062255859375,-0.0006711165769957006,-0.003412308171391487,-0.006130596622824669
1773790165208026000,14.003026123046874,-0.0001328917423961684,-0.003628556849434972,-0.0062853265553712845
1773790165227990300,14.022990234375,0.0012301141396164894,-0.0029409287963062525,-0.006433664355427027
1773790165247954200,14.0429541015625,-0.0003382214636076242,-0.004088218789547682,-0.007439540233463049
1773790165267917000,14.0629169921875,-0.00016724651504773647,-0.0024647556710988283,-0.005038168281316757
1773790165287881200,14.082881103515625,-0.0006711165769957006,-0.002624545246362686,-0.005395830608904362
1773790165307845000,14.10284521484375,-0.0007946872501634061,-0.0035459990613162518,-0.006852047052234411
1773790165327809800,14.122809814453126,-0.00037710359902121127,-0.002182993106544018,-0.004839496221393347
1773790165347773700,14.142773681640625,0.0006567355012521148,-0.0029784792568534613,-0.004849083721637726
1773790165367737900,14.16273779296875,0.00025779398856684566,-0.0036599822342395782,-0.004924184642732143
1773790165387700700,14.18270068359375,-0.0012767193838953972,-0.00418515782803297,-0.00680118054151535
1773790165407665000,14.202664794921875,-0.0006556702428497374,-0.0022357236593961716,-0.005486644338816404
1773790165427628800,14.22262890625,-0.00021065604232717305,-0.004200870171189308,-0.006125270389020443
1773790165447592700,14.2425927734375,-0.0009733853512443602,-0.0031401331070810556,-0.004647482186555862
1773790165467556600,14.262556640625,-0.00044288369826972485,-0.004021106753498316,-0.004885302856564522
1773790165487520800,14.282520751953125,0.0006615291931666434,-0.0033949976786971092,-0.006138586439192295
1773790165507483600,14.302483642578125,0.0010602044640108943,-0.002417883835732937,-0.006479737348854542
1773790165527447800,14.32244775390625,-0.0010729875648394227,-0.0032828785479068756,-0.004199272487312555
1773790165547411700,14.34241162109375,-0.000791491474956274,-0.00301709515042603,-0.004962267819792032
1773790165567375600,14.362375732421874,0.0004189152386970818,-0.0023486416321247816,-0.0046243127435445786
1773790165587339800,14.38233984375,-0.0006178533658385277,-0.004354801028966904,-0.005991845857352018
1773790165607302700,14.402302734375,0.00018136126163881272,-0.003230947069823742,-0.005112470127642155
1773790165627266800,14.422266845703126,-0.0005014732014387846,-0.002531068166717887,-0.005334577988833189
1773790165647231000,14.44223095703125,-0.00038296254933811724,-0.0025161546654999256,-0.005477323196828365
1773790165667195000,14.46219482421875,0.00039974047103896737,-0.0028791434597223997,-0.0057252636179327965
1773790165687158800,14.48215869140625,0.0001549959706608206,-0.0021526331547647715,-0.006100769154727459
1773790165707122700,14.502122802734375,-0.0004596615908667445,-0.003221093211323023,-0.005992378573864698
1773790165727085800,14.5220859375,-0.0016375777777284384,-0.0036575854755938053,-0.0049612028524279594
1773790165747049700,14.5420498046875,0.000254331884207204,-0.00273693073540926,-0.005604089703410864
1773790165767014000,14.562013916015625,-0.0009270463488064706,-0.0037678403314203024,-0.005934055428951979
1773790165786977800,14.581977783203126,-0.0008269115351140499,-0.003727626521140337,-0.005971073638647795
1773790165806941700,14.601941650390625,-0.0007795072160661221,-0.002956641372293234,-0.00586774293333292
1773790165826905600,14.621905517578124,-0.0005230448441579938,-0.0027534421533346176,-0.0065319351851940155
1773790165846868700,14.64186865234375,-0.001166198286227882,-0.0027563716284930706,-0.005886384751647711
1773790165866832600,14.66183251953125,-0.0008823052630759776,-0.003055444685742259,-0.006974552292376757
1773790165886796800,14.681796875,-0.0009022789890877903,-0.0029944581910967827,-0.006037652492523193
1773790165906760700,14.7017607421875,-0.00015100123709999025,-0.003043194068595767,-0.0067849354818463326
1773790165926724600,14.721724609375,-0.0015643407823517919,-0.003462908323854208,-0.00498144282028079
1773790165946687700,14.741687744140625,-0.0006601976347155869,-0.002174471039324999,-0.00691969133913517
1773790165966651600,14.761651611328125,0.0008578042034059763,-0.003023486817255616,-0.005432316102087498
1773790165986615600,14.781615478515626,-0.00138084904756397,-0.003695668652653694,-0.0051963599398732185
1773790166006580000,14.801580078125,-0.0005073322099633515,-0.003477289341390133,-0.006341785658150911
1773790166026543900,14.8215439453125,0.0006876281695440412,-0.0028778119012713432,-0.005104747135192156
1773790166046507800,14.8415078125,-0.00023036343918647617,-0.0014168017078191042,-0.004698615055531263
1773790166066471000,14.861470947265625,-0.0009411611245013773,-0.0024000408593565226,-0.005534581374377012
1773790166086434800,14.881434814453126,0.0005550027708522975,-0.00279099284671247,-0.005469067487865686
1773790166106398700,14.901398681640625,0.00008495483780279756,-0.0035577169619500637,-0.0054339137859642506
1773790166126363000,14.92136279296875,-0.0007161240209825337,-0.00233266269788146,-0.006699181627482176
1773790166146326800,14.941326904296876,-0.002710032742470503,-0.0026109630707651377,-0.006852846127003431
1773790166166290000,14.9612900390625,0.00041545313433744013,-0.003070624778047204,-0.006280798930674791
1773790166186253800,14.98125390625,-0.001469798618927598,-0.0027470507193356752,-0.006194779183715582
1773790166206217700,15.0012177734375,-0.00029348034877330065,-0.002653573639690876,-0.005685849115252495
1773790166226181600,15.021181640625,-0.0007566040731035173,-0.0030575753189623356,-0.00523604080080986
1773790166246145800,15.041145751953126,-0.0003145193331874907,-0.002712695859372616,-0.0051966262981295586
1773790166266109700,15.061109619140625,-0.00003062635369133204,-0.0037950044497847557,-0.005646167788654566
1773790166286072800,15.08107275390625,-0.00046099317842163146,-0.0041220407001674175,-0.006509564816951752
1773790166306036700,15.10103662109375,0.0013401026371866465,-0.002767557045444846,-0.004563326481729746
1773790166326000600,15.121000732421875,-0.00020213393145240843,-0.002635996788740158,-0.006400641519576311
1773790166345964500,15.140964599609376,0.0008620652370154858,-0.0038304245099425316,-0.0062757390551269054
1773790166365928400,15.160928466796875,-0.0012069445801898837,-0.003373159794136882,-0.006739661563187838
1773790166385891300,15.180891357421874,-0.0007544735562987626,-0.0028309402987360954,-0.006060555577278137
1773790166405855500,15.20085546875,-0.0009116000146605074,-0.003855990944430232,-0.006902114488184452
1773790166425819400,15.2208193359375,0.0007131945458240807,-0.002469282830134034,-0.005628857295960188
1773790166445783300,15.240783203125,0.0005848301807418466,-0.0023073628544807434,-0.005608350969851017
1773790166465747500,15.26074755859375,-0.0014263890916481614,-0.0030269487760961056,-0.004601676017045975
1773790166485710300,15.28071044921875,-0.0002580603177193552,-0.004403803031891584,-0.005347627215087414
1773790166505674200,15.30067431640625,-0.0007901599165052176,-0.002520415699109435,-0.004619252867996693
1773790166525638400,15.320638427734375,-0.0002860235108528286,-0.0031760858837515116,-0.005336974747478962
1773790166545602300,15.340602294921876,-0.00031558459158986807,-0.0026791400741785765,-0.007158044259995222
1773790166565566200,15.360566162109375,0.0016990967560559511,-0.0021763353142887354,-0.0059969061985611916
1773790166585530400,15.3805302734375,-0.00019441076437942684,-0.003870904678478837,-0.005715143866837025
1773790166605493200,15.4004931640625,-0.00032623723382130265,-0.0025811356026679277,-0.00555295730009675
1773790166625457400,15.42045751953125,-0.0009739180095493793,-0.003319896524772048,-0.005370530765503645
1773790166645421300,15.44042138671875,-0.0008948221220634878,-0.0010490191634744406,-0.00577852688729763
1773790166665385200,15.46038525390625,-0.0009179916232824326,-0.0029523803386837244,-0.005766009911894798
1773790166685349400,15.480349365234375,0.0007030745036900043,-0.004363056737929583,-0.0054882424883544445
1773790166705312300,15.500312255859376,0.0004647216119337827,-0.0029577065724879503,-0.0048887645825743675
1773790166725276400,15.5202763671875,-0.0009249158320017159,-0.0023526365403085947,-0.004334827419370413
1773790166745240600,15.540240478515624,0.0002585929469205439,-0.003397660795599222,-0.0055060856975615025
1773790166765204500,15.56020458984375,0.0002849582233466208,-0.0027297399938106537,-0.00606481684371829
1773790166785168400,15.58016845703125,-0.00036485306918621063,-0.002956375014036894,-0.004845355171710253
1773790166805131500,15.600131591796876,-0.0009760485263541341,-0.00267780851572752,-0.0060086240991950035
1773790166825095400,15.620095458984375,-0.0004370247188489884,-0.001927862293086946,-0.005044027231633663
1773790166845059300,15.640059326171874,0.0001728391507640481,-0.002835201332345605,-0.006135124247521162
1773790166865023500,15.6600234375,0.0001984054979402572,-0.0025952504947781563,-0.004939364735037088
1773790166884987400,15.6799873046875,-0.0008500810363329947,-0.0028575719334185123,-0.006096774712204933
1773790166904951300,15.699951416015624,-0.0004519384237937629,-0.004643487744033337,-0.007543936371803284
1773790166924914400,15.71991455078125,-0.00040240364614874125,-0.002950516063719988,-0.00469541922211647
1773790166944878300,15.73987841796875,0.00013768543431069702,-0.004066913388669491,-0.003549194661900401
1773790166964842200,15.75984228515625,-0.0013856426812708378,-0.003260508179664612,-0.005608883686363697
1773790166984806400,15.779806396484375,-0.00010120012302650139,-0.0032802154310047626,-0.0051718587055802345
1773790167004770300,15.799770263671874,0.0006079996819607913,-0.0036732980515807867,-0.005313006229698658
1773790167024733200,15.819733154296875,0.0002844255941454321,-0.0027137610595673323,-0.006341785658150911
1773790167044697300,15.839697265625,-0.00038988678716123104,-0.0018330537714064121,-0.006764695513993502
1773790167064661200,15.8596611328125,-0.0006809702608734369,-0.00290364446118474,-0.003992877434939146
1773790167084625200,15.879625244140625,-0.00034115093876607716,-0.002654106356203556,-0.005879194475710392
1773790167104589600,15.899589599609374,-0.0012471582740545273,-0.002326803747564554,-0.006620884872972965
1773790167124552200,15.91955224609375,-0.00006258428766159341,-0.0024735440965741873,-0.005313805304467678
1773790167144516400,15.939516357421875,0.00130947632715106,-0.0033816818613559008,-0.005690109916031361
1773790167164480500,15.95948046875,0.0009643306257203221,-0.0032658344134688377,-0.006968959700316191
1773790167184444400,15.9794443359375,-0.0010820423485711217,-0.0031353395897895098,-0.0057343184016644955
1773790167204408300,15.999408203125,0.000180029688635841,-0.002159290947020054,-0.006457100156694651
1773790167224371500,16.019371337890625,-0.001418665866367519,-0.0031254857312887907,-0.006305832881480455
1773790167244335400,16.03933544921875,0.0007659250986762345,-0.003976366017013788,-0.0041673146188259125
1773790167264299500,16.059299560546876,-0.0006386260502040386,-0.0032530513126403093,-0.004533765371888876
1773790167284263400,16.079263427734375,-0.00024740767548792064,-0.0013693973887711763,-0.0065385932102799416
1773790167304227300,16.099227294921874,-0.00020479709201026708,-0.0029963224660605192,-0.005576925817877054
1773790167324190500,16.1191904296875,0.00020905814017169178,-0.002198173198848963,-0.006179599091410637
1773790167344154400,16.139154296875,0.0010106696281582117,-0.0031095067970454693,-0.00737269502133131
1773790167364118300,16.1591181640625,-0.0005597964627668262,-0.003477555699646473,-0.004936435259878635
1773790167384082400,16.17908251953125,-0.00026764770154841244,-0.004090881906449795,-0.004480235744267702
1773790167404046300,16.19904638671875,-0.00017070861940737814,-0.0016711335629224777,-0.006125536747276783
1773790167424009200,16.21900927734375,-0.0004644552827812731,-0.003029612125828862,-0.005789712071418762
1773790167443973400,16.238973388671877,0.0001448759576305747,-0.0030535804107785225,-0.007053382229059935
1773790167463937300,16.258937255859376,-0.0012721919920295477,-0.00216594897210598,-0.005972937680780888
1773790167483901200,16.278901123046875,-0.0007941546500660479,-0.0022066952660679817,-0.006630206014961004
1773790167503865300,16.298865234375,-0.0005126585019752383,-0.003198722843080759,-0.005967611446976662
1773790167523828200,16.318828125,-0.00040772996726445854,-0.004285558592528105,-0.005814746022224426
1773790167543792000,16.338792236328125,-0.0006024070316925645,-0.003555586328729987,-0.005577191710472107
1773790167563756500,16.358756591796876,-0.0000679106087773107,-0.0034133736044168472,-0.00592659879475832
1773790167583720400,16.378720458984375,0.0004644552827812731,-0.003138801548629999,-0.003293531248345971
1773790167603684400,16.398684326171875,0.0004511394945438951,-0.002715891692787409,-0.005524993874132633
1773790167623647500,16.4186474609375,0.0000804274677648209,-0.003722300287336111,-0.006013950332999229
1773790167643611400,16.438611328125,0.0005917543894611299,-0.0029494508635252714,-0.007017695810645819
1773790167663575300,16.4585751953125,-0.001356347929686308,-0.003032275242730975,-0.00481419637799263
1773790167683539500,16.47853955078125,-0.00036724991514347494,-0.0024402544368058443,-0.00675164582207799
1773790167703503400,16.49850341796875,-0.000035420041967881843,-0.003668504301458597,-0.006339388433843851
1773790167723466500,16.518466552734374,0.00020985709852539003,-0.003040530951693654,-0.005341768264770508
1773790167743430400,16.538430419921873,-0.001332912128418684,-0.004093012306839228,-0.006883472204208374
1773790167763394300,16.558394287109376,-0.000993891735561192,-0.0027683558873832226,-0.004190750420093536
1773790167783358200,16.578358154296875,0.0005701828049495816,-0.0021875204984098673,-0.0049215215258300304
1773790167803321300,16.5983212890625,-0.0004498079069890082,-0.003174221608787775,-0.005273325368762016
1773790167823285200,16.61828515625,-0.0002790992730297148,-0.003207244910299778,-0.005821403581649065
1773790167843249400,16.63824951171875,-0.0006585997180081904,-0.0023089605383574963,-0.0052022188901901245
1773790167863213300,16.65821337890625,0.0008812400046736002,-0.004041613079607487,-0.00649704784154892
1773790167883177200,16.67817724609375,0.0011587414192035794,-0.0030652983114123344,-0.005476790945976973
1773790167903140400,16.698140380859375,0.001148088718764484,-0.0024583640042692423,-0.005606220569461584
1773790167923104300,16.718104248046874,0.0012311793398112059,-0.0032373385038226843,-0.005425125360488892
1773790167943068200,16.738068115234373,-0.0008772452711127698,-0.001883121207356453,-0.005688512232154608
1773790167963032300,16.7580322265625,0.0006000102148391306,-0.002299905987456441,-0.006885070353746414
1773790167982996500,16.77799658203125,-0.000245543458731845,-0.0019451729021966457,-0.0068054418079555035
1773790168002959400,16.79795947265625,-0.00017603494052309543,-0.0036754286848008633,-0.005458415020257235
1773790168022923500,16.817923583984374,-0.00042211104300804436,-0.003783819265663624,-0.006608900614082813
1773790168042887400,16.837887451171873,-0.000028762138754245825,-0.0026706180069595575,-0.007470699492841959
1773790168062851300,16.857851318359376,-0.00014088122406974435,-0.004043743945658207,-0.005935387220233679
1773790168082815500,16.8778154296875,-0.0007416903390549123,-0.0033870083279907703,-0.0046360306441783905
1773790168102778400,16.8977783203125,-0.00013502225920092314,-0.00333134806714952,-0.005920739844441414
1773790168122742500,16.917742431640626,-0.0006431533838622272,-0.0035401401109993458,-0.005303685087710619
1773790168142706400,16.93770654296875,-0.000663393409922719,-0.003059173235669732,-0.004506334662437439
1773790168162670300,16.95767041015625,0.0006719155353493989,-0.002555835759267211,-0.006670952308923006
1773790168182633500,16.977633544921876,0.00006524744821945205,-0.0026232136879116297,-0.006136189214885235
1773790168202597400,16.997597412109375,0.00047404266661033034,-0.004038683604449034,-0.005801696330308914
1773790168222561300,17.017561279296874,-0.0005872269975952804,-0.0031646343413740396,-0.006509032100439072
1773790168242525400,17.037525390625,0.00014274542627390474,-0.003522030543535948,-0.006853911560028791
1773790168262489300,17.0574892578125,-0.0021044297609478235,-0.003428020980209112,-0.005071191117167473
1773790168282452200,17.0774521484375,0.001278849900700152,-0.002968891989439726,-0.005279982928186655
1773790168302416400,17.09741650390625,0.0002724413643591106,-0.004296211525797844,-0.006609965581446886
1773790168322380300,17.11738037109375,0.0009733853512443602,-0.002694586291909218,-0.007010771427303553
1773790168342344200,17.13734423828125,0.0002860235108528286,-0.0033633061684668064,-0.004607002250850201
1773790168362308400,17.157308349609377,-0.0011973571963608265,-0.0023552996572107077,-0.006938599981367588
1773790168382271200,17.177271240234376,-0.0004934837343171239,-0.003462641965597868,-0.006318083498626947
1773790168402235400,17.1972353515625,0.00011345066013745964,-0.002098304685205221,-0.0060206083580851555
1773790168422199300,17.21719921875,-0.0012373046483844519,-0.0031411985401064157,-0.006452572997659445
1773790168442163500,17.23716357421875,0.0006562029011547565,-0.0028610338922590017,-0.005286640953272581
1773790168462126300,17.257126220703125,-0.0013608753215521574,-0.002764361212030053,-0.006061887368559837
1773790168482090500,17.277090576171876,-0.0011848403373733163,-0.0043862261809408665,-0.005623797420412302
1773790168502054400,17.297054443359375,0.0003355582884978503,-0.002695119008421898,-0.007192398887127638
1773790168522018600,17.3170185546875,0.00027856664382852614,-0.003981958609074354,-0.006191050633788109
1773790168541982500,17.336982421875,-0.0014018879737704992,-0.002499643014743924,-0.005218996666371822
1773790168561945300,17.3569453125,0.00004207794336252846,-0.0018924422329291701,-0.005345496814697981
1773790168581909500,17.376909423828124,-0.0001257012045243755,-0.003102049930021167,-0.006120476871728897
1773790168601873400,17.396873291015623,-0.0004415521107148379,-0.0034490597900003195,-0.007449926808476448
1773790168621837300,17.41683740234375,-0.000046339002437889576,-0.002728408435359597,-0.006421413738280535
1773790168641800400,17.436800537109374,0.0005619269795715809,-0.003209641668945551,-0.0051841093227267265
1773790168661764400,17.456764404296877,-0.0005632585380226374,-0.002919090911746025,-0.004706338047981262
1773790168681728300,17.476728271484376,-0.0008719189208932221,-0.0038389465771615505,-0.006076268386095762
1773790168701692400,17.4966923828125,0.0007488809060305357,-0.003323625074699521,-0.00609304616227746
1773790168721656300,17.51665625,0.0004791026876773685,-0.0032674323301762342,-0.006179332733154297
1773790168741619500,17.536619384765626,0.00019760655413847417,-0.004159591160714626,-0.007423561532050371
1773790168761583400,17.556583251953125,0.0009776464430615306,-0.003180613275617361,-0.007535147946327925
1773790168781547300,17.57654736328125,-0.00014061490946915,-0.0035305526107549667,-0.006764695513993502
1773790168801511200,17.59651123046875,0.0011611381778493524,-0.001970472978428006,-0.005655755288898945
1773790168821475300,17.616475341796875,0.0005009406013414264,-0.002519616624340415,-0.004850681405514479
1773790168841438200,17.636438232421874,-0.0005307680112309754,-0.002713228575885296,-0.007174556143581867
1773790168861402400,17.65640234375,-0.000651675509288907,-0.003912183456122875,-0.006639793049544096
1773790168881366300,17.6763662109375,-0.00044288369826972485,-0.0046269758604466915,-0.006736732088029385
1773790168901330400,17.696330322265624,-0.00046818371629342437,-0.0034256239887326956,-0.0063037024810910225
1773790168921293300,17.716293212890626,-0.00021491710504051298,-0.0026937874499708414,-0.006392651703208685
1773790168941257200,17.73625732421875,-0.0007760451408103108,-0.0025949841365218163,-0.004548412747681141
1773790168961221400,17.756221435546873,0.000023169501218944788,-0.0035238948184996843,-0.0046538738533854485
1773790168981185500,17.776185546875,-0.0009765811264514923,-0.0030919299460947514,-0.006361226551234722
1773790169001148400,17.7961484375,-0.0007182545377872884,-0.0037590519059449434,-0.0052083441987633705
1773790169021112300,17.8161123046875,-0.0002585929469205439,-0.002773149637505412,-0.006309827324002981
1773790169041076500,17.836076416015626,-0.001734516816213727,-0.0034589136485010386,-0.004977714270353317
1773790169061040400,17.856040283203125,-0.0016117451013997197,-0.0028309402987360954,-0.005593170877546072
1773790169081004300,17.87600439453125,0.0005049353349022567,-0.003948668949306011,-0.005932990461587906
1773790169100967400,17.895967529296875,-0.0004218447138555348,-0.002743322169408202,-0.006355633959174156
1773790169120931300,17.915931396484375,-0.0003350256592966616,-0.003291134489700198,-0.006688262801617384
1773790169140895500,17.9358955078125,0.0002735066518653184,-0.004036553204059601,-0.00512738386169076
1773790169160859400,17.955859375,-0.0003635214816313237,-0.0029617014806717634,-0.005681055132299662
1773790169180822300,17.975822265625,0.000025832661776803434,-0.0034493261482566595,-0.005587578285485506
1773790169200786400,17.995786376953124,0.0010399643797427416,-0.002569417702034116,-0.0051596080884337425
1773790169220750300,18.015750244140627,-0.0006996124284341931,-0.003570233704522252,-0.005346562247723341
1773790169240714200,18.03571435546875,-0.0014911039033904672,-0.0020722055342048407,-0.006418484263122082
1773790169260678400,18.055678466796873,0.00032623723382130265,-0.0028842033352702856,-0.007078682072460651
1773790169280641300,18.075641357421876,-0.00021837920940015465,-0.003897003596648574,-0.005082909017801285
1773790169300605200,18.095605224609375,-0.0001661812566453591,-0.0030541131272912025,-0.0060355220921337605
1773790169320569300,18.1155693359375,-0.00043569316039793193,-0.004255731590092182,-0.0062706791795790195
1773790169340534000,18.135533935546874,-0.0014772554859519005,-0.0024088292848318815,-0.006287190597504377
1773790169360497000,18.155496826171873,-0.000041278995922766626,-0.0009153284481726587,-0.006305033806711435
1773790169380461000,18.1754609375,-0.0011262508342042565,-0.002737463219091296,-0.005314338020980358
1773790169400425000,18.195425048828124,0.00001304948909819359,-0.003397927153855562,-0.005035505164414644
1773790169420388900,18.215388916015623,-0.001020257011987269,-0.0033513219095766544,-0.004868524614721537
1773790169440353000,18.23535302734375,-0.0017201356822624803,-0.0049012815579771996,-0.006523413117974997
1773790169460316000,18.25531591796875,0.00045593318645842373,-0.0020562265999615192,-0.00652687530964613
1773790169480279800,18.27527978515625,-0.0005390237784013152,-0.002971288748085499,-0.006460295990109444
1773790169500244000,18.295243896484376,0.0009560748003423214,-0.0013129384024068713,-0.005184908397495747
1773790169520208000,18.315207763671875,-0.0010066748363897204,-0.003609115956351161,-0.00643659383058548
1773790169540171000,18.3351708984375,-0.0006740460521541536,-0.0016772588714957237,-0.006090649403631687
1773790169560135000,18.355135009765625,0.00016245282313320786,-0.004067446105182171,-0.004938299767673016
1773790169580098800,18.375098876953125,0.0015531554818153381,-0.004001932218670845,-0.005754558369517326
1773790169600063000,18.39506298828125,0.0004498079069890082,-0.0033249566331505775,-0.00740385428071022
1773790169620025900,18.41502587890625,-0.0013755226973444223,-0.002810700098052621,-0.004698348697274923
1773790169639990000,18.434989990234374,-0.0001054611784638837,-0.002177933230996132,-0.006706638727337122
1773790169659954200,18.4549541015625,-0.0015491608064621687,-0.002823217073455453,-0.005028048064559698
1773790169679918000,18.47491796875,-0.0019217369845137,-0.002382996492087841,-0.005981992464512587
1773790169699882000,18.494882080078124,-0.0012112056137993932,-0.002223206916823983,-0.00544350128620863
1773790169719845000,18.51484521484375,-0.000505734293255955,-0.003397128311917186,-0.006393983494490385
1773790169739809000,18.53480908203125,0.0001917476038215682,-0.0026876621413975954,-0.005464540328830481
1773790169759773000,18.55477294921875,0.00022556974727194756,-0.002996056107804179,-0.005847768858075142
1773790169779737000,18.574737060546877,-0.00012996226723771542,-0.0023129554465413094,-0.004489024169743061
1773790169799700000,18.594699951171876,0.00039281626231968403,-0.002168612089008093,-0.005823534447699785
1773790169819664100,18.6146640625,0.00016351809608750045,-0.002558498876169324,-0.0065684206783771515
1773790169839628000,18.6346279296875,-0.000010652644050423987,-0.0027973842807114124,-0.005821669939905405
1773790169859592000,18.654592041015626,-0.0007068029372021556,-0.003555586328729987,-0.006447246763855219
1773790169879555000,18.67455517578125,-0.00033928672201000154,-0.0026080335956066847,-0.004597148858010769
1773790169899519000,18.69451904296875,-0.00028336033574305475,-0.004565456882119179,-0.0060115535743534565
1773790169919483000,18.71448291015625,0.00006178533658385277,-0.002127333078533411,-0.006178533658385277
1773790169939447000,18.734447021484375,-0.00015472965606022626,-0.00281948852352798,-0.006128732580691576
1773790169959411000,18.754410888671874,0.0008671252289786935,-0.0029414615128189325,-0.006785468198359013
1773790169979373800,18.774373779296877,-0.0006050702068023384,-0.0020221380982548,-0.006042978726327419
1773790169999338000,18.794337890625,0.0004572647449094802,-0.0029949909076094627,-0.006147108506411314
1773790170019302000,18.814302001953124,-0.0010892328573390841,-0.001865011639893055,-0.006998520810157061
1773790170039265800,18.834265869140626,-0.0007683219737373292,-0.0029111013282090425,-0.005527656991034746
1773790170059229000,18.85422900390625,-0.0008383630774915218,-0.0028876655269414186,-0.006105296779423952
1773790170079192800,18.87419287109375,-0.00043809000635519624,-0.00267807487398386,-0.006877347361296415
1773790170099157000,18.894156982421876,-0.00005912217602599412,-0.0021901836153119802,-0.006226737052202225
1773790170119121200,18.91412109375,-0.00011291803093627095,-0.002766757970675826,-0.004231763072311878
1773790170139083800,18.934083740234374,-0.0007257114048115909,-0.004596349783241749,-0.0049249837175011635
1773790170159048200,18.954048095703126,0.0005078648100607097,-0.0018809906905516982,-0.004457865376025438
1773790170179012000,18.97401220703125,0.000014114753867033869,-0.0030567762441933155,-0.006661897525191307
1773790170198976000,18.99397607421875,0.0006825681775808334,-0.003448793664574623,-0.007754325866699219
1773790170218940000,19.01393994140625,0.00009853696246864274,-0.00299259414896369,-0.00446958327665925
1773790170238903000,19.033903076171875,0.0008572715451009572,-0.002709766384214163,-0.0057401773519814014
1773790170258867000,19.053866943359374,0.0007193197961896658,-0.0032535837963223457,-0.005284244194626808
1773790170278831000,19.0738310546875,-0.0011358382180333138,-0.002910302486270666,-0.005394765175879002
1773790170298795000,19.093794921875,-0.00013688647595699877,-0.0021433120127767324,-0.006475209724158049
1773790170318758000,19.1137578125,0.00019281286222394556,-0.002930009737610817,-0.0057159424759447575
1773790170338721300,19.13372119140625,0.0005496764206327498,-0.002490854589268565,-0.006736998446285725
1773790170358685200,19.153685302734374,-0.00041998049709945917,-0.0034083134960383177,-0.005798234138637781
1773790170378649600,19.173649658203125,0.0005424859118647873,-0.00307621737010777,-0.006640592124313116
1773790170398613500,19.193613525390624,-0.001065264455974102,-0.003087668912485242,-0.006777212489396334
1773790170418576100,19.213576171875,0.00010705907334340736,-0.00378994457423687,-0.005848035216331482
1773790170438540500,19.23354052734375,-0.0004958806093782187,-0.0036788906436413527,-0.005086637567728758
1773790170458504400,19.25350439453125,-0.0014583469601348042,-0.00387410051189363,-0.0073015885427594185
1773790170478468400,19.27346826171875,0.0008932242053560913,-0.0031127026304602623,-0.0073045180179178715
1773790170498431500,19.293431396484376,-0.0004439489566721022,-0.0034179009962826967,-0.006594519596546888
1773790170518395400,19.3133955078125,-0.00013156015484128147,-0.002936135046184063,-0.004762264434248209
1773790170538359300,19.333359375,0.00028096348978579044,-0.0036069853231310844,-0.0051984903402626514
1773790170558323500,19.353323486328126,-0.0013052152935415506,-0.002770752878859639,-0.006394249852746725
1773790170578287400,19.373287353515625,-0.0000023968450477696024,-0.0021286646369844675,-0.004534830804914236
1773790170598250500,19.39325048828125,-0.000222373942960985,-0.0022098910994827747,-0.005738579668104649
1773790170618214400,19.41321435546875,0.0007962851668708026,-0.0034759577829390764,-0.005178783088922501
1773790170638178300,19.43317822265625,-0.0008234494016505778,-0.002258094260469079,-0.005453621037304401
1773790170658142200,19.45314208984375,-0.0015704660909250379,-0.0030453247018158436,-0.005922337528318167
1773790170678105300,19.473105224609377,-0.00011824435205198824,-0.0028780782595276833,-0.005746036302298307
1773790170698069200,19.4930693359375,0.0007696535321883857,-0.003257844829931855,-0.005307679995894432
1773790170718033400,19.513033447265624,-0.0007555388147011399,-0.0027201527263969183,-0.005841644015163183
1773790170737997300,19.532997314453127,-0.0006844323943369091,-0.002975017298012972,-0.006105829495936632
1773790170757960200,19.552960205078126,0.00040986048406921327,-0.0029885992407798767,-0.005879194475710392
1773790170777924400,19.57292431640625,-0.0003933488915208727,-0.002995789982378483,-0.005888249259442091
1773790170797888300,19.59288818359375,-0.0001555285998620093,-0.0029401297215372324,-0.005818740464746952
1773790170817852200,19.61285205078125,-0.0007416903390549123,-0.0032378712203353643,-0.006429669912904501
1773790170837815300,19.632815185546875,-0.00003062635369133204,-0.0046634613536298275,-0.006579605862498283
1773790170857779200,19.652779296875,-0.0015912387752905488,-0.002968625631183386,-0.005715143866837025
1773790170877743400,19.672743408203125,0.0010575412306934595,-0.0025563682429492474,-0.0059601543471217155
1773790170897707500,19.69270751953125,-0.0011347729014232755,-0.0032953955233097076,-0.006494651082903147
1773790170917671400,19.71267138671875,-0.00016112125013023615,-0.0028189560398459435,-0.004505269695073366
1773790170937634600,19.732634521484375,0.00025060345069505274,-0.0043710460886359215,-0.005976399872452021
1773790170957598500,19.752598388671874,-0.0016442356863990426,-0.0035276231355965137,-0.007196127437055111
1773790170977562400,19.772562255859373,0.0005747101386077702,-0.0027949875220656395,-0.005940180737525225
1773790170997526500,19.792526611328125,0.00007723167072981596,-0.003245061729103327,-0.005839513149112463
1773790171017489400,19.812489501953124,0.0006095975404605269,-0.0023499734234064817,-0.006089051254093647
1773790171037453300,19.832453369140627,-0.0003222425002604723,-0.0021675468888133764,-0.006730340886861086
1773790171057417500,19.85241748046875,-0.0006668555433861911,-0.003212304785847664,-0.005315669346600771
1773790171077381400,19.87238134765625,-0.0007238471880555153,-0.003352919826284051,-0.005372661165893078
1773790171097345300,19.89234521484375,-0.000032490566809428856,-0.0024519723374396563,-0.005372661165893078
1773790171117308400,19.912308349609376,-0.0005395564367063344,-0.004473578184843063,-0.007078682072460651
1773790171137272300,19.932272216796875,0.0012026835465803742,-0.0032559807877987623,-0.004885036498308182
1773790171157236200,19.952236328125,-0.0015009575290605426,-0.002769687445834279,-0.005900765769183636
1773790171177200400,19.972200439453125,-0.0013579458463937044,-0.002281263703480363,-0.0059998356737196445
1773790171197163300,19.992163330078125,0.0010695254895836115,-0.003367833560332656,-0.004339088220149279
1773790171217127400,20.01212744140625,0.0001752359967213124,-0.003498594742268324,-0.005001949146389961
1773790171237091300,20.03209130859375,0.00015925703337416053,-0.003856257302686572,-0.00570023013278842
1773790171257055200,20.05205517578125,-0.0010958907660096884,-0.003355050226673484,-0.004953479394316673
1773790171277018400,20.072018310546873,-0.0011912320042029023,-0.003506850451231003,-0.006158560048788786
1773790171296982300,20.091982177734376,0.0012186624808236957,-0.0035515916533768177,-0.005057609174400568
1773790171316946200,20.1119462890625,-0.001615473534911871,-0.0029113676864653826,-0.0054544201120734215
1773790171336910800,20.131910888671875,0.0008833705214783549,-0.0030133668333292007,-0.005997172556817532
1773790171356874800,20.151874755859374,-0.0018530274974182248,-0.003847468877211213,-0.005804359447211027
1773790171376837600,20.171837646484374,-0.0011004181578755379,-0.0022865901701152325,-0.004399542231112719
1773790171396801800,20.1918017578125,0.0006375607335940003,-0.001749430550262332,-0.005840844940394163
1773790171416765700,20.211765625,-0.0026999127585440874,-0.0015480954898521304,-0.006080529186874628
1773790171436729600,20.2317294921875,-0.0005936186062172055,-0.0029262814205139875,-0.004985703621059656
1773790171456692700,20.251692626953126,-0.0003038666909560561,-0.0022072279825806618,-0.005559881217777729
1773790171476656600,20.27165673828125,-0.0009419600828550756,-0.002746251644566655,-0.0049220542423427105
1773790171496620500,20.29162060546875,0.000636495475191623,-0.003382747294381261,-0.006673881784081459
1773790171516584700,20.311584716796876,0.000010386328540334944,-0.0037446708884090185,-0.004851480480283499
1773790171536547600,20.331547607421875,0.000360059377271682,-0.004248008131980896,-0.005591839086264372
1773790171556511700,20.35151171875,0.00018722022650763392,-0.003929760307073593,-0.006056294776499271
1773790171576475600,20.3714755859375,0.00009028115891851485,-0.001725728390738368,-0.006354302167892456
1773790171596439600,20.391439453125,0.00021491710504051298,-0.002430400811135769,-0.005404885392636061
1773790171616403500,20.411403564453124,0.0016791230300441384,-0.0034474621061235666,-0.006003297865390778
1773790171636366600,20.43136669921875,0.001449025934562087,-0.0032714270055294037,-0.005452289711683989
1773790171656330500,20.45133056640625,0.00010759170982055366,-0.0024439829867333174,-0.004515123087912798
1773790171676294700,20.471294677734374,0.0016871124971657991,-0.002624545246362686,-0.005801429972052574
1773790171696258600,20.491258544921877,0.0002633866388350725,-0.003367567202076316,-0.004977714270353317
1773790171716221700,20.5112216796875,-0.0002748382103163749,-0.0020450414158403873,-0.00501180300489068
1773790171736185600,20.531185546875,-0.0007422229973599315,-0.0034530546981841326,-0.006874151527881622
1773790171756149500,20.5511494140625,-0.0006005428149364889,-0.003346261801198125,-0.005850964691489935
1773790171776113700,20.57111376953125,-0.0008849684381857514,-0.0029166939202696085,-0.006016080733388662
1773790171796077800,20.591077880859373,-0.0001496696495451033,-0.004204332362860441,-0.005621666554361582
1773790171816040700,20.611040771484376,-0.0008341020438820124,-0.003795803524553776,-0.005962018854916096
1773790171836004600,20.631004638671875,-0.00002103897168126423,-0.004079164005815983,-0.004734567832201719
1773790171855968800,20.65096875,-0.0007866977830417454,-0.0029678267892450094,-0.0067689563147723675
1773790171875932700,20.6709326171875,0.0011225224006921053,-0.0024770060554146767,-0.005903429351747036
1773790171895895800,20.690895751953125,-0.00019520970818120986,-0.0027710190042853355,-0.005412076134234667
1773790171915859700,20.710859619140624,-0.0005363606614992023,-0.003195793367922306,-0.005766009911894798
1773790171935823600,20.73082373046875,0.00020399813365656883,-0.0013816480059176683,-0.00634950865060091
1773790171955787800,20.750787841796875,0.00001757686368364375,-0.003144926857203245,-0.006154032424092293
1773790171975750700,20.770750732421874,-0.00018961707246489823,-0.0033486587926745415,-0.004028563853353262
1773790171995714600,20.790714599609377,0.00021491710504051298,-0.004138019867241383,-0.006325007416307926
1773790172015678700,20.8106787109375,-0.001303351018577814,-0.0029055087361484766,-0.006428604479879141
1773790172035642600,20.830642578125,0.0008615325787104666,-0.0029949909076094627,-0.005904760677367449
1773790172055606500,20.8506064453125,-0.0017425062833353877,-0.0026176210958510637,-0.005303152836859226
1773790172075569700,20.870569580078126,-0.0008261125767603517,-0.0029084382113069296,-0.006700779777020216
1773790172095533600,20.890533447265625,0.00019893812714144588,-0.004035754129290581,-0.0057047572918236256
1773790172115497500,20.91049755859375,-0.0003094593121204525,-0.002712429501116276,-0.0041071269661188126
1773790172135461600,20.930461669921876,-0.0006519418093375862,-0.0025425199419260025,-0.005138303153216839
1773790172155424500,20.950424560546875,-0.000362988852430135,-0.004990231245756149,-0.004926049150526524
