time,seconds_elapsed,z,y,x
1773790752216873200,0.061873291015625,0.03037467999756336,0.0033364829123718664,0.00848890180606395
1773790752236837000,0.081837158203125,0.040102877807617184,0.0032672627342166375,-0.004427935977466404
1773790752256801000,0.101801025390625,0.04279518563151359,0.004653858254407533,0.00010795388650149106
1773790752276764200,0.12176416015625,0.03830488847494125,0.0023651719284942373,-0.009869761705212294
1773790752299224000,0.14422412109375,0.02723229031860828,-0.0007057097170967609,0.004493877353146672
1773790752319188500,0.1641884765625,0.03890285436809063,0.0005632188067538664,0.0030777817438356575
1773790752339151000,0.184151123046875,0.046235681474208826,0.0060997051145881415,0.012932199749443679
1773790752359115300,0.204115234375,0.03321604090332985,-0.0032758707323577254,-0.004390362179744988
1773790752379078100,0.224078125,0.04010053972005844,-0.0012387617144500836,0.005915452855173498
1773790752399042000,0.2440419921875,0.035461774003505704,0.003815439235465601,0.0019908632899634537
1773790752419006500,0.26400634765625,0.03950140478312969,0.010854050901671871,0.008281232138443739
1773790752438969000,0.283968994140625,0.026034020444750783,-0.004061623415723443,-0.003991681718360633
1773790752458933200,0.303933349609375,0.04054886800944805,-0.001409305108920671,0.00019318448454141616
1773790752478897400,0.3238974609375,0.0321679931551218,-0.0016766325419070199,-0.0021314773370511826
1773790752498860300,0.3438603515625,0.03710544955730438,0.0031137800724012777,0.004925418904516846
1773790752518824400,0.363824462890625,0.042488896161317825,0.01241785701913759,-0.003669135233107954
1773790752538788400,0.383788330078125,0.045180034941434855,-0.00107480789097026,0.0001651091675274074
1773790752558751200,0.403751220703125,0.040542438268661496,-0.0018608117360854521,0.010149839021917432
1773790752578715400,0.42371533203125,0.023932664251327514,0.0021266732977703214,-0.003920717107690871
1773790752598679300,0.44367919921875,0.04952069449424743,-0.0011713636006228626,-0.004355820589326322
1773790752618642400,0.463642333984375,0.05027005155682564,-0.003058766516111791,-0.00159726086249575
1773790752638606300,0.4836064453125,0.03844751181602478,0.012896324718464166,-0.0021578173547051847
1773790752658569200,0.5035693359375,0.04368658151328563,0.0037894462776836006,0.00947345586400479
1773790752678532400,0.523532470703125,0.024833997005224227,0.0060087114960420875,-0.0037653986818157134
1773790752698496300,0.543496337890625,0.041592824104428286,0.004457417800277471,-0.005673351194988936
1773790752718460400,0.56346044921875,0.04997369895875454,0.009725033172010443,0.0007332096453756094
1773790752738423300,0.58342333984375,0.04144552458822727,0.010309966053650714,-0.00410292354049161
1773790752758387200,0.60338720703125,0.029326632249355316,-0.00033546533233020455,-0.005529193483944982
1773790752778351400,0.623351318359375,0.030223873350024223,0.0065786614376818755,-0.0031019846033304927
1773790752798314200,0.643314208984375,0.04264496350586414,0.0013939522761618718,0.0013087079783901572
1773790752818278400,0.6632783203125,0.043992286461591715,0.005002758457046002,0.0060742236134596166
1773790752838241300,0.6832412109375,0.029475100809335707,-0.004274626845587045,0.0025949849292635917
1773790752858205400,0.703205322265625,0.03725567168295383,-0.002949698384758085,-0.01542301191817969
1773790752878169300,0.72316943359375,0.03321194925010204,0.013190088067227042,-0.0028436807270161807
1773790752898132500,0.743132568359375,0.037699908319115634,-0.0016922137035289778,-0.005502396808564663
1773790752918096600,0.7630966796875,0.048324178186059,-0.007560493815573863,0.0019426950329914689
1773790752938060500,0.783060546875,0.052360886356234544,0.007546739284857175,0.006842413240671158
1773790752958023400,0.8030234375,0.05146247621178627,0.007792850399878807,0.010618114120792596
1773790752977987600,0.822987548828125,0.031710312515497205,-0.009226901790988631,-0.012836922681424766
1773790752997951500,0.842951416015625,0.03529986144006252,0.003666230889968574,0.004597027200367302
1773790753017914600,0.86291455078125,0.03664309274256229,0.005270218320772983,-0.004789024374820291
1773790753037878500,0.88287841796875,0.0599877279728651,0.001891403237171471,0.0011680573986843227
1773790753057841700,0.902841552734375,0.03634381753504276,0.005147729018842801,0.0011902144315652549
1773790753077805600,0.9228056640625,0.0345469972461462,0.00006031535249203443,0.004926514883060008
1773790753097769500,0.94276953125,0.036789807736873625,-0.001143265450722538,-0.004623111489694565
1773790753117732600,0.962732666015625,0.04427519505620003,0.0007150027018273248,0.008283186633512378
1773790753137696500,0.982696533203125,0.03499766362309455,-0.0004864546429598704,0.0005573050891980528
1773790753157660400,1.002660400390625,0.03664192369878292,-0.00896645618993789,0.010345544257108121
1773790753177623600,1.02262353515625,0.03798866213262081,0.0069540523550240315,0.01710831639030948
1773790753197587500,1.04258740234375,0.03679448391199112,0.00029552604758646336,-0.0011112857101485132
1773790753217550600,1.062550537109375,0.03320376594364643,-0.011028594617825,-0.001718001165334135
1773790753237514500,1.082514404296875,0.0400894338041544,0.014420913070393726,-0.008352415944822132
1773790753257478400,1.102478515625,0.04712298570275306,-0.0035664192107273266,-0.005683251534495502
1773790753277441500,1.122441650390625,0.03350596376061439,0.003936065373872407,0.005582147513888776
1773790753297405400,1.142405517578125,0.04712298570275306,-0.004038763129943982,-0.0035349509268067774
1773790753317369300,1.162369384765625,0.049367549759149545,-0.0007746559006161988,0.006214088741876184
1773790753337332500,1.18233251953125,0.03739829502403736,0.00845537856237497,-0.0037312224175781008
1773790753357296400,1.20229638671875,0.03470423363447189,0.006882895948109217,-0.0026322481997311112
1773790753377259500,1.222259521484375,0.036648937961459155,0.0016986114782746881,-0.0030722653185017404
1773790753397223400,1.242223388671875,0.04038870901167393,0.010867065646871924,-0.000024294191040098666
1773790753417187300,1.262187255859375,0.05071370367109775,-0.002976353496243246,0.011167875224351882
1773790753437150500,1.282150390625,0.0326081381380558,0.0028464298065286127,0.008132544382754714
1773790753457114400,1.3021142578125,0.023630466434359548,-0.001927766891918145,0.0013831614540889858
1773790753477078500,1.32207861328125,0.04233633594810962,0.0008479996980400755,0.0047887321138754485
1773790753497041400,1.34204150390625,0.038297289690375325,0.00020846881864126771,0.0021590046647936103
1773790753517005600,1.362005615234375,0.04757189851403236,0.000490144437388517,0.0005009352594614029
1773790753536968400,1.381968505859375,0.026171383088827133,0.006314183548907749,0.004908577367570251
1773790753556932400,1.401932373046875,0.03978898955285549,-0.000650458698789589,0.006204699859023094
1773790753576896500,1.421896484375,0.048317748445272445,0.00949696003717836,0.007523143780138343
1773790753596859400,1.441859375,0.027968203377723693,0.00784939832612872,-0.0017932218260131776
1773790753616823600,1.461823486328125,0.03111234662234783,0.008005808163969777,-0.002596026108879596
1773790753636787500,1.481787353515625,0.03904489318728447,0.008052263954468071,-0.0009894128961488605
1773790753656750300,1.501750244140625,0.03261047622561455,0.002341092366585508,0.0006674326664768159
1773790753676714500,1.521714599609375,0.024230185893177984,-0.004386731750820763,0.0011587415810674429
1773790753696677400,1.541677490234375,0.04068856874108314,0.001035886952956207,-0.003409406584687531
1773790753716641500,1.5616416015625,0.030365327647328376,-0.0011106509559089318,-0.0061899224149994546
1773790753736605400,1.58160546875,0.0481716179728508,0.005033345391554758,-0.007841452481690794
1773790753756568300,1.601568359375,0.04398059602379799,0.0027503307546023277,0.0018979973747394977
1773790753776532500,1.621532470703125,0.03649813131392002,-0.003770901407417841,0.008640347774419932
1773790753796496400,1.641496337890625,0.03874152632653713,0.002071431412617676,-0.007771072392910718
1773790753816459500,1.66145947265625,0.03768997144699097,0.00014073734467383474,0.0032710392936132846
1773790753836423400,1.68142333984375,0.04068096995651722,0.009401815399900077,-0.00057368996841833
1773790753856386300,1.70138623046875,0.038137130692601204,0.0060145932475570586,-0.0007491378668695687
1773790753876350500,1.7213505859375,0.046070261779427524,-0.007503160438034683,0.008138243471179156
1773790753896314000,1.741314208984375,0.0349959100574255,0.0011053628594381733,0.00024327070396393537
1773790753916277200,1.76127734375,0.04023381071090698,-0.0005373628462897614,0.011440481620654462
1773790753936241200,1.7812412109375,0.04322831635177135,0.010724287042161449,0.0007062668395228683
1773790753956204300,1.801204345703125,0.048020811325311656,0.0088630780138541,-0.008777874815277755
1773790753976168200,1.821168212890625,0.03754734810590744,-0.003788185902358964,0.001970003165025264
1773790753996132000,1.841132080078125,0.04487842164635658,0.009023218745319172,0.008422120180167258
1773790754016095200,1.86109521484375,0.03769640118777752,-0.006213906078785658,-0.00046001872718334194
1773790754036059100,1.88105908203125,0.03709843529462814,0.006837508736690506,-0.0014721001128666102
1773790754056022300,1.901022216796875,0.048321255576610565,0.002100059285480529,0.008715440570935606
1773790754075986200,1.920986083984375,0.03216097889244556,-0.015620315455412492,-0.003893883899692446
1773790754095950000,1.9409501953125,0.033057050949335094,-0.010443565838062203,0.008618574334029109
1773790754115913200,1.960913330078125,0.046377135771512985,-0.0004922130968887359,-0.008116305634006858
1773790754135877000,1.980877197265625,0.035005262407660484,0.004328599222260527,0.013848218615818768
1773790754155841300,2.00084130859375,0.0456271941870451,0.0018828683042665943,-0.009727430625073611
1773790754175804200,2.02080419921875,0.036647768917679784,0.004468820543703623,0.007074705892894417
1773790754195768300,2.040768310546875,0.042480128332972523,0.0051013736930442975,-0.0018131686354987322
1773790754215731200,2.060731201171875,0.03888882584273815,0.014088324681739322,0.011809808123391122
1773790754235695400,2.0806953125,0.037840193572640415,-0.004092539143795147,0.0006023498073220253
1773790754255659300,2.1006591796875,0.05205459688603878,0.00787464236523956,0.01220810499228537
1773790754275622100,2.1206220703125,0.05459726710617542,0.005747192749334499,0.007784699059464037
1773790754295586300,2.14058642578125,0.029907062485814092,0.007869568897900171,0.004029365113936365
1773790754315550200,2.16055029296875,0.03828793734014034,0.0017684801104012875,0.0005196216936223209
1773790754335513300,2.180513427734375,0.041432080584764476,-0.0036649294154485687,0.0016309256700798868
1773790754355477200,2.200477294921875,0.04607259986698627,0.0017068130510393528,-0.0192224772663787
1773790754375440400,2.2204404296875,0.04352876060307025,0.0067551733486354345,0.0018674195733852682
1773790754395404300,2.240404296875,0.04337970752120018,-0.003943508894811384,0.0054033934134989975
1773790754415368200,2.2603681640625,0.0418798243522644,0.005100670440145768,-0.0037065994329750535
1773790754435331300,2.280331298828125,0.02631342190802097,0.006639054421987384,0.0018425591267645358
1773790754455295200,2.300295166015625,0.04023205714523792,-0.0017475423536496236,0.008075096840783953
1773790754475258400,2.32025830078125,0.034247137516736983,-0.007035122801177203,-0.006757347039412707
1773790754495222300,2.34022216796875,0.03604454232752323,-0.005027312942990102,-0.007453877936210483
1773790754515186400,2.3601865234375,0.04038461735844612,-0.00015200309078209102,0.010343407098948956
1773790754535149300,2.3801494140625,0.03844108207523823,-0.005959931317716836,0.01505083587123081
1773790754555113200,2.40011328125,0.042483635464310644,0.003172574754664674,0.006890289236698299
1773790754575076400,2.420076416015625,0.04876724577844142,0.007497187354974448,0.0008257650333456694
1773790754595040300,2.440040283203125,0.02736965296268463,0.009750989597174338,-0.0023443894353695214
1773790754615004400,2.46000439453125,0.04323240800499916,0.003840838538203388,-0.0022642186049371955
1773790754634967300,2.47996728515625,0.04263444211184978,-0.006292761734966189,-0.0006767302177846431
1773790754654931200,2.49993115234375,0.03904547770917415,-0.002448457164620049,-0.00495137532968074
1773790754674894300,2.519894287109375,0.038598902985453605,0.0110387141530402,0.006346300286799669
1773790754694858200,2.539858154296875,0.034409050080180165,-0.003783916152617894,0.0015569288521073757
1773790754714822400,2.559822509765625,0.04997019182741642,0.0023712820088723674,0.0017620047038421035
1773790754734785300,2.579785400390625,0.04128828819990158,0.0024937667442252857,-0.006610504180938005
1773790754754749200,2.599749267578125,0.03769581666588783,0.004269457480125129,0.0037550782172009346
1773790754774712300,2.61971240234375,0.04143675675988197,-0.0010792922698426991,0.00808331667985767
1773790754794676200,2.63967626953125,0.0314098682641983,-0.0008686497604241594,-0.009168865160550922
1773790754814640400,2.659640380859375,0.031111177578568457,0.00400793873341754,-0.004550539443828165
1773790754834603300,2.679603271484375,0.05714870515465736,0.0010872974797850475,0.001736011746060103
1773790754854567200,2.699567138671875,0.04667407289147377,0.015965242735831997,0.0038170923364348706
1773790754874530300,2.7195302734375,0.04128595011234283,-0.003987055775593035,0.002178092957753688
1773790754894494000,2.739493896484375,0.03545008356571197,0.01403587754187174,-0.00366411199811846
1773790754914458000,2.7594580078125,0.03963876742720604,0.003565451096347533,-0.020981924686953424
1773790754934421000,2.7794208984375,0.04906359837651252,0.003188178749172948,0.0068426324363797895
1773790754954385200,2.79938525390625,0.03544540739059448,0.006465040428796783,0.002412358371354639
1773790754974348000,2.81934814453125,0.038139468780159946,0.0021564976138761264,-0.005112027517799288
1773790754994312000,2.83931201171875,0.03978372885584831,0.0037570738114649426,0.00951848231581971
1773790755014276000,2.859276123046875,0.03993395098149776,-0.0034702196941012514,-0.0011116693026386201
1773790755034239000,2.879239013671875,0.02706511705815792,-0.000012370857805944978,0.002916161441337317
1773790755054203100,2.899203125,0.038438159465789795,-0.0007556726389331743,0.007819222383573651
1773790755074166000,2.919166015625,0.0441238038867712,0.007891867494676262,-0.0069556460904888805
1773790755094130000,2.9391298828125,0.028562077617645263,0.0049589832474011926,-0.006095960521232336
1773790755114094000,2.959093994140625,0.04322656278610229,0.002366386638046242,0.010323807349335402
1773790755134057000,2.979056884765625,0.041427404409646984,0.007704793090512975,-0.007350472360663116
1773790755154021000,2.999021240234375,0.03963058412075043,-0.010072481203079223,0.008556706345267593
1773790755173984000,3.01898388671875,0.04157236583828926,0.004206995836319402,-0.0014824936427175997
1773790755193948000,3.038947998046875,0.03648527183234691,-0.007250459752022288,0.000020640929229557513
1773790755213912000,3.058912109375,0.03289221577644348,-0.005950364338350482,-0.000918356953933835
1773790755233875000,3.078875,0.04725391860604286,-0.0015532618905650451,-0.0028742767946794627
1773790755253839000,3.098839111328125,0.03423544707894325,-0.0013912488624220714,0.010881934422440826
1773790755273802000,3.118802001953125,0.03722527654469013,0.0015700303622754289,0.006395765451714396
1773790755293766100,3.13876611328125,0.03183598472177982,0.006490823324024677,0.002764386679418385
1773790755313730000,3.15872998046875,0.04544949953258037,-0.008043518959009089,-0.0019895298494026063
1773790755333693000,3.17869287109375,0.048591304689645766,-0.0022157946196384726,-0.0052480384550057345
1773790755353657000,3.198656982421875,0.047692310023307795,0.015693933247472158,0.008144234820548445
1773790755373620000,3.218619873046875,0.040509705042839045,0.0018107163835084064,-0.002437547611538321
1773790755393584000,3.238584228515625,0.044997079589962956,-0.008202518046158366,0.011687917043082415
1773790755413548300,3.25854833984375,0.03676759590506554,0.0019473438086453825,0.015413878763653337
1773790755433511000,3.278510986328125,0.037215924194455144,-0.003551002445886843,-0.0067245590146630995
1773790755453475300,3.298475341796875,0.02928279310762882,0.004119705711933784,0.003407141562364995
1773790755473438000,3.31843798828125,0.04484451937675476,0.009785444422625005,-0.0059827642040327185
1773790755493402000,3.338402099609375,0.03467091588675975,0.0025838744467822834,0.0021835911167785525
1773790755513366300,3.3583662109375,0.04873743516206741,0.0004548219622578472,-0.0003832454302348196
1773790755533329000,3.378328857421875,0.05696691884696483,0.002236303118127398,-0.00005538344904780387
1773790755553293300,3.398293212890625,0.04125438593029976,-0.0009552822976838797,0.010004968924820423
1773790755573256000,3.418255859375,0.03736439275443554,0.006995873069600202,0.002959178599156439
1773790755593220400,3.438220458984375,0.044995326024293895,0.004564933295361697,-0.008544997641164809
1773790755613183000,3.458182861328125,0.05921499003469944,0.0006609435601858421,0.005795351873151958
1773790755633147000,3.47814697265625,0.03766717509329319,0.01429465177564416,0.010876947720069438
1773790755653111300,3.498111328125,0.031234511697292328,0.0034082923398353155,0.0009490626194514334
1773790755673074000,3.518073974609375,0.05023907189667225,0.0023706609543645753,0.01249711453411728
1773790755693038300,3.538038330078125,0.03931494230031967,-0.006868068271735682,0.010619739822298288
1773790755713001000,3.5580009765625,0.039764439633488656,0.001532607261603698,-0.0009291158099658787
1773790755732965000,3.577965087890625,0.04994096573293209,0.005872257600841112,-0.0005395502367988228
1773790755752929300,3.59792919921875,0.039164720174670216,0.003925580512476153,0.006991301925759762
1773790755772892200,3.61789208984375,0.03318038506805897,0.008032887967140414,0.003381203403510153
1773790755792856300,3.637856201171875,0.03976502415537834,0.0042995375245576724,0.0097658264067024
1773790755812819000,3.65781884765625,0.04171206656992435,0.007177768975147046,-0.000592869592923671
1773790755832783000,3.677783203125,0.04635492393970489,0.00315737261895556,0.0009178454972803592
1773790755852746000,3.69774609375,0.041864042261242865,0.006908751908573322,0.002728822175692767
1773790755872710100,3.717710205078125,0.026899697363376617,0.005558401312120259,0.004099252012372017
1773790755892674300,3.73767431640625,0.04425765939950943,-0.001823384068836458,-0.005745229121111333
1773790755912638200,3.75763818359375,0.05218786787688732,0.0033068869251292195,-0.00019263649526983498
1773790755932602000,3.77760205078125,0.03378361165821552,0.0031067110107978802,0.007094488305598497
1773790755952565200,3.797565185546875,0.04066694143116474,-0.00513184189654421,-0.005127334684785455
1773790755972529200,3.817529052734375,0.044855040770769114,0.0072623785186791785,0.009422584193293004
1773790755992493000,3.8374931640625,0.03602583762705326,0.0013220149845350534,0.0032953700172714886
1773790756012456200,3.857456298828125,0.04201251082122326,-0.0023493167722364885,0.011357534311246127
1773790756032420000,3.877420166015625,0.030635961282253262,0.005992956804484128,0.009430621369276195
1773790756052383200,3.89738330078125,0.04021159887909889,0.0014276901489822193,-0.003113273182325065
1773790756072347100,3.91734716796875,0.03916238208711147,-0.0013263395332032814,0.011603691092040389
1773790756092310300,3.937310302734375,0.044102176576852795,-0.001406820890889503,0.00016300854198634623
1773790756112274200,3.957274169921875,0.037814474609494206,0.004045946355978958,-0.00015520882802084088
1773790756132238000,3.977238037109375,0.03466857779920101,0.0046502278254833065,0.008966236994229257
1773790756152201200,3.997201171875,0.03766132987439632,0.005232713021710514,0.0031404899828135963
1773790756172165000,4.0171650390625,0.05172901819348335,0.011767316121957264,0.006373590152524412
1773790756192128300,4.037128173828125,0.04409574683606624,-0.011017689631320535,0.0023812143144197762
1773790756212092200,4.057092041015625,0.04992869077324867,0.006835161515977233,0.0012974559320136905
1773790756232056000,4.07705615234375,0.038107904598116873,0.0027347358932485804,0.006684263536892831
1773790756252019200,4.097019287109375,0.03571545650362968,0.0028978038007393477,-0.005083550341986119
1773790756271983000,4.116983154296875,0.040353053176403045,-0.009015971587202512,0.006827179138921201
1773790756310663200,4.1556630859375,0.04439209943413734,-0.002229544583777897,-0.0002514174778014421
1773790756330627300,4.17562744140625,0.04633680376112461,0.01130801434740424,-0.0017394458121620117
1773790756350590200,4.195590087890625,0.03526245203912258,-0.0007225147214252501,-0.001962678375095129
1773790756370554000,4.21555419921875,0.04633154306411743,-0.00686523242725525,0.0019527049703523516
1773790756390517200,4.235517333984375,0.033760815304517744,0.003927471075463108,-0.00023601897927001117
1773790756410481200,4.255481201171875,0.0515700282394886,0.0034535562536679204,0.0037097229718230664
1773790756430444300,4.2754443359375,0.029126141241192817,-0.003488664099667221,-0.002346143001038581
1773790756450408200,4.295408203125,0.03855389479994774,0.0019441700374474749,0.0057046596487052735
1773790756470372000,4.3153720703125,0.041697453522682185,-0.0009765534145757556,0.004423478998057544
1773790756490335200,4.335335205078125,0.04274608579277992,-0.003186228820681572,-0.0035818953410722315
1773790756510299100,4.355299072265625,0.03690963472425937,0.010589248785912058,-0.003267166836094111
1773790756530262300,4.37526220703125,0.049181087276339526,0.009648780464869923,0.0004012012120336294
1773790756550226200,4.39522607421875,0.040351299610733984,0.0035338960474589837,0.0049244507901370525
1773790756570189300,4.415189208984375,0.03855331027805805,0.0012210844938643276,0.0008198832818306982
1773790756590153200,4.4351533203125,0.04827917000055313,0.001317558005126193,0.0016032522118650376
1773790756610117000,4.4551171875,0.05067395618259907,0.008855940453591756,0.0017747363212518392
1773790756630080300,4.475080322265625,0.04408814805150032,0.021023585571325384,0.0051198089654557405
1773790756650044200,4.495044189453125,0.01940145056247711,0.0010790685075568035,0.00572502658329904
1773790756670007300,4.51500732421875,0.04169628447890281,-0.005584476468292996,-0.004570120927132666
1773790756689971200,4.53497119140625,0.04139642474949359,-0.008687698614061809,0.018033486677519975
1773790756709934300,4.554934326171875,0.03780453773736953,0.005799018834694288,0.009838380186259746
1773790756729898200,4.574898193359375,0.04603343690037727,-0.002299842474167235,0.005106858152337372
1773790756749862100,4.594862060546875,0.035110476347804065,-0.0006943480728659778,0.002717551863007247
1773790756769825300,4.6148251953125,0.04049743008315563,-0.004518701267149299,0.008834975297376512
1773790756789789200,4.6347890625,0.04693126252293586,0.007863289854163303,0.0002864157259464264
1773790756809752300,4.65475244140625,0.04932546418309212,0.011906231402303092,0.0027640396195463836
1773790756829716200,4.67471630859375,0.02807633992731571,0.005230758526641875,0.002433985681273043
1773790756849679000,4.69467919921875,0.03660743690729141,-0.0025688686738954856,0.0023442615712061525
1773790756869643300,4.714643310546875,0.04349252024590969,-0.004247496810066514,0.00019826251845806835
1773790756889607200,4.734607177734375,0.042592941057682035,0.004888635124661959,0.011735665174946189
1773790756909569300,4.7545693359375,0.02702887670099735,0.00032371552903205154,-0.0005739639630541205
1773790756929533400,4.774533447265625,0.04079728981256485,0.005116068938677199,0.009710917881689965
1773790756949496300,4.794496337890625,0.031816110977530475,0.004309054271574132,0.006984726054500788
1773790756969460500,4.81446044921875,0.03780453773736953,-0.005766445439076051,0.01448416016548872
1773790756989423400,4.83442333984375,0.040949850025773046,0.0021607125646900386,0.00013149915887042878
1773790757009387300,4.85438720703125,0.028830957686901092,0.00021102610190864652,-0.004741075313556939
1773790757029350400,4.874350341796875,0.0396054496794939,-0.0004994693881599233,0.012138090229686349
1773790757049314300,4.894314208984375,0.05023322667777538,0.002541081051249057,0.004327270348276943
1773790757069278500,4.914278564453125,0.04514554814994335,0.003651608709571883,-0.0012464015982113778
1773790757089241300,4.934241455078125,0.02674479906260967,0.008545997721585444,0.002740476080868393
1773790757109205500,4.95420556640625,0.03437865494191646,-0.0020701071052113547,0.00353739861221984
1773790757129168400,4.97416845703125,0.04500467837452888,-0.0018694653999991714,0.008872804823424667
1773790757149132300,4.99413232421875,0.04919686936736106,0.00690161891488824,0.010417604846321045
1773790757169095200,5.01409521484375,0.04710311195850372,0.008021677019959315,-0.005460402564052492
1773790757189059300,5.034059326171875,0.044561026260256764,0.004415889346646145,-0.0007650478220544755
1773790757209023500,5.0540234375,0.04112053041756153,0.0039044829255202784,-0.0012348390245810151
1773790757228986400,5.073986328125,0.04770750759243965,0.0003312549480935558,0.011324855884350836
1773790757248950500,5.093950439453125,0.03888181158006191,-0.00873689435091801,0.0017936602174304424
1773790757268913200,5.1139130859375,0.047262686434388156,-0.0036466996390139682,0.005632562526874244
1773790757288877600,5.133877685546875,0.04382160606980324,0.0018929147742455825,0.0037082981997169553
1773790757308840200,5.153840087890625,0.05504617991745472,0.012257296162564307,0.0032215193297713994
1773790757328804400,5.173804443359375,0.04128010489344597,-0.01195487914988771,0.003941230172757059
1773790757348767200,5.193767333984375,0.041131051811575885,-0.00119889092836529,0.007949223705101758
1773790757368731100,5.213731201171875,0.03933773865401745,-0.0006883978226920589,0.003241648802347481
1773790757388695600,5.233695556640625,0.03439911320805549,0.011860309901344589,0.003717668816260993
1773790757408658200,5.253658203125,0.048615854609012604,0.0035507101849419995,0.003183488874323666
1773790757428622600,5.27362255859375,0.03679682199954987,0.0028303600211394947,-0.0006757073044776916
1773790757448585200,5.293585205078125,0.04024024045169353,0.0017706994669511914,-0.0019653635225258767
1773790757468549400,5.31354931640625,0.04173720101118088,0.0036901871542911976,0.003408091410435736
1773790757488512300,5.33351220703125,0.04547755658328533,0.0031742095893248913,0.005210482923593372
1773790757508476200,5.35347607421875,0.04697685523033142,0.0011489691057242452,0.014214494644943624
1773790757528439300,5.373439208984375,0.035305706658959386,-0.00034906916599720717,-0.0028698198152706023
1773790757548403200,5.3934033203125,0.04144084841310978,0.009060130389337428,-0.002844265248905867
1773790757568367400,5.413367431640625,0.028123101678490636,-0.002420765440096147,-0.011190982105303554
1773790757588330200,5.433330322265625,0.0397930812060833,0.007570873645693063,0.0013200513563118874
1773790757608294400,5.45329443359375,0.03365910849571228,0.007150255347136408,0.004387055977806449
1773790757628257300,5.47325732421875,0.03545417521893978,-0.0038450306561309843,0.004383749775867909
1773790757648221200,5.49322119140625,0.035002924320101735,0.003642717583640478,0.005544391053076833
1773790757668184300,5.513184326171875,0.04143500319421291,-0.0043203565503004936,0.004317351742461324
1773790757688148200,5.533148193359375,0.043677813684940336,0.0035481300687883045,-0.001744523846078664
1773790757708111400,5.553111328125,0.04203121552169323,0.0017034383504418655,0.005762910908274352
1773790757728075300,5.5730751953125,0.03634323301315307,0.0005298873593099415,0.0058513381103985004
1773790757748039400,5.593039306640625,0.03514613218307495,-0.003912081710086204,0.011805552073381841
1773790757768002300,5.613002197265625,0.04562134896814823,0.008381171681848354,0.008043861452303826
1773790757787966200,5.63296630859375,0.04352759155929088,0.004144378928886726,0.015170808989088982
1773790757807929300,5.652929443359375,0.039489714345335956,0.00007987400291021913,0.0026638489143922923
1773790757827893200,5.672893310546875,0.04741933830082416,0.0014248725708108396,-0.004923080816958099
1773790757847856400,5.6928564453125,0.035298692396283145,0.0007707514770561828,-0.00433852239465341
1773790757867820300,5.7128203125,0.035596798560023304,-0.002320373805542476,-0.0013684205426834524
1773790757887783200,5.732783203125,0.04592354678511619,-0.003634684974234551,0.00872079259948805
1773790757907747600,5.75274755859375,0.0357452671200037,-0.0074973791512195015,-0.0035934396483935415
1773790757927710500,5.77271044921875,0.04517477424442768,-0.0010806485432898626,0.00874766234010458
1773790757947674600,5.792674560546875,0.04517477424442768,-0.002976851253164932,-0.009446129465661942
1773790757967638800,5.812638671875,0.036943536993861194,0.006115318242250941,-0.009579126461874693
1773790757987601400,5.832601318359375,0.038591888722777364,-0.0003721212480217218,0.016528141882177442
1773790758007565800,5.85256591796875,0.036494039660692215,0.011763918588473461,0.005740023223031312
1773790758027528400,5.872528564453125,0.028110826718807217,0.004752382158860564,0.010373966633994132
1773790758047492600,5.89249267578125,0.04995908591151237,-0.006325919652474112,0.002087875657342374
1773790758067455500,5.91245556640625,0.04157879557907581,-0.010131467681587673,-0.0036047464936971663
1773790758087419400,5.93241943359375,0.035444822868704796,0.012559630976850165,0.002511288701184094
1773790758107382500,5.952382568359375,0.045320320194959636,-0.01163808198540937,0.004769296761043369
1773790758127346400,5.972346435546875,0.04158054914474487,-0.006605257183662615,0.002640906430222094
1773790758147309600,5.9923095703125,0.03155249160528183,0.0007817158290650695,0.0028695823532529172
1773790758167273500,6.0122734375,0.0369388608187437,-0.0004927017206558958,0.00737507707895711
1773790758187237400,6.0322373046875,0.04771159924566745,-0.00372107091632206,0.0011261179530993102
1773790758207200500,6.052200439453125,0.04636544533371925,0.0033563703563529996,0.01115212966594845
1773790758227164400,6.072164306640625,0.04951075762212276,0.010140915929945185,-0.00038832346415147186
1773790758247127600,6.09212744140625,0.03245265531539917,-0.0014810323379933832,0.0030092282859608527
1773790758267091500,6.112091552734375,0.03888590323328971,-0.003117858025897294,-0.013105674886517225
1773790758287054600,6.1320546875,0.033203181421756746,0.0001391162097454071,0.002161689812224358
1773790758307018500,6.1520185546875,0.03410217608809471,-0.0034051870672963556,0.006943352864496409
1773790758326981600,6.171981689453125,0.04038520188033581,-0.0013433546000858768,0.0028250856244005263
1773790758346945500,6.191945556640625,0.03185702750980854,0.0014480068512260913,0.002740603945031762
1773790758366908700,6.21190869140625,0.03933656961023807,-0.0007483798150438815,0.008071991568244993
1773790758386872600,6.23187255859375,0.042481297376751895,-0.004686851775133982,-0.015214118407852946
1773790758406836500,6.25183642578125,0.03933656961023807,0.004351048516086303,0.00658164341263473
1773790758426799600,6.271799560546875,0.037089082944393156,-0.003944559207581915,-0.00538167477203533
1773790758446763500,6.291763427734375,0.02526829676926136,-0.004953092362731695,0.007284786713309586
1773790758466726700,6.3117265625,0.04187923983037471,0.0027013542134547604,-0.005723236485011875
1773790758486690600,6.331690673828125,0.044423663616180414,0.0038864723447943105,-0.006944083516858518
1773790758506653400,6.3516533203125,0.03484685697555542,0.007327639474347234,0.006079447777848691
1773790758526617600,6.37161767578125,0.0393354005664587,0.011533146606478839,0.002633819102309644
1773790758546580500,6.39158056640625,0.04292670305669308,0.009090169334574603,0.0018579576252959668
1773790758566544600,6.411544677734375,0.03365150971114635,0.012620485185459255,-0.007194861673843115
1773790758586507500,6.431507568359375,0.03993570454716682,0.005532709748437628,0.0013234488897956908
1773790758606471400,6.451471435546875,0.03709434364140034,0.006224267642595805,-0.01191586231375113
1773790758626434600,6.4714345703125,0.045026890206336975,0.00421780492470134,-0.0011903240294195711
1773790758646398500,6.4913984375,0.03574877425134182,-0.0024078328932868316,0.00212835379820317
1773790758666362600,6.511362548828125,0.04457914643883705,0.009883881562110036,0.008779701446183025
1773790758686325500,6.531325439453125,0.04263268854618072,0.0009278234686003997,-0.005932111729029565
1773790758706289400,6.551289306640625,0.03769581666588783,0.005638978567929007,-0.0025273265205323693
1773790758726252500,6.57125244140625,0.027969956943392753,-0.004399308104603551,-0.005401292787957936
1773790758746216400,6.591216552734375,0.03635258536338806,0.00928627642856445,-0.0068419200503267346
1773790758766179600,6.6111796875,0.0396446126461029,0.0038574106470914554,0.005429843029007315
1773790758786143500,6.6311435546875,0.04204056787192821,-0.007007915133843198,0.009866437236964702
1773790758806106600,6.651106689453125,0.035755788514018054,0.0002690672989236191,-0.004637414009682834
1773790758826070500,6.671070556640625,0.03560498186647892,-0.008267294944636523,0.009147712774667888
1773790758846033700,6.69103369140625,0.03410919035077095,-0.0013524101227987556,-0.002401014993432909
1773790758865997600,6.71099755859375,0.03680442078411579,-0.0014650127849541604,0.00019037147294729946
1773790758885960700,6.730960693359375,0.03485913193523884,0.005964132568798959,0.0034413178266026077
1773790758905924400,6.75092431640625,0.03575695755779743,0.005194842396466993,0.004754555849637836
1773790758925887200,6.77088720703125,0.030369419300556182,0.007616868211887776,-0.004206438713893294
1773790758945851400,6.790851318359375,0.03186696438193321,-0.002872157902829349,0.019522026468534022
1773790758965815300,6.810815185546875,0.05686053586304188,-0.0022662826978601513,-0.002476272186730057
1773790758985778400,6.8307783203125,0.03695698099732399,0.0018834619593108071,0.0012311309638433157
1773790759005742300,6.850742431640625,0.03321487185955047,-0.006381047373195179,-0.0021556253976188597
1773790759025705200,6.870705322265625,0.041593993148207664,0.0005131371539086103,0.008360197392478584
1773790759045669400,6.89066943359375,0.03755319332480431,0.008774089122726581,0.011496065999101846
1773790759065632300,6.91063232421875,0.03710544955730438,0.005506684824614786,-0.010339918233919889
1773790759085596400,6.930596435546875,0.03650514557659626,-0.0038896598157240076,0.007683558506239205
1773790759105559300,6.950559326171875,0.04548573988974094,-0.0010089030479080974,0.003113638508506119
1773790759125523500,6.9705234375,0.04279460110962391,-0.0050590049891965465,-0.00013100596852600574
1773790759145486300,6.990486328125,0.0384551106005907,0.0036827436333522197,-0.004753971327748149
1773790759165450200,7.0104501953125,0.04519055633544922,-0.004723329594312236,0.0041638051485642785
1773790759185413400,7.030413330078125,0.03845920225381851,0.0024497906051808966,-0.0007267068393528462
1773790759205377300,7.050377197265625,0.034867899763584134,-0.0030756856848718596,-0.0041893231823109086
1773790759225340400,7.07034033203125,0.03651332888305187,0.007938884974177926,0.007041662139818072
1773790759245304300,7.09030419921875,0.03007891192138195,-0.005472134101041593,0.002525737351644784
1773790759265267500,7.110267333984375,0.04654021737873554,0.006636035914416425,0.00308333470178768
1773790759285231400,7.1302314453125,0.04025660706460476,0.011405460539623163,0.006909176600258797
1773790759305195300,7.1501953125,0.03636719841063022,-0.009914427397423424,-0.005693772928509861
1773790759325158400,7.170158447265625,0.05058218624591827,-0.0007701486888574435,0.0010611081591807305
1773790759345122300,7.190122314453125,0.03771276780068874,0.005891839084145613,0.0006176204416900873
1773790759365085400,7.21008544921875,0.041750645014643664,0.007686389784142374,-0.0021646306879818437
1773790759385049300,7.23004931640625,0.03980535616576671,0.0009726124583976343,0.00490802937829867
1773790759405012500,7.250012451171875,0.055065469139814374,0.007910234268428757,0.01520381620954722
1773790759424976400,7.269976318359375,0.03695873456299305,-0.01379652496119961,-0.008386135551333426
1773790759444939300,7.289939208984375,0.03755611593425274,0.0027709031851729377,-0.0052245297152549025
1773790759464903400,7.3099033203125,0.03486147002279758,0.008191494328645058,-0.006100636696349829
1773790759484866300,7.3298662109375,0.04249649494588375,0.0046769423024728895,0.0024427535096183416
1773790759504830500,7.34983056640625,0.04234393473267555,0.009930917307920754,0.0006228263397701085
1773790759524793300,7.36979345703125,0.03920212957561016,0.000940924978768453,0.012422387063782661
1773790759544757200,7.38975732421875,0.031869302469491954,-0.002536843267548829,-0.0023435674514621493
1773790759564720400,7.409720458984375,0.045184711116552354,0.012320479325577616,0.0009052052114158868
1773790759584684300,7.429684326171875,0.034112697482109065,-0.0010088345492491498,-0.005576923349499702
1773790759604647400,7.4496474609375,0.029324878683686256,0.008216898197960109,0.0038149734445847567
1773790759624611300,7.469611328125,0.039350013613700864,0.006632761678518727,-0.0040845293672755354
1773790759644574500,7.489574462890625,0.038456279644370074,0.003936490065557882,-0.0017344773760996758
1773790759664538400,7.509538330078125,0.041000118908286094,0.01274578293240629,-0.0066783452527597546
1773790759684501500,7.52950146484375,0.04219663521647453,-0.008792506128828972,0.00980654200958088
1773790759704465400,7.54946533203125,0.04234510377645492,-0.0013361028753919525,0.003890157572645694
1773790759724428300,7.56942822265625,0.031871056035161015,0.0009800696790684014,-0.0015034998981282115
1773790759744392400,7.589392333984375,0.04024959280192852,-0.00370991476806812,0.007189674042072147
1773790759764356400,7.6093564453125,0.04040098397135734,-0.0013071873081615193,-0.006659165628254414
1773790759784319500,7.629319580078125,0.024690789142251014,0.012681330260913818,0.011500084587093442
1773790759804283400,7.649283447265625,0.04175122953653335,-0.0058270713188219815,0.006314352512266487
1773790759824246500,7.66924658203125,0.04414309310913086,0.0042979848882881925,0.00045629240013659
1773790759844210400,7.68921044921875,0.032472529059648515,0.0009378060064977034,-0.007265771485585719
1773790759864173300,7.70917333984375,0.0427992772847414,-0.004755514830863103,0.0016346885297447442
1773790759884137500,7.729137451171875,0.03980535616576671,0.007808130167401396,0.005065156168770045
1773790759904099800,7.749099853515625,0.03232347597777843,0.0021606120999902484,-0.015300591114908457
1773790759924064000,7.76906396484375,0.031575287958979605,0.004162928365729749,0.012663137017097323
1773790759944027000,7.78902685546875,0.03935761239826679,0.008177817429741843,0.003350278542283922
1773790759963991000,7.808990966796875,0.031577626046538354,0.00015250541428104043,-0.00841126999258995
1773790759983954000,7.828953857421875,0.03337444633543491,0.004166531395190395,0.006366137498430908
1773790760003917800,7.848917724609375,0.03502221354246139,-0.0038210743918083608,-0.009119381729327141
1773790760023881000,7.868880859375,0.03756546828448772,0.0028771994041278956,0.011173830041103065
1773790760043844900,7.888844970703125,0.04908697925209999,-0.0003209481832105666,-0.015265738997235894
1773790760063808000,7.90880810546875,0.04909048638343811,0.0035445544387912374,0.006571761339437216
1773790760083772000,7.92877197265625,0.04011398372352123,0.003699493838753551,0.015184052063152194
1773790760103735000,7.948735107421875,0.02694879720211029,0.005650874501699581,0.006096106651704758
1773790760123699000,7.968698974609375,0.036976854741573334,0.000561113614635542,0.009595328678004443
1773790760143662000,7.988662109375,0.04924655372798443,-0.00437157528088428,-0.003998056660220027
1773790760163626000,8.0086259765625,0.03428513143956661,0.011915474154683761,0.0023371011780574918
1773790760183588900,8.0285888671875,0.049099838733673094,-0.0012161982561927289,0.001688336679432541
1773790760203553000,8.048552978515625,0.03982581443190574,-0.0018966000020969659,-0.007290029144007712
1773790760223516000,8.068515869140626,0.04072422457635402,0.007794476101384498,0.0021188005185686053
1773790760243480000,8.08847998046875,0.024414894810318947,-0.004911627841182053,-0.001763392943330109
1773790760263443000,8.10844287109375,0.04730769461989402,-0.0026873028552159665,-0.003623834786657244
1773790760283406800,8.12840673828125,0.05000058696568012,-0.002033236560388468,-0.002867189466767013
1773790760303370000,8.148369873046875,0.03593406769037247,0.0013088449757080525,-0.008699567148368805
1773790760323334000,8.168333984375,0.036683424752950666,-0.004727471479889936,-0.009317205856367946
1773790760343297000,8.188297119140625,0.03458849830031395,-0.0005983814516803249,0.007446589678898453
1773790760363261000,8.208260986328124,0.04311842623651027,0.01734433080300223,-0.0031423531463369726
1773790760383224000,8.22822412109375,0.04117255286574364,-0.0008244407259393483,-0.01436933814678341
1773790760403188000,8.24818798828125,0.042218262526392936,-0.00012247560219839215,0.008492829062510282
1773790760423151000,8.268151123046875,0.03204524355828762,0.007360432065674103,0.00013043971294537186
1773790760443115000,8.288114990234375,0.04895779991447925,-0.001715201853471808,0.0013535700334236025
1773790760463078100,8.308078125,0.044019758990406985,0.0018281424423446878,-0.005981394230853766
1773790760483042000,8.3280419921875,0.04177870206534862,-0.001969404943403788,0.006591689882613718
1773790760503005000,8.3480048828125,0.03833411456942558,-0.010298024454107508,0.0025265776018612083
1773790760522969000,8.367968994140625,0.04341945500969886,0.007299874684587121,0.006795432293787598
1773790760542933000,8.38793310546875,0.0390782109349966,0.0011081530381459742,0.00026800328642129895
1773790760562896100,8.407896240234376,0.041323359513282774,-0.007765587933617643,0.022854623223654925
1773790760582860000,8.427860107421875,0.050152562656998634,0.00816957475778181,-0.005873221148643642
1773790760602823000,8.447822998046876,0.045962125229835504,0.005487496066954918,-0.00795598223945126
1773790760622787000,8.467787109375,0.0506026445120573,-0.008246937143197283,0.0009970482133328914
1773790760642750000,8.48775,0.029355273821949957,0.0039123602712992575,-0.0014726298358291386
1773790760662714000,8.507714111328125,0.045668695241212844,0.001130533833312802,-0.0039794432912953195
1773790760682676700,8.5276767578125,0.0510556489765644,0.006656064922292717,0.0017161380018107593
1773790760702641000,8.547640869140626,0.03639291737377643,-0.006879799808724783,-0.002538542034290731
1773790760722603800,8.567603759765625,0.046268999221920966,0.0002966905247885734,0.005700275734532624
1773790760742568000,8.58756787109375,0.03773848676383495,-0.0005216538205044344,-0.00534075823975727
1773790760762530800,8.60753076171875,0.05524491735994815,0.0013153249488444998,-0.005868015250563621
1773790760782495000,8.627494873046874,0.037736148676276206,-0.004768958834325894,0.005118767785839736
1773790760802457900,8.647457763671875,0.03070493486523628,0.0072086801366414875,0.00022805486852303146
1773790760822422000,8.667422119140625,0.04641688326001167,0.012870235862559639,-0.010398443488124758
1773790760842385000,8.687385009765626,0.030406828701496122,-0.00004116769402753562,0.012472290620114653
1773790760862348800,8.707348876953125,0.0380371774494648,-0.006215349117200821,-0.0006306808526627719
1773790760882312000,8.72731201171875,0.03863514334261417,-0.0035453216237714513,-0.00433393755108118
1773790760902276900,8.74727685546875,0.04701368010938167,-0.006376558427745476,0.0036623218998312946
1773790760922239700,8.76723974609375,0.04417115015983581,0.0028994523351313544,-0.006551851062569767
1773790760942203600,8.78720361328125,0.047911505731940265,0.000603820245200768,-0.0003698196930810809
1773790760962166800,8.807166748046875,0.04925707512199878,-0.002976988250482827,-0.012142127083986997
1773790760982130700,8.827130615234376,0.047160979625582695,0.0023247303202515467,-0.0002988002834841609
1773790761002093800,8.84709375,0.04581365666985512,-0.0003170802922686562,-0.003107044370938092
1773790761022057700,8.8670576171875,0.03474105851352215,-0.003915191549202427,0.00045651159584522244
1773790761042020900,8.887020751953125,0.047160979625582695,0.004792778101330623,-0.0009021912704221904
1773790761061984800,8.90698486328125,0.03847966051995754,0.005155008143000304,0.010554602164216338
1773790761081948000,8.926947998046876,0.04820376667678356,-0.006528433654364198,-0.0021030732264742252
1773790761101911800,8.946911865234375,0.03473696686029434,-0.004658461364288814,0.011317037904076278
1773790761121874700,8.966874755859376,0.04117372190952301,-0.005818997610220685,-0.0073687204034067685
1773790761141837800,8.986837890625,0.031599253356456754,-0.012040881499485113,-0.005556099757179618
1773790761161801700,9.0068017578125,0.0342898076146841,0.003659298825683072,-0.005869348691124468
1773790761181764900,9.026764892578125,0.04551145885288715,0.0024607047248398884,-0.0074506630658172064
1773790761201728800,9.046728759765625,0.04625555521845817,0.009223106965282932,0.005739767494704574
1773790761221692000,9.06669189453125,0.04565642028152942,0.006483325004158541,0.008876786878798157
1773790761241655800,9.08665576171875,0.03712590782344341,0.0014766164577798917,0.0030879743442870674
1773790761261619000,9.106618896484376,0.03039163113236427,0.00124304059734568,0.0015964936775155366
1773790761281582800,9.126582763671875,0.047750177690386766,0.0006764242571080104,0.008431435997784138
1773790761301546000,9.1465458984375,0.03203998286128044,-0.0006883156243013218,0.0028212131668813524
1773790761321510000,9.166510009765625,0.03982055373489857,0.004894603641144931,-0.0006230090028606354
1773790761341472500,9.186472412109374,0.016776947277784348,-0.007583185137994587,-0.0016714220772497356
1773790761361437000,9.20643701171875,0.03129413293004036,0.0036990737136453388,0.010379446526709944
1773790761381399600,9.226399658203125,0.03847498434484005,0.0008646585718961432,-0.012884342019725591
1773790761401364000,9.246364013671876,0.04131634525060653,-0.01196972965914756,-0.0014433306761085986
1773790761421326600,9.26632666015625,0.03218728237748146,0.002367957540624775,-0.006210106686502695
1773790761441290800,9.286290771484374,0.03398234910070896,0.0007656962760258466,0.0029327837825752793
1773790761461253600,9.306253662109375,0.037573067069053646,0.0072573415839578955,0.011744268606510013
1773790761481217800,9.3262177734375,0.0383200860440731,0.0098254887386458,0.0030596615652553737
1773790761501180700,9.3461806640625,0.04101180934607982,0.008266970717650838,-0.01208429594952613
1773790761521144600,9.36614453125,0.043701779082417486,-0.004359304887778126,0.008845332294609397
1773790761541107700,9.386107666015626,0.027841362127661702,0.009445969635457732,-0.0022416231806389984
1773790761561071600,9.406071533203125,0.038764907202124596,0.0006066104239085689,-0.010753942394908516
1773790761581034800,9.42603466796875,0.04415127641558647,0.008708216245705261,-0.000281410757265985
1773790761600998700,9.44599853515625,0.03607143033444881,-0.0007643582688877359,0.006538717586360872
1773790761620961800,9.4659619140625,0.04160919071733951,0.007011061505577527,-0.001432882347330451
1773790761640925700,9.48592578125,0.049240123987197876,-0.010537125873030163,0.007525500134006142
1773790761660888600,9.505888671875,0.04101122482419014,0.0012853408025344834,0.007168119797389954
1773790761680852700,9.525852783203124,0.0320329685986042,-0.004801523096789605,-0.013935586372017859
1773790761700815600,9.545815673828125,0.0541799184769392,0.011443385963793844,0.0011195968807674944
1773790761720779800,9.56577978515625,0.045050855603814124,0.006874479746213183,0.0012973646004684268
1773790761740742700,9.58574267578125,0.03502747423946857,0.006400633423076943,-0.017213165004272012
1773790761760706600,9.60570654296875,0.039516602352261544,-0.0064138947634492065,0.007204086159914732
1773790761780669700,9.625669677734376,0.042355040648579596,0.003698018834297545,-0.0027784882700070735
1773790761800633600,9.645633544921875,0.043698271951079365,0.011994064949383028,-0.006054934391099959
1773790761820596700,9.6655966796875,0.039806525209546084,0.005328939937800169,-0.009131364428065716
1773790761840560600,9.685560546875,0.03412146531045437,-0.002052050858712755,-0.008276610762253403
1773790761860523800,9.705523681640624,0.029631168153882025,-0.0038514740966493263,0.0027119623724371194
1773790761880487700,9.72548779296875,0.04713759874999523,0.007288234479143283,0.0016090426318347453
1773790761900450800,9.745450927734375,0.03621288463175296,0.011159801515750587,-0.0021280798035673795
1773790761920414700,9.765414794921876,0.03980301807820797,-0.001690254641883075,0.004746628271508961
1773790761940377600,9.785377685546875,0.03995148663818836,-0.0034825677190208804,0.005259089571982622
1773790761960341800,9.805341796875,0.039052491971850394,0.007699915985995903,0.006225925310142338
1773790761980304600,9.8253046875,0.03471124789714813,-0.008474033030495046,-0.0016215002546086906
1773790762000267800,9.845267822265624,0.04354045104086399,0.0010127252730773762,-0.004657525215949863
1773790762020231700,9.865231689453125,0.03486322358846664,0.004866957582393661,0.008580525612272322
1773790762040194800,9.88519482421875,0.04114683390259743,0.0015633677260484546,0.011601517401263117
1773790762060158700,9.90515869140625,0.0336626156270504,-0.012009130087774246,0.002707140066847205
1773790762080121900,9.925121826171875,0.03620411680340767,0.004174760367418639,-0.00421809261906892
1773790762100085800,9.945085693359376,0.04877309099733829,-0.0003163039741339162,0.008073379807732999
1773790762120048600,9.965048583984375,0.03784896140098572,0.001272933412110433,0.004193908025883138
1773790762140012800,9.9850126953125,0.03740121763348579,-0.003556678701424971,0.0054842400973662735
1773790762159975700,10.0049755859375,0.03545709782838821,-0.0028030153564875945,0.0062350219320505855
1773790762179939800,10.02493994140625,0.0502718051224947,-0.0005769231051206588,-0.003055606444645673
1773790762199902700,10.04490283203125,0.0442851319283247,0.008505167954275384,0.0009983451212756335
1773790762219867000,10.064866943359375,0.030517887860536573,0.006724705145135522,0.005651175895798951
1773790762239829800,10.084829833984376,0.04563070131838321,-0.0016488723187241703,-0.005693517200183123
1773790762259793700,10.104793701171875,0.027376082703471184,0.011797820858075283,-0.008294767473451793
1773790762279756800,10.1247568359375,0.04129296437501907,0.005423002296267077,-0.004091123504843562
1773790762299720700,10.144720703125,0.030970892325043676,-0.005722044608346186,-0.0008232260163873433
1773790762319683800,10.164683837890625,0.04279284754395485,0.004729348343145102,0.0057321687101386486
1773790762339647700,10.184647705078126,0.02842880662679672,-0.005875481604388915,-0.007196962299384177
1773790762359611000,10.20461083984375,0.04459259044229984,0.0015712085392093286,-0.006411620607972145
1773790762379574800,10.22457470703125,0.033522330373525616,0.011310891291080042,-0.0011851363976486027
1773790762399538000,10.244537841796875,0.02798573903441429,0.003466173706646077,-0.0028443200478330253
1773790762419500800,10.264500732421874,0.03501987545490265,0.0019409506004769354,-0.0005696348478086293
1773790762439464700,10.284464599609375,0.04130348576903343,-0.009285271781566552,0.001995283736754209
1773790762459427800,10.304427734375,0.044296237844228745,-0.0013468936974648385,-0.0026651275560259815
1773790762479391700,10.324391845703126,0.0430997215360403,-0.0004162069849204272,0.0011924063886515795
1773790762499355000,10.34435498046875,0.028734511575102803,0.0026460940619930625,-0.010953355690836906
1773790762519318800,10.36431884765625,0.0429518374979496,0.00726952521209605,0.005734999988041818
1773790762539282000,10.384281982421875,0.04594634313881397,-0.010169520969921722,-0.0009013692865148187
1773790762559245800,10.404245849609374,0.03861351603269577,0.0058776689948979765,-0.0017865180905908345
1773790762579209000,10.424208984375,0.029783143845200536,0.0057988087721401824,-0.0030842480172403154
1773790762599172900,10.4441728515625,0.03965922569334507,-0.0037814730337820943,-0.0080180328913033
1773790762619135700,10.4641357421875,0.03861351603269577,0.009557234290475025,0.009091580406948924
1773790762639100000,10.484099853515625,0.04055822035968303,0.01127251834233757,0.0019234788758680224
1773790762659062800,10.504062744140626,0.036515666970610615,0.007948497619316913,-0.001446910872682929
1773790762679027000,10.52402685546875,0.031277766317129134,-0.004769936081860215,0.000021663842536509035
1773790762698989800,10.54398974609375,0.0456400536686182,0.006293720716191455,-0.006426215388905257
1773790762718953700,10.56395361328125,0.03666179744303226,-0.011432243515271693,0.000590695902146399
1773790762738916900,10.583916748046875,0.03456394838094711,-0.0016332409247523173,0.004340093297231942
1773790762758880000,10.6038798828125,0.032169746720790864,0.008460849321936257,0.0041645540672354394
1773790762778844000,10.623843994140625,0.04413958597779274,0.004989976607286371,0.010228822542261332
1773790762798806800,10.643806884765626,0.03366436919271946,0.008634986612712964,-0.002920892415381968
1773790762818771000,10.66377099609375,0.048480830052495,0.0022129268091171978,-0.007928089585527777
1773790762838733600,10.683733642578124,0.04668634785115718,0.00764336805974599,-0.00465993636874482
1773790762858698000,10.703697998046875,0.03695990360677242,0.0035075194971868765,-0.007183792290557175
1773790762878660600,10.72366064453125,0.03950491191446781,0.00198359786553774,-0.006178323308750987
1773790762898625000,10.743625,0.049831660139560696,0.004252296282770112,0.0028752814416773617
1773790762918587000,10.7635869140625,0.04384732503294945,0.0024993745011044665,-0.007079108073376118
1773790762938551000,10.783551025390626,0.03756371471881866,0.003658814768493175,0.0054457895168103275
1773790762958514000,10.803513916015625,0.04459668209552765,0.007656542635150253,0.005251636917889118
1773790762978478000,10.82347802734375,0.04354688078165054,0.0017780288234585896,-0.006340582932066172
1773790762998441000,10.84344091796875,0.028732758009433746,0.00035227033665869383,0.008596764361020177
1773790763018403800,10.86340380859375,0.035167759492993354,0.008661262698285281,-0.003421681544370949
1773790763038368000,10.883367919921875,0.04579144483804703,0.004519628282333724,0.015490542462747543
1773790763058331000,10.903330810546874,0.04130231672525406,0.010030797485820949,0.009171258047036826
1773790763078294800,10.923294677734376,0.03831073369383812,0.005977736402465962,-0.00018213336756452917
1773790763098257700,10.943257568359375,0.045344285592436785,0.002785529932146892,-0.006171181181911379
1773790763118221800,10.963221923828126,0.03636719841063022,0.00021344638785813003,0.0002316898640245199
1773790763138184700,10.983184814453125,0.03322597777545452,0.005860078539280221,0.002566982677485794
1773790763158148900,11.00314892578125,0.03876256911456585,0.0017056029080646112,0.0006616787791252136
1773790763178111700,11.02311181640625,0.05701777225136757,0.00829716492651496,0.008120762613415718
1773790763198075600,11.04307568359375,0.026490532040596006,0.007215059645078145,0.0019967998404055833
1773790763218038800,11.063038818359376,0.04385024764239788,0.00009369703228585421,-0.007621288658678531
1773790763238002700,11.083002685546875,0.03906242884397507,0.00030755441209767015,-0.0046216319186612965
1773790763257965800,11.1029658203125,0.03397358127236366,0.003922278877114877,-0.000695361853018403
1773790763277928700,11.1229287109375,0.028586627537012098,0.0169481025936082,-0.006682108112424611
1773790763297892900,11.142892822265624,0.033521745851635934,-0.003946728331781923,-0.004612115171644836
1773790763317855700,11.162855712890625,0.04354688078165054,0.009098211077135055,0.0037227285838685926
1773790763337820000,11.18281982421875,0.05372282235920429,-0.018305138659174554,0.0016165135522373019
1773790763357782800,11.20278271484375,0.03890928410887718,0.0044862329028081144,0.0006675787969492376
1773790763377747000,11.222746826171875,0.03726210142374038,0.02083359769086819,0.0029642018341459334
1773790763397709800,11.242709716796876,0.03636427580118179,0.0160475370246917,-0.002716273221373558
1773790763417673700,11.262673828125,0.0471387677937746,-0.0022611589981708672,-0.006476648668199777
1773790763437636900,11.282636962890624,0.025443653336167334,0.007337873173994012,-0.00764673362718895
1773790763457600800,11.302600830078125,0.04145370789468288,0.004696240657987073,0.004062920323666185
1773790763477564000,11.32256396484375,0.04175122953653335,-0.0037592657685512672,0.004256652797479182
1773790763497526800,11.34252685546875,0.04324409844279289,0.010357257527788169,-0.0005206811395473778
1773790763517491000,11.362490966796875,0.024389175847172737,-0.0076032780779525634,0.007435684692393988
1773790763537453800,11.382453857421876,0.042346272820234294,-0.002085665433946997,-0.001256265405099839
1773790763557418000,11.40241796875,0.03142214322388172,-0.008008182784146629,-0.0038030820773914454
1773790763577380900,11.422380859375,0.04593582174479961,0.00904752663609106,0.002089866685029119
1773790763597344800,11.4423447265625,0.04414250858724117,0.01055750650735572,0.0045349034832790494
1773790763617308000,11.462307861328124,0.043243513920903205,-0.004868619816517457,0.002648724410496652
1773790763637271800,11.482271728515625,0.03950315834879875,-0.004366775808180682,0.009324768108315765
1773790763657235000,11.50223486328125,0.038306057518720626,-0.0001642552175791934,-0.00024506080225110053
1773790763677197800,11.52219775390625,0.04698503853678703,-0.0066884784877067425,0.009060783409886062
1773790763697162000,11.542161865234375,0.04249357233643532,0.013182996172737329,0.004922916420176625
1773790763717124900,11.562124755859376,0.048479661008715626,0.0053449412245303385,-0.0015641988431103527
1773790763737089000,11.582089111328125,0.0362070394128561,0.013572977304435335,0.015459526269976048
1773790763757052000,11.602052001953124,0.032167408633232114,0.0033070376221789044,-0.006747428433597088
1773790763777015800,11.622015869140625,0.027081483671069145,-0.007252108286414295,0.008619615513645111
1773790763796979000,11.64197900390625,0.03920212957561016,0.004216603914881125,0.003853460557758808
1773790763816942800,11.66194287109375,0.03995207116007805,0.00811262953931,0.0028621844980865714
1773790763836906000,11.681906005859375,0.03800795135498047,0.0018590536038391291,-0.00289133752733469
1773790763856870000,11.701869873046874,0.03486556167602539,0.009461751726479268,-0.0044297626083716745
1773790763876833000,11.7218330078125,0.03501403023600578,0.011008341847662813,0.0038566023629158733
1773790763896795600,11.741795654296874,0.041896775487065316,-0.0004705583875067532,-0.005372614682745188
1773790763916760600,11.761760498046876,0.04443593857586384,-0.00019427132993005215,0.0025944552063010633
1773790763936723700,11.7817236328125,0.04114391129314899,-0.001573318297904916,0.010541012030281125
1773790763956687600,11.8016875,0.04638181194663048,0.0074279352107783775,-0.002673694454971701
1773790763976650800,11.821650634765625,0.03126782944500446,0.003461661928310059,-0.003497687656339258
1773790763996614700,11.84161474609375,0.04309036918580532,0.0010678940929938108,0.009443206856213509
1773790764016577800,11.861577880859375,0.038006197789311406,0.008259600261948071,-0.00891198605634272
1773790764036541700,11.881541748046875,0.03920212957561016,-0.011189073276007547,-0.004387896228022873
1773790764056504800,11.9015048828125,0.04249591042399406,0.0033892040468752383,0.00824195957398042
1773790764076467500,11.921467529296875,0.03800795135498047,0.0030661278386600313,0.005125581119116395
1773790764096431600,11.941431640625,0.03367079893350601,0.0007763090015854686,-0.00377995693013072
1773790764116394500,11.96139453125,0.03980769425332546,0.007731863760529085,-0.011460190968122333
1773790764136358400,11.9813583984375,0.03142915748655796,0.006983534177835099,0.005231105586513876
1773790764156321500,12.001321533203125,0.04115560173094272,-0.004031164345378056,-0.0010309139503166078
1773790764176285400,12.021285400390624,0.04549684580564499,0.011430092657380736,0.0043085656478069724
1773790764196248600,12.04124853515625,0.03951134165525436,0.0005438976183533668,0.006533986612316221
1773790764216211500,12.06121142578125,0.04519932416379451,0.008144454016257076,0.0031784108404070135
1773790764236175600,12.081175537109376,0.03442658573687076,0.01563581441864371,0.002679119548760354
1773790764256138500,12.101138427734375,0.03741933781206608,0.0037861355091677977,-0.005559223296027631
1773790764276102700,12.1211025390625,0.03906652049720287,0.003369010642217472,0.005596066441386938
1773790764296065500,12.1410654296875,0.050289340779185294,0.000762344408314675,-0.0034928105518221854
1773790764316029400,12.161029541015624,0.04714928918778896,0.003537604108196683,0.0030112010473385452
1773790764335992600,12.18099267578125,0.027247487887740132,-0.0005641047227429225,-0.0038667036318220196
1773790764355956500,12.20095654296875,0.033681904849410055,0.01329513304401189,-0.00877933612000197
1773790764375919600,12.220919677734376,0.034730537119507784,0.011274162310152314,-0.0015240677621215582
1773790764395882500,12.240882568359375,0.038922728112339974,0.0037724631768418474,-0.002229311688337475
1773790764415846700,12.2608466796875,0.041915480187535284,0.0018975544167449698,-0.0008582242645323276
1773790764435809500,12.2808095703125,0.04266249916255474,-0.0011435166124720126,0.0004249656801111996
1773790764455773700,12.300773681640624,0.038921559068560596,0.0022803112232126295,-0.008859689613524823
1773790764475736600,12.320736572265625,0.03413607835769653,0.008931640604883433,0.0073506732900626955
1773790764495700500,12.340700439453125,0.055233226922154426,0.0037367662423755973,-0.004846709378808736
1773790764515663600,12.36066357421875,0.03832067056596279,-0.006648132777586579,0.004148187454324216
1773790764535626800,12.380626708984375,0.0377232891947031,-0.00008639964181929827,0.0054500820994377135
1773790764555590700,12.400590576171876,0.047747839602828024,-0.004282207363843917,-0.000768061763048172
1773790764575553500,12.420553466796875,0.04325929601192474,0.007936145027820021,-0.011557659993227571
1773790764595517700,12.440517578125,0.04236380847692489,-0.001102814709325321,-0.00013400164321064948
1773790764615480600,12.46048046875,0.05957213290929794,0.011176469522761181,0.0019762502427212894
1773790764635444700,12.48044482421875,0.033086277043819425,0.014565942997694946,0.004379785986803472
1773790764655407600,12.50040771484375,0.040568741753697395,-0.0009230376956285908,-0.004904577045887709
1773790764675370800,12.520370849609375,0.038622868382930754,0.003442619301122613,-0.0032341778819449246
1773790764695334700,12.540334716796876,0.04101882360875606,0.006692497075698338,-0.0021010273998603225
1773790764715297800,12.5602978515625,0.03982113825678825,0.000023371742432937025,-0.0032834603837691247
1773790764735261700,12.58026171875,0.03847498434484005,0.0022491534665459766,0.007451649446506053
1773790764755224800,12.600224853515625,0.039521278527379036,-0.0032608740926254537,0.0031620442274957893
1773790764775188700,12.620188720703124,0.037725627282261844,0.018785990111832507,0.007838602937478572
1773790764795151600,12.640151611328125,0.05074468333125114,0.007047173998574726,-0.00130542004276067
1773790764815115800,12.66011572265625,0.03174421478509903,0.0038705897890729825,0.001090626514609903
1773790764835078700,12.68007861328125,0.03548573940098285,0.0022381799813825636,-0.019887115187570453
1773790764855041500,12.70004150390625,0.03144669314324856,0.007453320813784375,-0.00018483678130432963
1773790764875005700,12.720005615234374,0.05523907214105129,-0.0011588055131491273,0.010169657967239617
1773790764894968600,12.739968505859375,0.04865209496617317,-0.008769791973521932,-0.006741912008263171
1773790764914932200,12.75993212890625,0.04131809881627559,0.0123969101292314,0.004091287901625037
1773790764934895400,12.779895263671875,0.048801148048043246,0.004426826299191452,0.00023570845201611518
1773790764954859300,12.799859375,0.04566343454420566,0.00886018737044651,0.0007849580989219248
1773790764974822400,12.819822509765626,0.04312134884595871,-0.005997413783892989,-0.002029697463009506
1773790764994785300,12.839785400390625,0.03264671658277511,0.0032241999106248837,-0.006043335284851491
1773790765014749200,12.859749267578126,0.0332440979540348,0.008578493485390208,-0.003739223060943186
1773790765034712300,12.87971240234375,0.06361877795159816,0.005333250786736608,-0.004718315492477268
1773790765054676200,12.89967626953125,0.028154081338644027,0.007795448782341554,0.0046059046265669165
1773790765074639400,12.919639404296875,0.040725978142023084,-0.0036322692548623305,0.002687339387834072
1773790765094602200,12.939602294921874,0.05493862788975239,0.005846483838767744,-0.0006355944897979498
1773790765114566400,12.95956640625,0.03787818749547005,-0.0049522795119788495,-0.0025524609617888928
1773790765134529300,12.979529296875,0.04147065902948379,-0.0024892321330029516,-0.006833207020908593
1773790765154493400,12.999493408203126,0.03922726401686668,-0.005296361975604668,-0.0014951156622730194
1773790765174456300,13.019456298828125,0.029201544564962385,0.0015316893795737996,0.004505220731068402
1773790765194420200,13.039420166015624,0.029053076004981995,0.005449141384521499,0.0019422749078832565
1773790765214383000,13.059383056640625,0.03713233756422996,0.0037894554108381267,0.0030669315562583503
1773790765234346200,13.07934619140625,0.02979951045811176,0.003266020625201054,0.006358648311719298
1773790765254310100,13.09931005859375,0.04596154070794582,0.007264154917234554,-0.006551577067933976
1773790765274273300,13.119273193359374,0.03129588649570942,-0.0019462112974841146,0.012031889908853918
1773790765294237200,13.1392373046875,0.0357844300866127,0.01182168122427538,-0.001419273947086185
1773790765314200000,13.159199951171875,0.04416472041904926,0.008003671005810611,0.006153024470712989
1773790765334163200,13.1791630859375,0.05224690458774566,-0.009577391162514687,0.0019121537642553448
1773790765354127000,13.199127197265625,0.026809096470475195,0.0071008084485307335,-0.004526153921242803
1773790765374090200,13.21909033203125,0.04506546865105629,0.009845115887722931,-0.005602094323374331
1773790765394054100,13.23905419921875,0.036384149545431135,0.005245211743679828,-0.004470660874340683
1773790765414017300,13.259017333984374,0.04057341792881489,-0.009389955998747609,0.0031327268014661965
1773790765433981200,13.278981201171876,0.04012450511753559,0.005408754575205966,0.006584365092683583
1773790765453944300,13.2989443359375,0.04222060061395168,0.009365483711194247,-0.003373531553708017
1773790765473907200,13.3189072265625,0.03503624206781387,0.005527955941506661,-0.011409337563719599
1773790765493871000,13.33887109375,0.026805004817247388,0.00594926835980732,-0.00015261501213535665
1773790765513834200,13.358834228515626,0.034434769043326374,0.01220403617194388,-0.01039278093231842
1773790765533798100,13.378798095703125,0.042815643897652626,0.012897301965998484,0.012304459772538393
1773790765553761300,13.39876123046875,0.044460488495230675,0.011798460178892127,0.010162735036108643
1773790765573724200,13.41872412109375,0.04850070379674434,0.0006681633188389242,0.0038300248832441866
1773790765593688300,13.438688232421875,0.03817454009354114,-0.0014793061717879026,-0.000048350920062512156
1773790765613651200,13.458651123046875,0.05343816019892692,0.005090678769093938,-0.0005097944193519652
1773790765633615400,13.478615478515625,0.03218903594315052,-0.0032013624577317385,-0.0006074095749296248
1773790765653578200,13.498578125,0.041916649231314655,0.0022667210892774164,-0.0001102919740602374
1773790765673542100,13.518542236328125,0.04132043690383434,0.007196533041121438,-0.005583901079557836
1773790765693505300,13.53850537109375,0.03682955522537231,0.008991015242459252,0.00536324406620115
1773790765713468400,13.558468505859375,0.035781507477164264,0.009007980076991953,-0.0082357490289025
1773790765733432300,13.578432373046875,0.05343932924270629,-0.0016040513628860934,-0.005114347339048982
1773790765753395200,13.598395263671875,0.03802314892411232,-0.006685418880940415,0.0050562422099523245
1773790765773359400,13.618359375,0.0365296954959631,0.0019426265343325212,0.005094473594799638
1773790765793322200,13.638322265625,0.05029810860753059,0.009558010608609765,-0.0042638314569368955
1773790765813285400,13.658285400390625,0.04057107984125614,-0.0017013742575189097,-0.0036263920699246225
1773790765833249300,13.678249267578124,0.0371305839985609,-0.005836935125710443,0.01245923020914197
1773790765853212400,13.69821240234375,0.03847498434484005,0.011702466158242896,0.004627349273394793
1773790765873176300,13.71817626953125,0.0365296954959631,0.004500599354878068,0.007025551255233586
1773790765893139500,13.738139404296875,0.03532908753454685,0.010968530427082441,-0.0038775538193993268
1773790765913102000,13.75810205078125,0.03981821564733982,-0.0034047441093018275,-0.0016344145351089537
1773790765933066200,13.778066162109376,0.046399932125210756,-0.0019018424327950925,-0.003327208193950355
1773790765953029000,13.798029052734375,0.048346390017867086,0.002198487291811034,0.006377955800388008
1773790765972993000,13.817992919921876,0.029492051944136618,0.01584457093165256,-0.002711432649474591
1773790765992956200,13.8379560546875,0.029492051944136618,0.0016568729620892553,0.004631879318039864
1773790766012919300,13.857919189453124,0.03517535827755928,0.001694031201279722,-0.002726374490279704
1773790766032883200,13.87788330078125,0.03801788822710514,0.00027250593160279093,0.00565954186534509
1773790766052846000,13.89784619140625,0.046847091370821,0.0021812667289515955,-0.0025559315605089067
1773790766072810200,13.917810302734376,0.043106735798716544,0.007865564009640365,0.007672909248061478
1773790766092773000,13.937773193359375,0.04490297156572342,0.002979458768782206,-0.004295669633615762
1773790766112736300,13.957736328125,0.03682371000647545,-0.0025474605596857145,0.00925162980686873
1773790766132700200,13.9777001953125,0.044453474232554434,0.011825713511998764,0.012181673643086106
1773790766152663300,13.997663330078124,0.036221067938208576,0.0029181068032514304,-0.008372216623835265
1773790766172627200,14.017627197265625,0.030984336328506466,-0.0006808903696713969,-0.009756126996595412
1773790766192590300,14.03759033203125,0.04220540304481983,0.005291019080206752,-0.004139401359669864
1773790766212553200,14.05755322265625,0.050287002691626545,0.00875065344821196,-0.007737151856999844
1773790766232517000,14.07751708984375,0.0499883120059967,0.0025719511135481295,0.0029302447656169533
1773790766252480300,14.097480224609376,0.03966156378090381,0.007979943070351147,-0.0016184680473059416
1773790766272444200,14.117444091796875,0.03337386181354522,0.0014434037413448095,-0.006248064076714218
1773790766292407300,14.1374072265625,0.03202712337970733,0.0024739112662849946,0.0015570932488888501
1773790766312371200,14.15737109375,0.055368251478672026,0.002480130944517441,0.009127510236855596
1773790766332334300,14.177334228515624,0.03950725000202655,-0.0029197142384480685,-0.0008409808687865734
1773790766352297200,14.197297119140625,0.03890811506509781,0.00655271871224977,0.007899429746624081
1773790766372261400,14.217261474609375,0.026790976291894912,0.01082440468207933,-0.006631145110167562
1773790766392224300,14.237224365234376,0.04714461301267147,-0.0021109231727896257,0.005295275130216032
1773790766412187400,14.2571875,0.04415069189369678,0.006400464459718204,0.0008620236568152904
1773790766432151300,14.2771513671875,0.04295534462928772,0.004153265488240868,-0.0035163740905001756
1773790766452114400,14.297114501953125,0.04400280785560608,-0.005511178336641751,0.004454787451773881
1773790766472078300,14.317078369140624,0.03801671918332577,0.007854718388640321,0.005950451103318482
1773790766492041500,14.33704150390625,0.02963525980710983,0.001745820754021406,0.00005187631770968437
1773790766512004000,14.357004150390624,0.03711713999509811,0.010565612181997858,-0.008126936625875531
1773790766531968300,14.37696826171875,0.045646483409404755,0.00814378272939939,0.0037164084409363565
1773790766551931100,14.39693115234375,0.04100771769285202,-0.0063672289103968065,-0.000046980946883559226
1773790766571895300,14.416895263671876,0.05342880784869194,0.002922056892584078,0.0020645313143730164
1773790766591858200,14.436858154296875,0.04415302998125553,-0.00044506775322370227,0.004835694794449955
1773790766611821000,14.456821044921876,0.029487375769019126,0.0012622887205099686,-0.00675122782588005
1773790766631785200,14.47678515625,0.03308043182492256,0.0004985789055936039,0.003505505636613816
1773790766651748000,14.496748046875,0.039967268729209894,0.003709321113023907,-0.0017314086361788212
1773790766671712300,14.516712158203125,0.02784720734655857,-0.001196402143756859,-0.0037193858493119476
1773790766691675100,14.536675048828124,0.04550444459021091,-0.0033027907053241505,0.005568301651626825
1773790766711638300,14.55663818359375,0.06002221476435661,0.009044403097243048,0.012103840900212525
1773790766731602200,14.576602294921875,0.043860769036412235,0.0015870682620443403,-0.0038511772691272195
1773790766751565300,14.5965654296875,0.03682487905025482,-0.009121422989363782,0.0033101657276041804
1773790766771529200,14.616529296875,0.03817454009354114,0.013741068446915595,-0.007288330377265811
1773790766791492000,14.6364921875,0.03937222544550895,-0.004868199691409245,-0.002072422359883785
1773790766811455200,14.656455322265625,0.040271804633736606,0.0014698853228939696,-0.009892649390455335
1773790766831419100,14.676419189453124,0.03712883043289184,0.003238100571813993,-0.003133183459192514
1773790766851382300,14.69638232421875,0.05328793807327747,0.0012068139399169012,-0.006457487310003489
1773790766871346200,14.71634619140625,0.04041910414993763,0.00539809161729645,0.0074573850675486025
1773790766891309300,14.736309326171876,0.03787468036413193,0.0015822916222270576,0.005421878918260336
1773790766911272000,14.75627197265625,0.05193944607377052,-0.004311597855109721,0.00243815039973706
1773790766931235800,14.77623583984375,0.04281330581009388,0.013836199384462088,-0.003446322795283049
1773790766951198700,14.79619873046875,0.038921559068560596,0.008441304371249861,-0.005330784835014492
1773790766971163000,14.816162841796874,0.04400689950883388,-0.00750413311899174,-0.007633746281452476
1773790766991125800,14.836125732421875,0.048943771389126776,0.0016078964209416881,-0.0048844475733116266
1773790767011089000,14.8560888671875,0.041457799547910686,0.002975577178108506,-0.00019506591437384486
1773790767031052800,14.876052734375,0.04265431585609913,-0.0042140146655729035,-0.0007573759722523391
1773790767051016000,14.896015869140625,0.03546995730996132,-0.0041132440051063895,0.0072082508783787485
1773790767070979800,14.915979736328126,0.03891045315265655,0.004314684861339628,0.008157441361993551
1773790767090943000,14.93594287109375,0.03337444633543491,-0.003805986420530826,0.001357880882360041
1773790767110905900,14.95590576171875,0.03112812871336937,-0.007191171879414469,-0.01445318050533533
1773790767130869800,14.975869873046875,0.04639057977497577,-0.0038756860892986875,0.0038432314246892928
1773790767150833000,14.9958330078125,0.040405660146474835,0.004421054145530797,0.0013904497114010153
1773790767170796800,15.015796875,0.037113632863759995,0.0055360616161488,0.005264624263625592
1773790767190760000,15.035760009765625,0.042346857342123984,0.00008111611192580313,-0.0023457411422394213
1773790767210722600,15.05572265625,0.038602410116791726,0.007627015146566554,-0.003420823027845472
1773790767230687000,15.07568701171875,0.039950902116298675,0.009242437286837957,0.0014425269585102796
1773790767250649600,15.095649658203126,0.04489245017170906,-0.004035721789486706,-0.00739741677492857
1773790767270613800,15.11561376953125,0.03725859429240227,0.004581911829626187,-0.0023960282910615205
1773790767290576600,15.13557666015625,0.04114858746826648,-0.0013633607750758528,-0.010900858318619429
1773790767310539800,15.155539794921875,0.045486908933520316,0.0052033362301765005,-0.001422762812115252
1773790767330503700,15.175503662109374,0.0480319172412157,-0.00044667518842034037,0.004208374942652881
1773790767350466800,15.195466796875,0.03620879297852516,-0.00007370912360493093,0.003664038932882249
1773790767370430700,15.2154306640625,0.04862988313436508,0.0014431662793271242,-0.00012698738053441047
1773790767390393900,15.235393798828126,0.04623217434287071,0.008202513479581102,-0.005221625372115522
1773790767410356700,15.255356689453125,0.042490649726986886,-0.0050311397347366435,0.001663257037103176
1773790767430320600,15.275320556640626,0.05715396585166454,0.001664106420474127,0.003166610804758966
1773790767450283800,15.29528369140625,0.041294133418798444,-0.0014048755289753898,0.00785803829031065
1773790767470247700,15.31524755859375,0.04069558300375938,0.002460567727521993,0.0021678272920660673
1773790767490210800,15.3352109375,0.044136663368344306,-0.000989819321525283,-0.003977981986571103
1773790767510173700,15.355173583984374,0.03785246853232384,0.007313702280540019,-0.006671897245664149
1773790767530137900,15.375137939453126,0.042941900625824925,0.006807040533190593,-0.003600910568796098
1773790767550100700,15.395100830078125,0.040997780820727345,0.007659337380435317,-0.000939710269216448
1773790767570064000,15.41506396484375,0.03201952459514141,0.0076570586583809925,-0.005580887138564139
1773790767590027800,15.43502783203125,0.046234512430429454,0.007857019943580961,0.0021155856481753286
1773790767609991000,15.454990966796874,0.04728022209107875,0.009632468650885857,-0.0037798655985854562
1773790767629954800,15.474954833984375,0.044889527562260625,-0.0009989068102790042,0.0007069792255759239
1773790767649918000,15.49491796875,0.0411480029463768,-0.003934197643771767,0.0025471454658545552
1773790767669880800,15.514880859375,0.04952595519125461,-0.010320903006196022,0.018324231518711893
1773790767689844700,15.5348447265625,0.034111528438329694,-0.0005030678510433063,0.0014643003989011048
1773790767709807900,15.554807861328126,0.04309036918580532,-0.0012370720808627083,-0.00006913797976449131
1773790767729771800,15.574771728515625,0.036955811953544616,0.000957465121615678,-0.006640095601603388
1773790767749735000,15.59473486328125,0.04398644124269485,0.001603343543410301,0.0010610350939445198
1773790767769697800,15.61469775390625,0.0324643457531929,-0.00014455500326585022,0.006808638835232705
1773790767789662000,15.634661865234374,0.03710135790407657,-0.000576850039884448,0.016749657412059603
1773790767809624600,15.65462451171875,0.020941081219911575,0.002232576791080646,-0.005403174217790365
1773790767829589000,15.674589111328125,0.041889176702499385,0.007215292540518566,0.01023313339119777
1773790767849551600,15.694551513671875,0.051315761217474935,0.00959720554125961,0.008766275709029287
1773790767869514800,15.7145146484375,0.03844809633791446,0.00455738930972293,-0.008490125648770481
1773790767889478700,15.734478759765626,0.03186345725059509,0.0015079249114962293,0.0006615326486527919
1773790767909442000,15.754442138671875,0.03725099550783634,-0.00009658310911618173,-0.0038590683146379886
1773790767929406000,15.774406005859374,0.026629063728451727,-0.003351972742448561,0.004250259589310735
1773790767949368800,15.794368896484375,0.03994797950685024,-0.006427137837512418,0.006020009208191185
1773790767969332000,15.81433203125,0.04054711444377899,0.0007283782066311687,0.004957878135703504
1773790767989295900,15.8342958984375,0.043837388160824775,0.0052786482224008065,-0.007704930087830871
1773790768009259000,15.854259033203125,0.037104280513525004,0.000896903173951432,-0.0005234393522143364
1773790768029222000,15.874221923828125,0.04368833507895469,0.004843179414584301,0.005427815468702465
1773790768049186000,15.89418603515625,0.04204173691570758,0.0014739632763899862,-0.0008550093941390514
1773790768069149000,15.91414892578125,0.02573357619345188,0.011434293908462859,-0.007381104960944503
1773790768089113000,15.934113037109375,0.05386369213461876,0.010777464834391138,0.004341536335647106
1773790768109076000,15.954075927734374,0.038598902985453605,-0.00006831142927985638,-0.010625402378104627
1773790768129039000,15.9740390625,0.03440671199262142,-0.0049864009772893035,-0.007502174057345837
1773790768149003000,15.9940029296875,0.04398351863324642,0.007222073907754384,0.0028783136489801105
1773790768168966100,16.013966064453125,0.03515431548953056,-0.0053425985703943295,0.0012538542523048818
1773790768188930000,16.033929931640625,0.04173661648929119,-0.00153410509894602,0.0005691964563913643
1773790768208893200,16.05389306640625,0.03545242165327072,0.0015263099515577777,0.011896335629373788
1773790768228856000,16.07385595703125,0.050265375381708145,-0.0011995804815320297,0.010463581146206706
1773790768248820000,16.093820068359374,0.046824879539012904,0.004177331350417807,0.0071192026217468075
1773790768268783000,16.113783203125,0.03530161500573158,0.013030102599388919,-0.00399679628489539
1773790768288746000,16.13374609375,0.032010172244906425,0.0010923207147745416,0.006270549903158098
1773790768308710100,16.153710205078124,0.0426338575899601,0.007011878922907635,-0.002698134776484221
1773790768328672800,16.1736728515625,0.04203296908736229,0.01148006927894894,0.004248834817204624
1773790768348637200,16.19363720703125,0.05056231250166893,0.0027723279572790488,-0.003079060385469347
1773790768368599800,16.213599853515625,0.040085926672816276,0.0037773265816271303,-0.0034900158065371213
1773790768388563000,16.23356298828125,0.05370236409306526,-0.0010332520378753542,-0.0006479607810266315
1773790768408526800,16.25352685546875,0.04023673332035541,0.01368506394336,0.0002788352076895535
1773790768428490000,16.273489990234374,0.04846563248336315,0.006818415877153166,0.001891220574080944
1773790768448454000,16.293453857421873,0.03739361884891987,0.004863217555615119,0.006789788004290312
1773790768468417000,16.3134169921875,0.0445768083512783,0.006433891805284656,0.0004842398529872298
1773790768488380000,16.3333798828125,0.02736789939701557,-0.0006263152047991752,-0.00292131254049018
1773790768508343800,16.35334375,0.034999417188763614,0.013818554129917174,-0.0005412855361588299
1773790768528307000,16.373306884765626,0.04322656278610229,-0.00394656393500045,0.013445921425241977
1773790768548270800,16.393270751953125,0.0483107341825962,-0.0005641275556292385,-0.011029325270187108
1773790768568234000,16.41323388671875,0.051154433175921436,0.004960156857757829,0.00586348520591855
1773790768588197000,16.433197021484375,0.03409691539108753,0.000272455699252896,0.009503686605487019
1773790768608161000,16.4531611328125,0.03469546580612659,0.007137898189062252,0.006637227791082114
1773790768628124000,16.4731240234375,0.036192426365613935,0.008599349043751136,-0.0040127975716255605
1773790768648087000,16.493087158203124,0.03768821788132191,0.007980815286608413,0.0053018327351659535
1773790768668051000,16.513051025390624,0.052801031339168546,0.0012462326348526402,0.008629753315169363
1773790768688014000,16.53301416015625,0.02661678876876831,0.01043006246909499,-0.012452709136810153
1773790768707978000,16.55297802734375,0.041129298245906824,-0.004918632970703766,-0.0030992081243544816
1773790768727941000,16.572941162109377,0.03469371224045753,0.003156600867398083,0.008636292653810232
1773790768747904000,16.592904052734376,0.03364741805791854,0.011614541279617696,0.0034684067629277703
1773790768767868200,16.6128681640625,0.03394727778732776,0.01095566181235481,-0.007903192606288939
1773790768787831000,16.6328310546875,0.03529460074305534,0.007689558988763019,-0.00010864800624549389
1773790768807795000,16.652794921875,0.038735681107640266,0.007414801734569482,0.00020394334057345986
1773790768827758000,16.672758056640625,0.04082943851649761,0.00245502846930176,-0.0052676930035464465
1773790768847721200,16.69272119140625,0.04726210191249847,-0.007018673989875242,0.011423914078343658
1773790768867685000,16.71268505859375,0.03708674485683441,0.0022431484174448998,-0.0069752641064114865
1773790768887648000,16.73264794921875,0.033494273322820664,-0.0004237053047865629,0.006344163128640503
1773790768907612200,16.752612060546873,0.03858019828498363,-0.0016213678238680585,0.008814809292182325
1773790768927574800,16.77257470703125,0.03334346667528152,0.0038235814427258446,-0.008527863843273371
1773790768947538000,16.792537841796875,0.03693710725307464,0.006106207920610904,0.012492748886253685
1773790768967501800,16.812501708984374,0.04726210191249847,0.0008705631562974304,-0.004564531436562538
1773790768987465000,16.83246484375,0.03723462889492511,0.008728044324181974,0.008855725824460387
1773790769007427800,16.852427734375,0.04905483054816723,0.008755388988833874,-0.004558101695775986
1773790769027392000,16.87239208984375,0.03528641743659973,0.007421473503950983,0.003470671785250306
