time,seconds_elapsed,z,y,x
1773790752219369200,0.064369140625,-0.9963226318359375,-0.0070037841796875,-0.019744873046875
1773790752239333000,0.0843330078125,-0.99505615234375,-0.0072479248046875,-0.0212860107421875
1773790752259297000,0.104297119140625,-0.99493408203125,-0.007720947265625,-0.021514892578125
1773790752279260200,0.12426025390625,-0.995452880859375,-0.0071258544921875,-0.021270751953125
1773790752299224000,0.14422412109375,-0.996978759765625,-0.0073394775390625,-0.020416259765625
1773790752319188500,0.1641884765625,-0.99578857421875,-0.0072021484375,-0.02056884765625
1773790752339151000,0.184151123046875,-0.9950408935546875,-0.0066375732421875,-0.019561767578125
1773790752359115300,0.204115234375,-0.996368408203125,-0.007598876953125,-0.021331787109375
1773790752379078100,0.224078125,-0.99566650390625,-0.00738525390625,-0.0202789306640625
1773790752399042000,0.2440419921875,-0.9961395263671875,-0.0068817138671875,-0.0206756591796875
1773790752419006500,0.26400634765625,-0.9957275390625,-0.00616455078125,-0.0200347900390625
1773790752438969000,0.283968994140625,-0.997100830078125,-0.0076904296875,-0.0212860107421875
1773790752458933200,0.303933349609375,-0.9956207275390625,-0.007415771484375,-0.0208587646484375
1773790752478897400,0.3238974609375,-0.9964752197265625,-0.0074462890625,-0.0211029052734375
1773790752498860300,0.3438603515625,-0.9959716796875,-0.0069580078125,-0.0203857421875
1773790752518824400,0.363824462890625,-0.99542236328125,-0.0060272216796875,-0.021270751953125
1773790752538788400,0.383788330078125,-0.995147705078125,-0.007415771484375,-0.0208892822265625
1773790752558751200,0.403751220703125,-0.9956207275390625,-0.0074920654296875,-0.019866943359375
1773790752578715400,0.42371533203125,-0.997314453125,-0.007080078125,-0.02130126953125
1773790752598679300,0.44367919921875,-0.9947052001953125,-0.007415771484375,-0.0213470458984375
1773790752618642400,0.463642333984375,-0.99462890625,-0.0076141357421875,-0.02105712890625
1773790752638606300,0.4836064453125,-0.9958343505859375,-0.0059967041015625,-0.0211181640625
1773790752658569200,0.5035693359375,-0.99530029296875,-0.0069122314453125,-0.019927978515625
1773790752678532400,0.523532470703125,-0.997222900390625,-0.006683349609375,-0.021270751953125
1773790752698496300,0.543496337890625,-0.995513916015625,-0.0068359375,-0.0214691162109375
1773790752718460400,0.56346044921875,-0.994659423828125,-0.00628662109375,-0.02081298828125
1773790752738423300,0.58342333984375,-0.9955291748046875,-0.0062255859375,-0.02130126953125
1773790752758387200,0.60338720703125,-0.99676513671875,-0.0073089599609375,-0.0214385986328125
1773790752778351400,0.623351318359375,-0.996673583984375,-0.0066070556640625,-0.0211944580078125
1773790752798314200,0.643314208984375,-0.9954071044921875,-0.00714111328125,-0.0207366943359375
1773790752818278400,0.6632783203125,-0.995269775390625,-0.00677490234375,-0.0202484130859375
1773790752838241300,0.6832412109375,-0.9967498779296875,-0.007720947265625,-0.0206146240234375
1773790752858205400,0.703205322265625,-0.9959564208984375,-0.007568359375,-0.0224609375
1773790752878169300,0.72316943359375,-0.996368408203125,-0.00592041015625,-0.0211944580078125
1773790752898132500,0.743132568359375,-0.99591064453125,-0.0074462890625,-0.0214691162109375
1773790752918096600,0.7630966796875,-0.9948272705078125,-0.008056640625,-0.0207061767578125
1773790752938060500,0.783060546875,-0.994415283203125,-0.00653076171875,-0.0202178955078125
1773790752958023400,0.8030234375,-0.9945068359375,-0.006500244140625,-0.01983642578125
1773790752977987600,0.822987548828125,-0.99652099609375,-0.0082244873046875,-0.0222320556640625
1773790752997951500,0.842951416015625,-0.99615478515625,-0.0069122314453125,-0.0204620361328125
1773790753017914600,0.86291455078125,-0.9960174560546875,-0.006744384765625,-0.0214385986328125
1773790753037878500,0.88287841796875,-0.9936370849609375,-0.007080078125,-0.0208282470703125
1773790753057841700,0.902841552734375,-0.9960479736328125,-0.0067596435546875,-0.0208282470703125
1773790753077805600,0.9228056640625,-0.9962310791015625,-0.007293701171875,-0.02044677734375
1773790753097769500,0.94276953125,-0.996002197265625,-0.0074310302734375,-0.02142333984375
1773790753117732600,0.962732666015625,-0.9952392578125,-0.007232666015625,-0.0200958251953125
1773790753137696500,0.982696533203125,-0.996185302734375,-0.0073394775390625,-0.0208892822265625
1773790753157660400,1.002660400390625,-0.9960174560546875,-0.008209228515625,-0.0198974609375
1773790753177623600,1.02262353515625,-0.995880126953125,-0.0065765380859375,-0.0192108154296875
1773790753197587500,1.04258740234375,-0.996002197265625,-0.0072479248046875,-0.02105712890625
1773790753217550600,1.062550537109375,-0.996368408203125,-0.008392333984375,-0.0211181640625
1773790753237514500,1.082514404296875,-0.99566650390625,-0.0057830810546875,-0.02178955078125
1773790753257478400,1.102478515625,-0.9949493408203125,-0.0076141357421875,-0.021514892578125
1773790753277441500,1.122441650390625,-0.996337890625,-0.0068359375,-0.0203704833984375
1773790753297405400,1.142405517578125,-0.9949493408203125,-0.0076446533203125,-0.02130126953125
1773790753317369300,1.162369384765625,-0.994720458984375,-0.0073089599609375,-0.0203094482421875
1773790753337332500,1.18233251953125,-0.995941162109375,-0.0063629150390625,-0.0213165283203125
1773790753357296400,1.20229638671875,-0.9962158203125,-0.0065155029296875,-0.021209716796875
1773790753377259500,1.222259521484375,-0.9960174560546875,-0.007049560546875,-0.0212554931640625
1773790753397223400,1.242223388671875,-0.995635986328125,-0.0061187744140625,-0.0209503173828125
1773790753417187300,1.262187255859375,-0.9945831298828125,-0.007537841796875,-0.019805908203125
1773790753437150500,1.282150390625,-0.996429443359375,-0.0069427490234375,-0.020111083984375
1773790753457114400,1.3021142578125,-0.997344970703125,-0.0074310302734375,-0.0207977294921875
1773790753477078500,1.32207861328125,-0.9954376220703125,-0.00714111328125,-0.02044677734375
1773790753497041400,1.34204150390625,-0.995849609375,-0.0072174072265625,-0.0207061767578125
1773790753517005600,1.362005615234375,-0.994903564453125,-0.0071868896484375,-0.0208892822265625
1773790753536968400,1.381968505859375,-0.9970855712890625,-0.0066070556640625,-0.02044677734375
1773790753556932400,1.401932373046875,-0.995697021484375,-0.00732421875,-0.0203094482421875
1773790753576896500,1.421896484375,-0.9948272705078125,-0.0063018798828125,-0.020172119140625
1773790753596859400,1.441859375,-0.9969024658203125,-0.0064697265625,-0.0211181640625
1773790753616823600,1.461823486328125,-0.99658203125,-0.006439208984375,-0.0211944580078125
1773790753636787500,1.481787353515625,-0.9957733154296875,-0.0064239501953125,-0.021026611328125
1773790753656750300,1.501750244140625,-0.996429443359375,-0.0070037841796875,-0.0208587646484375
1773790753676714500,1.521714599609375,-0.997283935546875,-0.0076904296875,-0.02081298828125
1773790753696677400,1.541677490234375,-0.99560546875,-0.00714111328125,-0.0212860107421875
1773790753716641500,1.5616416015625,-0.9966583251953125,-0.007354736328125,-0.0215606689453125
1773790753736605400,1.58160546875,-0.994842529296875,-0.006744384765625,-0.021728515625
1773790753756568300,1.601568359375,-0.995269775390625,-0.006988525390625,-0.0207366943359375
1773790753776532500,1.621532470703125,-0.99603271484375,-0.007659912109375,-0.020050048828125
1773790753796496400,1.641496337890625,-0.9958038330078125,-0.0070648193359375,-0.021728515625
1773790753816459500,1.66145947265625,-0.99591064453125,-0.0072784423828125,-0.0206146240234375
1773790753836423400,1.68142333984375,-0.99560546875,-0.00634765625,-0.0210113525390625
1773790753856386300,1.70138623046875,-0.9958648681640625,-0.0066986083984375,-0.021026611328125
1773790753876350500,1.7213505859375,-0.99505615234375,-0.0080718994140625,-0.020111083984375
1773790753896314000,1.741314208984375,-0.996185302734375,-0.0072021484375,-0.0209197998046875
1773790753916277200,1.76127734375,-0.9956512451171875,-0.0073699951171875,-0.019775390625
1773790753936241200,1.7812412109375,-0.9953460693359375,-0.0062255859375,-0.0208587646484375
1773790753956204300,1.801204345703125,-0.9948577880859375,-0.0064239501953125,-0.0218048095703125
1773790753976168200,1.821168212890625,-0.9959259033203125,-0.0077056884765625,-0.0207061767578125
1773790753996132000,1.841132080078125,-0.99517822265625,-0.00640869140625,-0.020050048828125
1773790754016095200,1.86109521484375,-0.99591064453125,-0.007965087890625,-0.0209503173828125
1773790754036059100,1.88105908203125,-0.9959716796875,-0.006622314453125,-0.02105712890625
1773790754056022300,1.901022216796875,-0.9948272705078125,-0.0070953369140625,-0.02001953125
1773790754075986200,1.920986083984375,-0.9964752197265625,-0.0089111328125,-0.02130126953125
1773790754095950000,1.9409501953125,-0.9963836669921875,-0.0083770751953125,-0.0200347900390625
1773790754115913200,1.960913330078125,-0.995025634765625,-0.0073699951171875,-0.021728515625
1773790754135877000,1.980877197265625,-0.996185302734375,-0.0068817138671875,-0.0194854736328125
1773790754155841300,2.00084130859375,-0.9951019287109375,-0.00714111328125,-0.0218963623046875
1773790754175804200,2.02080419921875,-0.9960174560546875,-0.0068817138671875,-0.0201873779296875
1773790754195768300,2.040768310546875,-0.99542236328125,-0.0068359375,-0.0211029052734375
1773790754215731200,2.060731201171875,-0.99578857421875,-0.00592041015625,-0.01971435546875
1773790754235695400,2.0806953125,-0.9958953857421875,-0.007781982421875,-0.0208587646484375
1773790754255659300,2.1006591796875,-0.99444580078125,-0.006561279296875,-0.019683837890625
1773790754275622100,2.1206220703125,-0.9941864013671875,-0.00677490234375,-0.0201416015625
1773790754295586300,2.14058642578125,-0.9967041015625,-0.006561279296875,-0.0205230712890625
1773790754315550200,2.16055029296875,-0.995849609375,-0.0071868896484375,-0.0208740234375
1773790754335513300,2.180513427734375,-0.9955291748046875,-0.0077362060546875,-0.020751953125
1773790754355477200,2.200477294921875,-0.99505615234375,-0.0071868896484375,-0.0228729248046875
1773790754375440400,2.2204404296875,-0.9953155517578125,-0.0066680908203125,-0.020721435546875
1773790754395404300,2.240404296875,-0.995330810546875,-0.0077667236328125,-0.020355224609375
1773790754415368200,2.2603681640625,-0.9954833984375,-0.0068511962890625,-0.02130126953125
1773790754435331300,2.280331298828125,-0.9970703125,-0.0066986083984375,-0.020751953125
1773790754455295200,2.300295166015625,-0.9956512451171875,-0.007537841796875,-0.020111083984375
1773790754475258400,2.32025830078125,-0.9962615966796875,-0.0080718994140625,-0.0216217041015625
1773790754495222300,2.34022216796875,-0.9960784912109375,-0.00787353515625,-0.0216827392578125
1773790754515186400,2.3601865234375,-0.995635986328125,-0.0073699951171875,-0.019866943359375
1773790754535149300,2.3801494140625,-0.9958343505859375,-0.007965087890625,-0.019378662109375
1773790754555113200,2.40011328125,-0.99542236328125,-0.00701904296875,-0.02020263671875
1773790754575076400,2.420076416015625,-0.994781494140625,-0.0065765380859375,-0.0208282470703125
1773790754595040300,2.440040283203125,-0.9969635009765625,-0.00634765625,-0.021148681640625
1773790754615004400,2.46000439453125,-0.9953460693359375,-0.0069580078125,-0.0211334228515625
1773790754634967300,2.47996728515625,-0.9954071044921875,-0.00799560546875,-0.020965576171875
1773790754654931200,2.49993115234375,-0.9957733154296875,-0.007598876953125,-0.021392822265625
1773790754674894300,2.519894287109375,-0.995819091796875,-0.0062103271484375,-0.020233154296875
1773790754694858200,2.539858154296875,-0.996246337890625,-0.007720947265625,-0.020721435546875
1773790754714822400,2.559822509765625,-0.994659423828125,-0.0070953369140625,-0.0207061767578125
1773790754734785300,2.579785400390625,-0.99554443359375,-0.007080078125,-0.021575927734375
1773790754754749200,2.599749267578125,-0.99591064453125,-0.00689697265625,-0.0205230712890625
1773790754774712300,2.61971240234375,-0.9955291748046875,-0.0074462890625,-0.02008056640625
1773790754794676200,2.63967626953125,-0.996551513671875,-0.007415771484375,-0.0218505859375
1773790754814640400,2.659640380859375,-0.99658203125,-0.0069122314453125,-0.0213775634765625
1773790754834603300,2.679603271484375,-0.993927001953125,-0.0072021484375,-0.0207366943359375
1773790754854567200,2.699567138671875,-0.9949951171875,-0.0056915283203125,-0.0205230712890625
1773790754874530300,2.7195302734375,-0.99554443359375,-0.0077362060546875,-0.02069091796875
1773790754894494000,2.739493896484375,-0.9961395263671875,-0.0059051513671875,-0.0212860107421875
1773790754914458000,2.7594580078125,-0.9957122802734375,-0.0069732666015625,-0.0230560302734375
1773790754934421000,2.7794208984375,-0.9947509765625,-0.0070037841796875,-0.020233154296875
1773790754954385200,2.79938525390625,-0.9961395263671875,-0.0066680908203125,-0.02069091796875
1773790754974348000,2.81934814453125,-0.9958648681640625,-0.007110595703125,-0.021453857421875
1773790754994312000,2.83931201171875,-0.995697021484375,-0.0069427490234375,-0.0199737548828125
1773790755014276000,2.859276123046875,-0.9956817626953125,-0.0076751708984375,-0.02105712890625
1773790755034239000,2.879239013671875,-0.9969940185546875,-0.00732421875,-0.0206451416015625
1773790755054203100,2.899203125,-0.9958343505859375,-0.0074005126953125,-0.0201416015625
1773790755074166000,2.919166015625,-0.9952545166015625,-0.0065155029296875,-0.0216522216796875
1773790755094130000,2.9391298828125,-0.9968414306640625,-0.0068206787109375,-0.0215606689453125
1773790755114094000,2.959093994140625,-0.9953460693359375,-0.0070953369140625,-0.0198822021484375
1773790755134057000,2.979056884765625,-0.9955291748046875,-0.006561279296875,-0.021697998046875
1773790755154021000,2.999021240234375,-0.9957122802734375,-0.0083770751953125,-0.02008056640625
1773790755173984000,3.01898388671875,-0.995513916015625,-0.006927490234375,-0.0211181640625
1773790755193948000,3.038947998046875,-0.99603271484375,-0.008087158203125,-0.020965576171875
1773790755213912000,3.058912109375,-0.99639892578125,-0.0079498291015625,-0.0210723876953125
1773790755233875000,3.078875,-0.99493408203125,-0.00750732421875,-0.0212860107421875
1773790755253839000,3.098839111328125,-0.9962615966796875,-0.0074920654296875,-0.0198822021484375
1773790755273802000,3.118802001953125,-0.9959564208984375,-0.0071868896484375,-0.020355224609375
1773790755293766100,3.13876611328125,-0.9965057373046875,-0.006683349609375,-0.0207366943359375
1773790755313730000,3.15872998046875,-0.9951171875,-0.0081634521484375,-0.021240234375
1773790755333693000,3.17869287109375,-0.9947967529296875,-0.007568359375,-0.021575927734375
1773790755353657000,3.198656982421875,-0.9948883056640625,-0.0057373046875,-0.0202178955078125
1773790755373620000,3.218619873046875,-0.9956207275390625,-0.00714111328125,-0.02130126953125
1773790755393584000,3.238584228515625,-0.9951629638671875,-0.0081634521484375,-0.019866943359375
1773790755413548300,3.25854833984375,-0.996002197265625,-0.0071258544921875,-0.0194854736328125
1773790755433511000,3.278510986328125,-0.9959564208984375,-0.0076904296875,-0.0217437744140625
1773790755453475300,3.298475341796875,-0.99676513671875,-0.0069122314453125,-0.020721435546875
1773790755473438000,3.31843798828125,-0.99517822265625,-0.0063323974609375,-0.0216827392578125
1773790755493402000,3.338402099609375,-0.9962158203125,-0.0070648193359375,-0.020843505859375
1773790755513366300,3.3583662109375,-0.994781494140625,-0.0072784423828125,-0.0211029052734375
1773790755533329000,3.378328857421875,-0.9939422607421875,-0.0070953369140625,-0.0210723876953125
1773790755553293300,3.398293212890625,-0.99554443359375,-0.007415771484375,-0.020050048828125
1773790755573256000,3.418255859375,-0.995941162109375,-0.0066070556640625,-0.0207672119140625
1773790755593220400,3.438220458984375,-0.9951629638671875,-0.0068511962890625,-0.021942138671875
1773790755613183000,3.458182861328125,-0.99371337890625,-0.0072479248046875,-0.0204620361328125
1773790755633147000,3.47814697265625,-0.99591064453125,-0.005859375,-0.0199432373046875
1773790755653111300,3.498111328125,-0.9965667724609375,-0.0069580078125,-0.0209503173828125
1773790755673074000,3.518073974609375,-0.99462890625,-0.007049560546875,-0.019775390625
1773790755693038300,3.538038330078125,-0.9957427978515625,-0.0079803466796875,-0.0199737548828125
1773790755713001000,3.5580009765625,-0.995697021484375,-0.0071258544921875,-0.021148681640625
1773790755732965000,3.577965087890625,-0.994659423828125,-0.006683349609375,-0.0211029052734375
1773790755752929300,3.59792919921875,-0.995758056640625,-0.00689697265625,-0.0203399658203125
1773790755772892200,3.61789208984375,-0.996368408203125,-0.0064697265625,-0.0207061767578125
1773790755792856300,3.637856201171875,-0.995697021484375,-0.0068511962890625,-0.020050048828125
1773790755812819000,3.65781884765625,-0.9954986572265625,-0.0065460205078125,-0.0211029052734375
1773790755832783000,3.677783203125,-0.995025634765625,-0.0069427490234375,-0.02093505859375
1773790755852746000,3.69774609375,-0.9954833984375,-0.0065765380859375,-0.020751953125
1773790755872710100,3.717710205078125,-0.99700927734375,-0.0067138671875,-0.0206146240234375
1773790755892674300,3.73767431640625,-0.9952392578125,-0.0074615478515625,-0.0216217041015625
1773790755912638200,3.75763818359375,-0.9944305419921875,-0.0069427490234375,-0.02105712890625
1773790755932602000,3.77760205078125,-0.996307373046875,-0.0069580078125,-0.0203094482421875
1773790755952565200,3.797565185546875,-0.99560546875,-0.007781982421875,-0.0215606689453125
1773790755972529200,3.817529052734375,-0.99517822265625,-0.00653076171875,-0.02008056640625
1773790755992493000,3.8374931640625,-0.9960784912109375,-0.00714111328125,-0.0207061767578125
1773790756012456200,3.857456298828125,-0.9954681396484375,-0.00750732421875,-0.0198822021484375
1773790756032420000,3.877420166015625,-0.9966278076171875,-0.0066680908203125,-0.0200958251953125
1773790756052383200,3.89738330078125,-0.9956512451171875,-0.00714111328125,-0.0213775634765625
1773790756072347100,3.91734716796875,-0.995758056640625,-0.0074310302734375,-0.0198822021484375
1773790756092310300,3.937310302734375,-0.9952545166015625,-0.0074310302734375,-0.0210418701171875
1773790756112274200,3.957274169921875,-0.9958953857421875,-0.0068817138671875,-0.021087646484375
1773790756132238000,3.977238037109375,-0.9962158203125,-0.0068206787109375,-0.020172119140625
1773790756152201200,3.997201171875,-0.99591064453125,-0.0067596435546875,-0.0207672119140625
1773790756172165000,4.0171650390625,-0.994476318359375,-0.0060882568359375,-0.0204315185546875
1773790756192128300,4.037128173828125,-0.9952545166015625,-0.0084228515625,-0.020843505859375
1773790756212092200,4.057092041015625,-0.994659423828125,-0.0066070556640625,-0.020965576171875
1773790756232056000,4.07705615234375,-0.9958648681640625,-0.00701904296875,-0.020416259765625
1773790756252019200,4.097019287109375,-0.9961090087890625,-0.0070037841796875,-0.0216064453125
1773790756271983000,4.116983154296875,-0.995635986328125,-0.008209228515625,-0.0204010009765625
1773790756291947000,4.136947021484375,-0.9953460693359375,-0.0071563720703125,-0.0208587646484375
1773790756311911400,4.156911376953125,-0.9959869384765625,-0.0071868896484375,-0.0211181640625
1773790756331874000,4.1768740234375,-0.9945068359375,-0.0052337646484375,-0.02099609375
1773790756351838500,4.19683837890625,-0.996490478515625,-0.0065155029296875,-0.0218048095703125
1773790756371801000,4.216801025390625,-0.996185302734375,-0.0078277587890625,-0.0205078125
1773790756391765200,4.23676513671875,-0.995635986328125,-0.0076751708984375,-0.0218353271484375
1773790756411729400,4.2567294921875,-0.9951629638671875,-0.0069122314453125,-0.0202484130859375
1773790756431692300,4.2766923828125,-0.99700927734375,-0.00665283203125,-0.0205230712890625
1773790756451656400,4.296656494140625,-0.996002197265625,-0.0068206787109375,-0.02056884765625
1773790756471619000,4.316619140625,-0.9940948486328125,-0.0069122314453125,-0.019989013671875
1773790756491583200,4.336583251953125,-0.9953765869140625,-0.0076751708984375,-0.0206298828125
1773790756511546000,4.356546142578125,-0.996734619140625,-0.0062713623046875,-0.02142333984375
1773790756531510300,4.37651025390625,-0.9941864013671875,-0.007080078125,-0.0204010009765625
1773790756551474400,4.396474365234375,-0.9957733154296875,-0.0070037841796875,-0.0197906494140625
1773790756571437300,4.416437255859375,-0.9954833984375,-0.006988525390625,-0.02032470703125
1773790756591401200,4.436401123046875,-0.9947967529296875,-0.0071868896484375,-0.0211181640625
1773790756611364000,4.456364013671875,-0.9950714111328125,-0.0054779052734375,-0.0200347900390625
1773790756631328300,4.476328369140625,-0.9961395263671875,-0.007110595703125,-0.0194854736328125
1773790756651291100,4.496291015625,-0.9954681396484375,-0.00640869140625,-0.0200347900390625
1773790756671254300,4.516254150390625,-0.9961395263671875,-0.00762939453125,-0.0213623046875
1773790756691218200,4.53621826171875,-0.9953155517578125,-0.00701904296875,-0.0197906494140625
1773790756711181000,4.55618115234375,-0.995758056640625,-0.0070953369140625,-0.019195556640625
1773790756731145200,4.576145263671875,-0.9955902099609375,-0.007049560546875,-0.0218505859375
1773790756751108000,4.596108154296875,-0.9960479736328125,-0.0078125,-0.020660400390625
1773790756771072300,4.616072265625,-0.99578857421875,-0.0067596435546875,-0.021331787109375
1773790756791036200,4.6360361328125,-0.9954681396484375,-0.00714111328125,-0.0205230712890625
1773790756810999000,4.6559990234375,-0.9953155517578125,-0.006866455078125,-0.021575927734375
1773790756830963200,4.675963134765625,-0.996185302734375,-0.007354736328125,-0.0216522216796875
1773790756850926000,4.695926025390625,-0.996307373046875,-0.006134033203125,-0.021270751953125
1773790756870890200,4.71589013671875,-0.9972381591796875,-0.00701904296875,-0.0206146240234375
1773790756890853000,4.73585302734375,-0.99542236328125,-0.00750732421875,-0.0205535888671875
1773790756910816500,4.75581640625,-0.9970703125,-0.007049560546875,-0.0205841064453125
1773790756930780400,4.775780517578125,-0.9953155517578125,-0.0076751708984375,-0.0201873779296875
1773790756950743600,4.79574365234375,-0.9957122802734375,-0.0064239501953125,-0.0212249755859375
1773790756970707500,4.81570751953125,-0.9947662353515625,-0.007171630859375,-0.02032470703125
1773790756990670300,4.83567041015625,-0.99530029296875,-0.0065155029296875,-0.02130126953125
1773790757010634500,4.855634521484375,-0.99578857421875,-0.007781982421875,-0.021209716796875
1773790757030597400,4.875597412109375,-0.9947509765625,-0.0075531005859375,-0.02001953125
1773790757050561500,4.8955615234375,-0.9947509765625,-0.00640869140625,-0.0204925537109375
1773790757070524400,4.9155244140625,-0.996429443359375,-0.00701904296875,-0.020721435546875
1773790757090488300,4.93548828125,-0.995697021484375,-0.0066680908203125,-0.0213623046875
1773790757110452500,4.955452392578125,-0.994659423828125,-0.006927490234375,-0.0216522216796875
1773790757130415400,4.975415283203125,-0.9951171875,-0.0074462890625,-0.0206298828125
1773790757150379500,4.995379638671875,-0.9952239990234375,-0.0071258544921875,-0.0193328857421875
1773790757170342400,5.01534228515625,-0.9956207275390625,-0.0069427490234375,-0.0208587646484375
1773790757190306300,5.035306396484375,-0.995147705078125,-0.008209228515625,-0.02099609375
1773790757210269400,5.05526953125,-0.995147705078125,-0.006378173828125,-0.021697998046875
1773790757230233300,5.0752333984375,-0.9964447021484375,-0.0071563720703125,-0.0204315185546875
1773790757250197500,5.095197509765625,-0.9957733154296875,-0.00799560546875,-0.0210113525390625
1773790757270160400,5.115160400390625,-0.99554443359375,-0.0081634521484375,-0.020660400390625
1773790757290124500,5.13512451171875,-0.9950714111328125,-0.0076904296875,-0.019927978515625
1773790757310087400,5.15508740234375,-0.995758056640625,-0.005950927734375,-0.02020263671875
1773790757330051300,5.17505126953125,-0.9941253662109375,-0.0079803466796875,-0.0211181640625
1773790757350014500,5.195014404296875,-0.9958343505859375,-0.00750732421875,-0.02032470703125
1773790757369978400,5.214978271484375,-0.995758056640625,-0.007537841796875,-0.0211181640625
1773790757389941500,5.23494140625,-0.9963836669921875,-0.007293701171875,-0.0206298828125
1773790757409905400,5.254905517578125,-0.996002197265625,-0.007843017578125,-0.020111083984375
1773790757429869300,5.274869384765625,-0.99603271484375,-0.00732421875,-0.0208282470703125
1773790757449832400,5.29483251953125,-0.9953460693359375,-0.0078582763671875,-0.020660400390625
1773790757469796400,5.31479638671875,-0.995849609375,-0.0064697265625,-0.0211181640625
1773790757489759500,5.334759521484375,-0.9955596923828125,-0.0071563720703125,-0.0211334228515625
1773790757509723400,5.354723388671875,-0.9951629638671875,-0.0076141357421875,-0.0198822021484375
1773790757529686500,5.3746865234375,-0.9956817626953125,-0.00750732421875,-0.0211944580078125
1773790757549650400,5.394650390625,-0.9948883056640625,-0.006744384765625,-0.022186279296875
1773790757569613600,5.414613525390625,-0.996185302734375,-0.007965087890625,-0.02069091796875
1773790757589577500,5.434577392578125,-0.9951324462890625,-0.0075225830078125,-0.0209503173828125
1773790757609541400,5.454541259765625,-0.996368408203125,-0.008087158203125,-0.020477294921875
1773790757629504500,5.47450439453125,-0.9970855712890625,-0.007904052734375,-0.0205078125
1773790757649468400,5.494468505859375,-0.995880126953125,-0.007415771484375,-0.018890380859375
1773790757669431600,5.514431640625,-0.9940643310546875,-0.0067138671875,-0.020843505859375
1773790757689395500,5.5343955078125,-0.9953460693359375,-0.0065765380859375,-0.0204010009765625
1773790757709358300,5.5543583984375,-0.9957733154296875,-0.0074920654296875,-0.0206146240234375
1773790757729322500,5.574322509765625,-0.9955596923828125,-0.00762939453125,-0.020843505859375
1773790757749285400,5.594285400390625,-0.9953765869140625,-0.00823974609375,-0.0201568603515625
1773790757769249500,5.61424951171875,-0.995819091796875,-0.007720947265625,-0.0195770263671875
1773790757789213400,5.63421337890625,-0.9957733154296875,-0.0063934326171875,-0.0202178955078125
1773790757809176300,5.65417626953125,-0.9949188232421875,-0.0073699951171875,-0.0209197998046875
1773790757829140500,5.674140380859375,-0.994415283203125,-0.0068206787109375,-0.0209808349609375
1773790757849103400,5.694103271484375,-0.995361328125,-0.0079345703125,-0.0206146240234375
1773790757869067500,5.714067626953125,-0.995513916015625,-0.0084228515625,-0.0218353271484375
1773790757889030400,5.734030517578125,-0.9947509765625,-0.0075836181640625,-0.0205535888671875
1773790757908994600,5.75399462890625,-0.9955902099609375,-0.0077972412109375,-0.0213623046875
1773790757928957700,5.773957763671875,-0.9948883056640625,-0.006317138671875,-0.02069091796875
1773790757948921600,5.793921630859375,-0.9951171875,-0.0073699951171875,-0.020660400390625
1773790757968884700,5.813884765625,-0.99652099609375,-0.0065460205078125,-0.0215301513671875
1773790757988848600,5.8338486328125,-0.99609375,-0.0072174072265625,-0.018798828125
1773790758008812500,5.8538125,-0.9958038330078125,-0.006072998046875,-0.0196075439453125
1773790758028775700,5.873775634765625,-0.9962158203125,-0.006378173828125,-0.0204620361328125
1773790758048739600,5.893739501953125,-0.996551513671875,-0.0072784423828125,-0.0208740234375
1773790758068702700,5.91370263671875,-0.9959869384765625,-0.007293701171875,-0.0209503173828125
1773790758088666600,5.93366650390625,-0.9956207275390625,-0.0066986083984375,-0.02044677734375
1773790758108629800,5.953629638671875,-0.995391845703125,-0.0076904296875,-0.02081298828125
1773790758128593700,5.97359375,-0.9950103759765625,-0.007568359375,-0.0204010009765625
1773790758148556800,5.993556884765625,-0.99639892578125,-0.0069122314453125,-0.021148681640625
1773790758168520700,6.013520751953125,-0.9957427978515625,-0.0061187744140625,-0.0208740234375
1773790758188483800,6.03348388671875,-0.9944915771484375,-0.00738525390625,-0.0210418701171875
1773790758208447700,6.05344775390625,-0.9951171875,-0.007232666015625,-0.0201263427734375
1773790758228411600,6.07341162109375,-0.9947967529296875,-0.0069427490234375,-0.021453857421875
1773790758248374800,6.093374755859375,-0.9959716796875,-0.0081329345703125,-0.0200653076171875
1773790758268338700,6.113338623046875,-0.9954986572265625,-0.0072784423828125,-0.0221099853515625
1773790758288301800,6.1333017578125,-0.9953460693359375,-0.0066375732421875,-0.0216064453125
1773790758308265700,6.153265625,-0.9970703125,-0.0080413818359375,-0.0207672119140625
1773790758328228600,6.173228515625,-0.9958343505859375,-0.006927490234375,-0.0208282470703125
1773790758348192800,6.19319287109375,-0.9962310791015625,-0.007659912109375,-0.0204620361328125
1773790758368155600,6.21315576171875,-0.9953155517578125,-0.006927490234375,-0.021575927734375
1773790758388119800,6.233119873046875,-0.9962615966796875,-0.006744384765625,-0.0207672119140625
1773790758408082700,6.253082763671875,-0.9954833984375,-0.006927490234375,-0.0201416015625
1773790758428046600,6.273046630859375,-0.99566650390625,-0.0072021484375,-0.02130126953125
1773790758448009700,6.293009765625,-0.9968109130859375,-0.0081024169921875,-0.0207061767578125
1773790758467973600,6.3129736328125,-0.9951324462890625,-0.0068206787109375,-0.0212860107421875
1773790758487937800,6.332937744140625,-0.9944000244140625,-0.0069580078125,-0.0202178955078125
1773790758507900700,6.352900634765625,-0.9959869384765625,-0.0066070556640625,-0.0200347900390625
1773790758527864600,6.372864501953125,-0.995513916015625,-0.0064544677734375,-0.01983642578125
1773790758547827700,6.39282763671875,-0.9949798583984375,-0.0075531005859375,-0.021575927734375
1773790758567791600,6.41279150390625,-0.9971466064453125,-0.0067596435546875,-0.0213775634765625
1773790758587754800,6.432754638671875,-0.9953155517578125,-0.0062408447265625,-0.020965576171875
1773790758607718700,6.45271875,-0.99615478515625,-0.006072998046875,-0.020660400390625
1773790758627681800,6.472681884765625,-0.9945220947265625,-0.006988525390625,-0.0210418701171875
1773790758647645700,6.492645751953125,-0.9961090087890625,-0.007232666015625,-0.0206756591796875
1773790758667608600,6.512608642578125,-0.9968414306640625,-0.0068511962890625,-0.0205535888671875
1773790758687572700,6.53257275390625,-0.99517822265625,-0.0063323974609375,-0.0218658447265625
1773790758707535600,6.55253564453125,-0.994903564453125,-0.00640869140625,-0.0211029052734375
1773790758727499800,6.572499755859375,-0.99615478515625,-0.007232666015625,-0.0207977294921875
1773790758747463700,6.592463623046875,-0.9958953857421875,-0.006866455078125,-0.021240234375
1773790758767426800,6.6124267578125,-0.9954376220703125,-0.0066375732421875,-0.0206756591796875
1773790758787390700,6.632390625,-0.9957427978515625,-0.0080718994140625,-0.0206298828125
1773790758807353900,6.652353759765625,-0.99554443359375,-0.008056640625,-0.02020263671875
1773790758827317800,6.67231787109375,-0.995513916015625,-0.0068359375,-0.0214385986328125
1773790758847280400,6.6922802734375,-0.99517822265625,-0.00653076171875,-0.02099609375
1773790758867244800,6.712244873046875,-0.9964752197265625,-0.0074462890625,-0.0220794677734375
1773790758887207400,6.73220751953125,-0.99554443359375,-0.0069580078125,-0.0202178955078125
1773790758907171300,6.75217138671875,-0.9958648681640625,-0.00689697265625,-0.0207061767578125
1773790758927134200,6.77213427734375,-0.995849609375,-0.007049560546875,-0.0211029052734375
1773790758947098400,6.792098388671875,-0.9970855712890625,-0.007781982421875,-0.0202789306640625
1773790758967061200,6.812061279296875,-0.9952850341796875,-0.0072479248046875,-0.0208740234375
1773790758987025200,6.832025146484375,-0.995697021484375,-0.007568359375,-0.0202178955078125
1773790759006988300,6.85198828125,-0.9959716796875,-0.0077056884765625,-0.0199127197265625
1773790759026952200,6.8719521484375,-0.99560546875,-0.0069427490234375,-0.0202789306640625
1773790759046916600,6.89191650390625,-0.9951324462890625,-0.0077362060546875,-0.02020263671875
1773790759066879200,6.911879150390625,-0.9951629638671875,-0.0067138671875,-0.02130126953125
1773790759086843100,6.931843017578125,-0.9962310791015625,-0.007904052734375,-0.0206146240234375
1773790759106806300,6.95180615234375,-0.9951629638671875,-0.0075531005859375,-0.0203704833984375
1773790759126770200,6.971770263671875,-0.996246337890625,-0.0077667236328125,-0.02105712890625
1773790759146733300,6.9917333984375,-0.99493408203125,-0.0069427490234375,-0.0213165283203125
1773790759166697200,7.011697265625,-0.9951324462890625,-0.00726318359375,-0.0204620361328125
1773790759186660400,7.031660400390625,-0.995849609375,-0.0066986083984375,-0.0207366943359375
1773790759206624300,7.051624267578125,-0.996490478515625,-0.00836181640625,-0.02056884765625
1773790759226587400,7.07158740234375,-0.99639892578125,-0.00555419921875,-0.020355224609375
1773790759246551300,7.09155126953125,-0.995758056640625,-0.0073394775390625,-0.0196533203125
1773790759266514200,7.11151416015625,-0.995208740234375,-0.0055084228515625,-0.0207672119140625
1773790759286478300,7.131478271484375,-0.9961090087890625,-0.0064239501953125,-0.0209197998046875
1773790759306441200,7.151441162109375,-0.9952545166015625,-0.008056640625,-0.021026611328125
1773790759326405400,7.1714052734375,-0.99560546875,-0.006866455078125,-0.021270751953125
1773790759346368300,7.1913681640625,-0.995819091796875,-0.0071868896484375,-0.0210723876953125
1773790759366332400,7.21133251953125,-0.995086669921875,-0.006744384765625,-0.02056884765625
1773790759386296300,7.23129638671875,-0.9956512451171875,-0.007110595703125,-0.02081298828125
1773790759406259200,7.25125927734375,-0.9951324462890625,-0.0071258544921875,-0.0194244384765625
1773790759426223400,7.271223388671875,-0.996124267578125,-0.0074920654296875,-0.02099609375
1773790759446186200,7.291186279296875,-0.9945526123046875,-0.0066680908203125,-0.020660400390625
1773790759466150400,7.311150390625,-0.9962310791015625,-0.006805419921875,-0.0208587646484375
1773790759486113300,7.33111328125,-0.9956512451171875,-0.0063323974609375,-0.020782470703125
1773790759506077200,7.3510771484375,-0.9963531494140625,-0.007415771484375,-0.0212249755859375
1773790759526040300,7.371040283203125,-0.995880126953125,-0.007080078125,-0.0203704833984375
1773790759546004200,7.391004150390625,-0.9945831298828125,-0.0073699951171875,-0.02105712890625
1773790759565967400,7.41096728515625,-0.9954681396484375,-0.0063018798828125,-0.0199737548828125
1773790759585931300,7.43093115234375,-0.9972076416015625,-0.0081939697265625,-0.021575927734375
1773790759605894400,7.450894287109375,-0.994232177734375,-0.0074462890625,-0.02099609375
1773790759625858300,7.4708583984375,-0.99700927734375,-0.0066986083984375,-0.0202484130859375
1773790759645821400,7.490821533203125,-0.994537353515625,-0.007904052734375,-0.0206146240234375
1773790759665785300,7.510785400390625,-0.9960784912109375,-0.0062408447265625,-0.020660400390625
1773790759685748200,7.530748291015625,-0.995635986328125,-0.0074920654296875,-0.019775390625
1773790759705712400,7.55071240234375,-0.994873046875,-0.007843017578125,-0.0202484130859375
1773790759725675300,7.57067529296875,-0.99505615234375,-0.0061492919921875,-0.0217742919921875
1773790759745639400,7.590639404296875,-0.995635986328125,-0.0080413818359375,-0.0212554931640625
1773790759765602300,7.610602294921875,-0.9962005615234375,-0.006378173828125,-0.0206756591796875
1773790759785566200,7.630566162109375,-0.996307373046875,-0.0079193115234375,-0.0206451416015625
1773790759805529300,7.650529296875,-0.9955902099609375,-0.007232666015625,-0.020416259765625
1773790759825493200,7.6704931640625,-0.99652099609375,-0.006866455078125,-0.0204620361328125
1773790759845456400,7.690456298828125,-0.99591064453125,-0.0063629150390625,-0.02032470703125
1773790759865420300,7.710420166015625,-0.9961090087890625,-0.00836181640625,-0.020965576171875
1773790759885384400,7.730384521484375,-0.996307373046875,-0.0072174072265625,-0.0199737548828125
1773790759905346800,7.750346923828125,-0.9954833984375,-0.006683349609375,-0.0219268798828125
1773790759925311000,7.77031103515625,-0.996734619140625,-0.0074462890625,-0.0200653076171875
1773790759945273900,7.79027392578125,-0.994720458984375,-0.007232666015625,-0.0208892822265625
1773790759965237800,7.81023779296875,-0.996185302734375,-0.0072021484375,-0.0212860107421875
1773790759985201000,7.830200927734375,-0.9955291748046875,-0.00714111328125,-0.0201416015625
1773790760005164800,7.850164794921875,-0.996429443359375,-0.0080413818359375,-0.020965576171875
1773790760025128000,7.8701279296875,-0.9969329833984375,-0.0074310302734375,-0.01904296875
1773790760045091800,7.890091796875,-0.994598388671875,-0.0078277587890625,-0.021759033203125
1773790760065055000,7.910054931640625,-0.995880126953125,-0.008331298828125,-0.0203704833984375
1773790760085019000,7.930018798828125,-0.9954376220703125,-0.0071563720703125,-0.0194854736328125
1773790760104982000,7.94998193359375,-0.99542236328125,-0.007110595703125,-0.019805908203125
1773790760124946000,7.96994580078125,-0.9958343505859375,-0.0068817138671875,-0.0199127197265625
1773790760144908800,7.98990869140625,-0.995361328125,-0.0080718994140625,-0.0207672119140625
1773790760164873000,8.009873046875,-0.9961395263671875,-0.0064239501953125,-0.021484375
1773790760184835800,8.0298359375,-0.996490478515625,-0.0064544677734375,-0.020904541015625
1773790760204800000,8.049800048828125,-0.9955596923828125,-0.008453369140625,-0.0210113525390625
1773790760224763000,8.069762939453126,-0.9964141845703125,-0.0070953369140625,-0.020050048828125
1773790760244726800,8.089726806640625,-0.9971160888671875,-0.007598876953125,-0.020233154296875
1773790760264690000,8.10968994140625,-0.9948577880859375,-0.006317138671875,-0.0205078125
1773790760284653800,8.12965380859375,-0.9949951171875,-0.00714111328125,-0.021148681640625
1773790760304617000,8.149616943359375,-0.9946136474609375,-0.007049560546875,-0.0204925537109375
1773790760324580900,8.169580810546876,-0.9968109130859375,-0.0073394775390625,-0.02081298828125
1773790760344544000,8.1895439453125,-0.99505615234375,-0.0066986083984375,-0.020050048828125
1773790760364508000,8.2095078125,-0.9944000244140625,-0.0064697265625,-0.021881103515625
1773790760384471000,8.229470947265625,-0.996551513671875,-0.006591796875,-0.0213470458984375
1773790760404435000,8.24943505859375,-0.9949188232421875,-0.007843017578125,-0.0196075439453125
1773790760424397800,8.269397705078125,-0.996124267578125,-0.00732421875,-0.020843505859375
1773790760444362000,8.289362060546875,-0.9954681396484375,-0.0078582763671875,-0.0205078125
1773790760464324900,8.309324951171876,-0.9960174560546875,-0.00726318359375,-0.0206451416015625
1773790760484289000,8.3292890625,-0.994384765625,-0.0073699951171875,-0.02081298828125
1773790760504252000,8.349251953125,-0.9957733154296875,-0.00762939453125,-0.0203399658203125
1773790760524216000,8.369216064453125,-0.9959564208984375,-0.0063934326171875,-0.0209197998046875
1773790760544179000,8.389178955078124,-0.9965057373046875,-0.00738525390625,-0.019775390625
1773790760564142800,8.409142822265625,-0.9957733154296875,-0.006317138671875,-0.0189666748046875
1773790760584106000,8.42910595703125,-0.995147705078125,-0.0078887939453125,-0.0205078125
1773790760604070000,8.44906982421875,-0.9967041015625,-0.0066680908203125,-0.0211029052734375
1773790760624033000,8.469032958984375,-0.9950714111328125,-0.0082244873046875,-0.0199127197265625
1773790760643997000,8.488996826171874,-0.99658203125,-0.0078277587890625,-0.0213623046875
1773790760663960000,8.5089599609375,-0.995269775390625,-0.0078887939453125,-0.0211334228515625
1773790760683924000,8.528924072265625,-0.9944915771484375,-0.007415771484375,-0.0207672119140625
1773790760703887000,8.54888720703125,-0.99560546875,-0.0068817138671875,-0.020965576171875
1773790760723851000,8.56885107421875,-0.995758056640625,-0.006927490234375,-0.0209503173828125
1773790760743814000,8.58881396484375,-0.9958648681640625,-0.008148193359375,-0.0204620361328125
1773790760763778000,8.608778076171875,-0.995208740234375,-0.00738525390625,-0.0210723876953125
1773790760783741000,8.628740966796874,-0.99615478515625,-0.008392333984375,-0.0207672119140625
1773790760803705000,8.648705078125,-0.9960479736328125,-0.007171630859375,-0.02093505859375
1773790760823668000,8.66866796875,-0.995086669921875,-0.0056610107421875,-0.0205078125
1773790760843631900,8.6886318359375,-0.996826171875,-0.006866455078125,-0.0201873779296875
1773790760863595000,8.708594970703125,-0.9957122802734375,-0.008026123046875,-0.0204315185546875
1773790760883559000,8.728558837890626,-0.9953765869140625,-0.007171630859375,-0.021820068359375
1773790760903522800,8.748522705078125,-0.9959869384765625,-0.0069580078125,-0.0211944580078125
1773790760923486700,8.76848681640625,-0.995361328125,-0.0077362060546875,-0.0206298828125
1773790760943449900,8.788449951171875,-0.9948883056640625,-0.0066680908203125,-0.0206146240234375
1773790760963413800,8.808413818359375,-0.9951324462890625,-0.0076904296875,-0.0210113525390625
1773790760983376600,8.828376708984376,-0.9959716796875,-0.006988525390625,-0.021697998046875
1773790761003340800,8.8483408203125,-0.9936981201171875,-0.006561279296875,-0.0194549560546875
1773790761023303700,8.8683037109375,-0.997314453125,-0.0077667236328125,-0.021240234375
1773790761043267800,8.888267822265625,-0.9955902099609375,-0.0073394775390625,-0.020416259765625
1773790761063230700,8.908230712890624,-0.9949951171875,-0.006805419921875,-0.020477294921875
1773790761083194600,8.928194580078125,-0.9963226318359375,-0.0075531005859375,-0.02099609375
1773790761103157800,8.94815771484375,-0.995147705078125,-0.00799560546875,-0.020599365234375
1773790761123121700,8.96812158203125,-0.99542236328125,-0.0070343017578125,-0.0213470458984375
1773790761143084800,8.988084716796875,-0.9958038330078125,-0.0086669921875,-0.0205535888671875
1773790761163048700,9.008048583984374,-0.9957427978515625,-0.006072998046875,-0.021270751953125
1773790761183011800,9.02801171875,-0.9948577880859375,-0.0069732666015625,-0.021087646484375
1773790761202975700,9.047975830078125,-0.996337890625,-0.0059661865234375,-0.0209197998046875
1773790761222939000,9.06793896484375,-0.9942169189453125,-0.0068511962890625,-0.0205078125
1773790761242902800,9.08790283203125,-0.99609375,-0.0078125,-0.0219268798828125
1773790761262865700,9.10786572265625,-0.9954681396484375,-0.008331298828125,-0.0200042724609375
1773790761282829800,9.127829833984375,-0.9959716796875,-0.008026123046875,-0.021148681640625
1773790761302792700,9.147792724609374,-0.99493408203125,-0.006805419921875,-0.0208892822265625
1773790761322756900,9.1677568359375,-0.996002197265625,-0.0076141357421875,-0.0213470458984375
1773790761342719700,9.1877197265625,-0.9971771240234375,-0.0073699951171875,-0.0205841064453125
1773790761362683600,9.20768359375,-0.9946746826171875,-0.00811767578125,-0.020782470703125
1773790761382646800,9.227646728515625,-0.99639892578125,-0.006744384765625,-0.0213165283203125
1773790761402610700,9.247610595703126,-0.9952850341796875,-0.007415771484375,-0.021484375
1773790761422573800,9.26757373046875,-0.9964752197265625,-0.007232666015625,-0.0217742919921875
1773790761442537700,9.287537841796874,-0.9949798583984375,-0.0076751708984375,-0.0207977294921875
1773790761462500900,9.3075009765625,-0.9959259033203125,-0.0086212158203125,-0.0201416015625
1773790761482464800,9.32746484375,-0.9958038330078125,-0.005950927734375,-0.0216217041015625
1773790761502428000,9.347427978515626,-0.9954376220703125,-0.0061187744140625,-0.021881103515625
1773790761522391800,9.367391845703125,-0.99627685546875,-0.0079193115234375,-0.02105712890625
1773790761542355000,9.38735498046875,-0.9964447021484375,-0.00640869140625,-0.0204620361328125
1773790761562318800,9.40731884765625,-0.9944610595703125,-0.0070648193359375,-0.0213623046875
1773790761582281700,9.42728173828125,-0.9954071044921875,-0.0062255859375,-0.02069091796875
1773790761602246000,9.447245849609375,-0.9969024658203125,-0.0067291259765625,-0.0206756591796875
1773790761622208800,9.467208740234375,-0.9963531494140625,-0.0070037841796875,-0.0212860107421875
1773790761642173000,9.4871728515625,-0.9951324462890625,-0.0080108642578125,-0.0198516845703125
1773790761662135800,9.5071357421875,-0.9948883056640625,-0.006927490234375,-0.01995849609375
1773790761682099700,9.527099609375,-0.99530029296875,-0.0064697265625,-0.0229339599609375
1773790761702062800,9.547062744140625,-0.995269775390625,-0.0072174072265625,-0.0211334228515625
1773790761722026800,9.56702685546875,-0.99481201171875,-0.0071868896484375,-0.02130126953125
1773790761741990000,9.586989990234375,-0.9951629638671875,-0.0081329345703125,-0.0221710205078125
1773790761761953800,9.606953857421875,-0.9951629638671875,-0.0072784423828125,-0.020355224609375
1773790761781917000,9.6269169921875,-0.99493408203125,-0.0073089599609375,-0.021392822265625
1773790761801880800,9.646880859375,-0.9968109130859375,-0.0070037841796875,-0.0192413330078125
1773790761821843700,9.66684375,-0.9949798583984375,-0.007049560546875,-0.021514892578125
1773790761841806600,9.686806640625,-0.9949188232421875,-0.007080078125,-0.021026611328125
1773790761861770800,9.706770751953124,-0.99664306640625,-0.0079803466796875,-0.0201568603515625
1773790761881733600,9.726733642578125,-0.99554443359375,-0.0065460205078125,-0.019744873046875
1773790761901697800,9.74669775390625,-0.995330810546875,-0.00665283203125,-0.0200653076171875
1773790761921661000,9.766660888671876,-0.995758056640625,-0.0071563720703125,-0.0207977294921875
1773790761941624800,9.786624755859375,-0.995697021484375,-0.008544921875,-0.021087646484375
1773790761961587700,9.806587646484376,-0.99566650390625,-0.006561279296875,-0.01983642578125
1773790761981551900,9.8265517578125,-0.9956207275390625,-0.00689697265625,-0.021209716796875
1773790762001514800,9.8465146484375,-0.99542236328125,-0.0089111328125,-0.0216522216796875
1773790762021479000,9.86647900390625,-0.9958648681640625,-0.0060577392578125,-0.0202484130859375
1773790762041441800,9.88644189453125,-0.9949188232421875,-0.006378173828125,-0.01983642578125
1773790762061406000,9.906406005859376,-0.9962158203125,-0.008056640625,-0.020904541015625
1773790762081368600,9.92636865234375,-0.9957122802734375,-0.0080413818359375,-0.0219573974609375
1773790762101333000,9.9463330078125,-0.995880126953125,-0.0062103271484375,-0.0200958251953125
1773790762121295600,9.966295654296875,-0.9947967529296875,-0.006195068359375,-0.021392822265625
1773790762141259800,9.986259765625,-0.995513916015625,-0.007415771484375,-0.0200958251953125
1773790762161222700,10.00622265625,-0.9954681396484375,-0.006500244140625,-0.0203704833984375
1773790762181186600,10.0261865234375,-0.9942779541015625,-0.007781982421875,-0.0212860107421875
1773790762201149700,10.046149658203126,-0.9959564208984375,-0.0070343017578125,-0.0203094482421875
1773790762221113600,10.066113525390625,-0.9964447021484375,-0.0064697265625,-0.020965576171875
1773790762241076700,10.08607666015625,-0.995086669921875,-0.00775146484375,-0.0208587646484375
1773790762261040600,10.10604052734375,-0.995574951171875,-0.0061798095703125,-0.0204010009765625
1773790762281003800,10.126003662109374,-0.9953155517578125,-0.006195068359375,-0.021881103515625
1773790762300967700,10.1459677734375,-0.9961395263671875,-0.0072784423828125,-0.0207061767578125
1773790762320930800,10.165930908203125,-0.994903564453125,-0.00732421875,-0.019805908203125
1773790762340893700,10.185893798828126,-0.9963226318359375,-0.0077972412109375,-0.0207977294921875
1773790762360857600,10.205857666015625,-0.9956512451171875,-0.00689697265625,-0.0205841064453125
1773790762380820700,10.22582080078125,-0.9956817626953125,-0.0064849853515625,-0.0216827392578125
1773790762400784600,10.24578466796875,-0.9962158203125,-0.0076141357421875,-0.020477294921875
1773790762420747800,10.265747802734374,-0.996490478515625,-0.00762939453125,-0.0202789306640625
1773790762440711700,10.285711669921875,-0.9951171875,-0.0062408447265625,-0.021026611328125
1773790762460674800,10.3056748046875,-0.9964141845703125,-0.0069122314453125,-0.0202178955078125
1773790762480638700,10.325638671875,-0.9960479736328125,-0.00823974609375,-0.0197296142578125
1773790762500601900,10.345601806640625,-0.9964752197265625,-0.006622314453125,-0.0222320556640625
1773790762520565800,10.365565673828126,-0.995269775390625,-0.0060882568359375,-0.022674560546875
1773790762540529000,10.38552880859375,-0.995361328125,-0.0076446533203125,-0.0209808349609375
1773790762560492800,10.405492919921874,-0.995635986328125,-0.006744384765625,-0.0209503173828125
1773790762580455700,10.42545556640625,-0.9956207275390625,-0.007049560546875,-0.0211639404296875
1773790762600419800,10.445419921875,-0.996124267578125,-0.0068359375,-0.0207672119140625
1773790762620382700,10.4653828125,-0.99713134765625,-0.0078887939453125,-0.020904541015625
1773790762640345900,10.485345947265625,-0.9954376220703125,-0.0071258544921875,-0.02178955078125
1773790762660309800,10.505309814453126,-0.9960784912109375,-0.0067901611328125,-0.02056884765625
1773790762680273000,10.52527294921875,-0.996246337890625,-0.0069122314453125,-0.02215576171875
1773790762700236800,10.54523681640625,-0.99517822265625,-0.00714111328125,-0.02032470703125
1773790762720200000,10.565199951171875,-0.99560546875,-0.0078277587890625,-0.0209808349609375
1773790762740163800,10.585163818359375,-0.9961090087890625,-0.0066986083984375,-0.0210418701171875
1773790762760126700,10.605126708984375,-0.99627685546875,-0.0069122314453125,-0.020751953125
1773790762780091000,10.6250908203125,-0.994842529296875,-0.0074310302734375,-0.0203857421875
1773790762800053800,10.6450537109375,-0.9963836669921875,-0.0066375732421875,-0.020263671875
1773790762820018000,10.665017822265625,-0.995147705078125,-0.006805419921875,-0.0213470458984375
1773790762839980800,10.684980712890624,-0.9958953857421875,-0.0071258544921875,-0.0202178955078125
1773790762859944700,10.70494482421875,-0.995635986328125,-0.00750732421875,-0.0209808349609375
1773790762879907800,10.724907958984375,-0.9961090087890625,-0.0067138671875,-0.02142333984375
1773790762899871700,10.744871826171876,-0.994842529296875,-0.0081329345703125,-0.02166748046875
1773790762919833900,10.764833740234375,-0.9957427978515625,-0.007568359375,-0.0208587646484375
1773790762939797800,10.7847978515625,-0.995880126953125,-0.0069427490234375,-0.0208892822265625
1773790762959761000,10.804760986328125,-0.996185302734375,-0.0068511962890625,-0.02032470703125
1773790762979724000,10.82472412109375,-0.995086669921875,-0.0079345703125,-0.02069091796875
1773790762999688000,10.84468798828125,-0.9959716796875,-0.0077056884765625,-0.0209503173828125
1773790763019650800,10.86465087890625,-0.9963226318359375,-0.00677490234375,-0.02178955078125
1773790763039615000,10.884614990234375,-0.99615478515625,-0.0064544677734375,-0.0194549560546875
1773790763059577900,10.904577880859375,-0.9959716796875,-0.00665283203125,-0.0208892822265625
1773790763079542000,10.9245419921875,-0.9954071044921875,-0.0070037841796875,-0.019866943359375
1773790763099505000,10.9445048828125,-0.99609375,-0.0064239501953125,-0.0212554931640625
1773790763119468800,10.96446875,-0.9960479736328125,-0.0084075927734375,-0.019744873046875
1773790763139432000,10.984431884765625,-0.99615478515625,-0.007415771484375,-0.020965576171875
1773790763159395800,11.004395751953124,-0.99566650390625,-0.0069580078125,-0.0212554931640625
1773790763179359000,11.02435888671875,-0.995208740234375,-0.007232666015625,-0.0216064453125
1773790763199323000,11.044322998046875,-0.997039794921875,-0.007720947265625,-0.01959228515625
1773790763219286000,11.0642861328125,-0.995330810546875,-0.007965087890625,-0.021942138671875
1773790763239248600,11.08424853515625,-0.9965057373046875,-0.006988525390625,-0.02032470703125
1773790763259213000,11.104213134765626,-0.99639892578125,-0.0075225830078125,-0.0205230712890625
1773790763279175700,11.12417578125,-0.996429443359375,-0.0061798095703125,-0.0209808349609375
1773790763299140000,11.14414013671875,-0.9954376220703125,-0.0080718994140625,-0.0205535888671875
1773790763319102700,11.164102783203125,-0.9950408935546875,-0.00677490234375,-0.0200653076171875
1773790763339067000,11.18406689453125,-0.9951171875,-0.007171630859375,-0.020477294921875
1773790763359029800,11.20402978515625,-0.9954833984375,-0.007659912109375,-0.0204315185546875
1773790763378993700,11.22399365234375,-0.9966888427734375,-0.0071868896484375,-0.020660400390625
1773790763398956800,11.243956787109376,-0.99530029296875,-0.006988525390625,-0.0201873779296875
1773790763418919700,11.263919677734375,-0.9953155517578125,-0.0079498291015625,-0.020965576171875
1773790763438883800,11.2838837890625,-0.99755859375,-0.0078277587890625,-0.020538330078125
1773790763458846700,11.3038466796875,-0.996551513671875,-0.0069580078125,-0.0208740234375
1773790763478811000,11.323810791015624,-0.9950408935546875,-0.008026123046875,-0.0189208984375
1773790763498773800,11.343773681640625,-0.9951324462890625,-0.0077972412109375,-0.020233154296875
1773790763518738000,11.363738037109375,-0.9955291748046875,-0.0079803466796875,-0.0197906494140625
1773790763538700800,11.38370068359375,-0.995819091796875,-0.0081329345703125,-0.019683837890625
1773790763558664700,11.403664794921875,-0.9954681396484375,-0.008758544921875,-0.0210418701171875
1773790763578627800,11.4236279296875,-0.9955902099609375,-0.0062103271484375,-0.020477294921875
1773790763598591700,11.443591796875,-0.9953460693359375,-0.005889892578125,-0.020904541015625
1773790763618555000,11.463554931640624,-0.9950714111328125,-0.0077362060546875,-0.0202789306640625
1773790763638517800,11.483517822265625,-0.9951934814453125,-0.00732421875,-0.0210418701171875
1773790763658482000,11.50348193359375,-0.995941162109375,-0.0069122314453125,-0.0198974609375
1773790763678444800,11.52344482421875,-0.9964752197265625,-0.0078277587890625,-0.0204315185546875
1773790763698409000,11.543408935546875,-0.9943084716796875,-0.0064239501953125,-0.0208587646484375
1773790763718371800,11.563371826171876,-0.995513916015625,-0.00732421875,-0.0203094482421875
1773790763738335700,11.583335693359375,-0.9951171875,-0.0071258544921875,-0.01983642578125
1773790763758299000,11.603298828125,-0.9958038330078125,-0.0077667236328125,-0.0208740234375
1773790763778262800,11.6232626953125,-0.9956207275390625,-0.0081329345703125,-0.0194091796875
1773790763798226000,11.643225830078125,-0.99560546875,-0.007568359375,-0.0207672119140625
1773790763818189800,11.66318994140625,-0.996337890625,-0.007904052734375,-0.0214691162109375
1773790763838153000,11.683153076171875,-0.9955291748046875,-0.0066986083984375,-0.021484375
1773790763858115800,11.70311572265625,-0.995758056640625,-0.006622314453125,-0.02099609375
1773790763878080000,11.723080078125,-0.995758056640625,-0.00665283203125,-0.020111083984375
1773790763898043000,11.74304296875,-0.9957427978515625,-0.0067138671875,-0.021820068359375
1773790763918007600,11.763007568359376,-0.99591064453125,-0.007476806640625,-0.02093505859375
1773790763937970700,11.782970703125,-0.996185302734375,-0.007781982421875,-0.0216217041015625
1773790763957934600,11.8029345703125,-0.9958648681640625,-0.007415771484375,-0.0197296142578125
1773790763977897700,11.822897705078125,-0.9956817626953125,-0.007110595703125,-0.0213470458984375
1773790763997861600,11.842861572265624,-0.9949798583984375,-0.0072174072265625,-0.0201416015625
1773790764017824800,11.86282470703125,-0.995330810546875,-0.0068206787109375,-0.020843505859375
1773790764037787600,11.88278759765625,-0.9959564208984375,-0.0083160400390625,-0.0218505859375
1773790764057751600,11.90275146484375,-0.99560546875,-0.006317138671875,-0.0209503173828125
1773790764077714700,11.922714599609375,-0.995330810546875,-0.00677490234375,-0.0201873779296875
1773790764097678600,11.9426787109375,-0.996490478515625,-0.0076751708984375,-0.0210723876953125
1773790764117641700,11.962641845703125,-0.9963836669921875,-0.007568359375,-0.021575927734375
1773790764137605600,11.982605712890624,-0.9972686767578125,-0.00701904296875,-0.0209808349609375
1773790764157568800,12.00256884765625,-0.995147705078125,-0.00762939453125,-0.021026611328125
1773790764177531600,12.02253173828125,-0.994720458984375,-0.0055694580078125,-0.0197296142578125
1773790764197495800,12.042495849609375,-0.995697021484375,-0.006591796875,-0.02032470703125
1773790764217458700,12.062458740234375,-0.9962158203125,-0.0071258544921875,-0.021087646484375
1773790764237422600,12.082422607421876,-0.9955596923828125,-0.007171630859375,-0.0213470458984375
1773790764257385700,12.1023857421875,-0.99530029296875,-0.006622314453125,-0.0208282470703125
1773790764277349600,12.122349609375,-0.996490478515625,-0.0072021484375,-0.0205841064453125
1773790764297312800,12.142312744140625,-0.9962005615234375,-0.008453369140625,-0.0210418701171875
1773790764317276700,12.162276611328124,-0.995635986328125,-0.0077056884765625,-0.0208740234375
1773790764337239600,12.182239501953125,-0.99603271484375,-0.0074462890625,-0.021453857421875
1773790764357202400,12.202202392578124,-0.9957733154296875,-0.0073089599609375,-0.0214385986328125
1773790764377166600,12.22216650390625,-0.9962310791015625,-0.006072998046875,-0.020721435546875
1773790764397129500,12.24212939453125,-0.9959259033203125,-0.0066375732421875,-0.0202178955078125
1773790764417093600,12.26209375,-0.9954071044921875,-0.0080718994140625,-0.0206756591796875
1773790764437056500,12.282056396484375,-0.9951934814453125,-0.0064849853515625,-0.0208587646484375
1773790764457020400,12.3020205078125,-0.9962310791015625,-0.0078277587890625,-0.021484375
1773790764476983600,12.321983642578125,-0.9961090087890625,-0.0057373046875,-0.0200653076171875
1773790764496946700,12.34194677734375,-0.9947662353515625,-0.007965087890625,-0.0224456787109375
1773790764516910600,12.36191064453125,-0.9959869384765625,-0.0084075927734375,-0.0216522216796875
1773790764536873500,12.38187353515625,-0.996185302734375,-0.007080078125,-0.0207366943359375
1773790764556837600,12.401837646484376,-0.9948272705078125,-0.0078277587890625,-0.0210723876953125
1773790764576800500,12.421800537109375,-0.9964447021484375,-0.006744384765625,-0.021331787109375
1773790764596764700,12.4417646484375,-0.99591064453125,-0.0087432861328125,-0.020294189453125
1773790764616727600,12.4617275390625,-0.994171142578125,-0.0070648193359375,-0.020782470703125
1773790764636691500,12.48169140625,-0.995941162109375,-0.006988525390625,-0.021087646484375
1773790764656654600,12.501654541015625,-0.9948883056640625,-0.0074310302734375,-0.022430419921875
1773790764676617700,12.52161767578125,-0.995086669921875,-0.007476806640625,-0.020751953125
1773790764696581600,12.54158154296875,-0.9956817626953125,-0.00714111328125,-0.02044677734375
1773790764716544500,12.56154443359375,-0.9947662353515625,-0.007354736328125,-0.0205535888671875
1773790764736508700,12.5815087890625,-0.995697021484375,-0.0064544677734375,-0.021697998046875
1773790764756471600,12.601471435546875,-0.9954833984375,-0.0076141357421875,-0.0209503173828125
1773790764776435700,12.621435791015625,-0.9949188232421875,-0.0077362060546875,-0.02056884765625
1773790764796398600,12.641398681640625,-0.9958343505859375,-0.0060272216796875,-0.021575927734375
1773790764816361700,12.66136181640625,-0.9961700439453125,-0.0070648193359375,-0.0190582275390625
1773790764836325600,12.68132568359375,-0.9960479736328125,-0.006744384765625,-0.0211944580078125
1773790764856288800,12.701288818359375,-0.995849609375,-0.006500244140625,-0.0206146240234375
1773790764876252700,12.721252685546874,-0.9945220947265625,-0.006011962890625,-0.020751953125
1773790764896215600,12.741215576171875,-0.9953155517578125,-0.00811767578125,-0.0208282470703125
1773790764916178200,12.76117822265625,-0.9960479736328125,-0.0068359375,-0.0203704833984375
1773790764936142000,12.78114208984375,-0.9951629638671875,-0.007781982421875,-0.0207366943359375
1773790764956105200,12.801105224609374,-0.9959259033203125,-0.0058135986328125,-0.0201568603515625
1773790764976069000,12.821069091796875,-0.9964447021484375,-0.00726318359375,-0.021484375
1773790764996032300,12.8410322265625,-0.9958648681640625,-0.0066986083984375,-0.0207061767578125
1773790765015996200,12.86099609375,-0.995758056640625,-0.0074310302734375,-0.0215606689453125
1773790765035959300,12.880959228515625,-0.9931793212890625,-0.0069732666015625,-0.02093505859375
1773790765055922200,12.900922119140626,-0.9964141845703125,-0.0062713623046875,-0.0197601318359375
1773790765075886300,12.92088623046875,-0.995330810546875,-0.007568359375,-0.0195770263671875
1773790765095849200,12.94084912109375,-0.994232177734375,-0.00714111328125,-0.0202789306640625
1773790765115813400,12.9608134765625,-0.996734619140625,-0.007720947265625,-0.0221710205078125
1773790765135776300,12.9807763671875,-0.99530029296875,-0.00811767578125,-0.0218658447265625
1773790765155740200,13.000740234375,-0.995361328125,-0.0069427490234375,-0.0206298828125
1773790765175703300,13.020703369140625,-0.99603271484375,-0.00665283203125,-0.0202484130859375
1773790765195666400,13.04066650390625,-0.996185302734375,-0.00726318359375,-0.02117919921875
1773790765215630300,13.06063037109375,-0.994873046875,-0.0064697265625,-0.0203857421875
1773790765235593200,13.08059326171875,-0.9955596923828125,-0.0068817138671875,-0.020050048828125
1773790765255557400,13.100557373046875,-0.9949188232421875,-0.0064849853515625,-0.0209197998046875
1773790765275520300,13.120520263671875,-0.9962310791015625,-0.0065460205078125,-0.0213623046875
1773790765295483400,13.1404833984375,-0.9960479736328125,-0.0068359375,-0.0200958251953125
1773790765315447300,13.160447265625,-0.994232177734375,-0.007415771484375,-0.0193328857421875
1773790765335410400,13.180410400390626,-0.9944000244140625,-0.0077056884765625,-0.020477294921875
1773790765355374300,13.200374267578125,-0.995635986328125,-0.007080078125,-0.0213165283203125
1773790765375337500,13.22033740234375,-0.995941162109375,-0.006927490234375,-0.0210113525390625
1773790765395301400,13.24030126953125,-0.9959869384765625,-0.00750732421875,-0.0208892822265625
1773790765415264300,13.26026416015625,-0.9962921142578125,-0.0069122314453125,-0.02081298828125
1773790765435227100,13.28022705078125,-0.995697021484375,-0.0086517333984375,-0.0190887451171875
1773790765455191000,13.30019091796875,-0.9951934814453125,-0.007110595703125,-0.01995849609375
1773790765475154200,13.320154296875,-0.995574951171875,-0.00634765625,-0.0201416015625
1773790765495118000,13.3401181640625,-0.9966583251953125,-0.007598876953125,-0.021087646484375
1773790765515081200,13.360081298828124,-0.99578857421875,-0.0075225830078125,-0.021240234375
1773790765535045000,13.380045166015625,-0.99481201171875,-0.0062408447265625,-0.0201416015625
1773790765555008300,13.40000830078125,-0.9951019287109375,-0.0071258544921875,-0.0200347900390625
1773790765574971100,13.41997119140625,-0.995513916015625,-0.006103515625,-0.0206756591796875
1773790765594935300,13.439935302734375,-0.9954986572265625,-0.0089263916015625,-0.0212249755859375
1773790765614898200,13.459898193359376,-0.9949493408203125,-0.006927490234375,-0.0213165283203125
1773790765634862000,13.479862060546875,-0.997222900390625,-0.0070648193359375,-0.0211181640625
1773790765654825200,13.4998251953125,-0.994415283203125,-0.00701904296875,-0.020843505859375
1773790765674788400,13.519788330078125,-0.99652099609375,-0.006683349609375,-0.020660400390625
1773790765694752300,13.539752197265624,-0.995758056640625,-0.0080413818359375,-0.02142333984375
1773790765714715100,13.559715087890625,-0.99560546875,-0.0068817138671875,-0.0211334228515625
1773790765734679300,13.57967919921875,-0.9937896728515625,-0.006256103515625,-0.021453857421875
1773790765754642200,13.59964208984375,-0.996917724609375,-0.0074920654296875,-0.0204925537109375
1773790765774605300,13.619605224609375,-0.9951171875,-0.007965087890625,-0.0201873779296875
1773790765794569200,13.6395693359375,-0.9944610595703125,-0.0069732666015625,-0.0207366943359375
1773790765814532400,13.659532470703125,-0.995086669921875,-0.0072784423828125,-0.020111083984375
1773790765834496300,13.679496337890624,-0.994873046875,-0.0081787109375,-0.0205230712890625
1773790765854459400,13.69945947265625,-0.995513916015625,-0.00848388671875,-0.0201416015625
1773790765874422300,13.71942236328125,-0.9947357177734375,-0.0070037841796875,-0.0200347900390625
1773790765894386200,13.73938623046875,-0.99566650390625,-0.007293701171875,-0.0209197998046875
1773790765914349300,13.759349365234375,-0.9961395263671875,-0.00701904296875,-0.0209808349609375
1773790765934313200,13.779313232421876,-0.9966888427734375,-0.00775146484375,-0.0203857421875
1773790765954276400,13.7992763671875,-0.99530029296875,-0.00799560546875,-0.020111083984375
1773790765974239200,13.8192392578125,-0.996337890625,-0.0064544677734375,-0.0208282470703125
1773790765994203400,13.839203369140625,-0.9960479736328125,-0.0072479248046875,-0.02032470703125
1773790766014166300,13.859166259765624,-0.9955596923828125,-0.0066986083984375,-0.01971435546875
1773790766034130400,13.87913037109375,-0.99542236328125,-0.0070953369140625,-0.0215301513671875
1773790766054093300,13.89909326171875,-0.9951171875,-0.0081329345703125,-0.0211334228515625
1773790766074057200,13.91905712890625,-0.99603271484375,-0.0074615478515625,-0.019805908203125
1773790766094020000,13.93902001953125,-0.9956207275390625,-0.006683349609375,-0.0203704833984375
1773790766113983200,13.958983154296876,-0.9951019287109375,-0.0086212158203125,-0.019073486328125
1773790766133947100,13.978947021484375,-0.995269775390625,-0.006072998046875,-0.020782470703125
1773790766153910300,13.99891015625,-0.9963836669921875,-0.0075836181640625,-0.021087646484375
1773790766173874200,14.018874267578125,-0.9949188232421875,-0.00628662109375,-0.0204925537109375
1773790766193837000,14.038837158203124,-0.996429443359375,-0.0068359375,-0.020477294921875
1773790766213800200,14.05880029296875,-0.9952392578125,-0.00701904296875,-0.021026611328125
1773790766233764000,14.07876416015625,-0.9950714111328125,-0.0077667236328125,-0.0205078125
1773790766253727200,14.098727294921876,-0.9961090087890625,-0.0075225830078125,-0.0200347900390625
1773790766273691100,14.118691162109375,-0.996795654296875,-0.0074462890625,-0.020263671875
1773790766293654300,14.138654296875,-0.9963226318359375,-0.0065155029296875,-0.0210418701171875
1773790766313617200,14.1586171875,-0.995025634765625,-0.0069427490234375,-0.020538330078125
1773790766333581300,14.178581298828124,-0.9953460693359375,-0.0077972412109375,-0.0212554931640625
1773790766353544200,14.198544189453125,-0.9963226318359375,-0.0059661865234375,-0.0196380615234375
1773790766373508000,14.218508056640625,-0.996673583984375,-0.00665283203125,-0.0204315185546875
1773790766393471200,14.23847119140625,-0.9948577880859375,-0.0087738037109375,-0.0212554931640625
1773790766413434400,14.258434326171875,-0.9954833984375,-0.0072021484375,-0.02081298828125
1773790766433398300,14.278398193359376,-0.995086669921875,-0.0065155029296875,-0.0209197998046875
1773790766453361200,14.298361083984375,-0.9962005615234375,-0.007049560546875,-0.0195770263671875
1773790766473325300,14.3183251953125,-0.995330810546875,-0.0062408447265625,-0.020904541015625
1773790766493288200,14.3382880859375,-0.996246337890625,-0.0076446533203125,-0.0194549560546875
1773790766513251300,14.358251220703124,-0.996429443359375,-0.0067291259765625,-0.0218048095703125
1773790766533215200,14.37821533203125,-0.9946136474609375,-0.007232666015625,-0.0210113525390625
1773790766553178400,14.398178466796875,-0.99639892578125,-0.00762939453125,-0.0204925537109375
1773790766573141200,14.418141357421876,-0.9956512451171875,-0.0067901611328125,-0.020721435546875
1773790766593105400,14.43810546875,-0.995391845703125,-0.007110595703125,-0.020660400390625
1773790766613068300,14.458068359375,-0.9964141845703125,-0.0072784423828125,-0.021392822265625
1773790766633032400,14.478032470703125,-0.99554443359375,-0.0074920654296875,-0.021148681640625
1773790766652995300,14.497995361328124,-0.9952850341796875,-0.006805419921875,-0.0203704833984375
1773790766672958200,14.517958251953125,-0.9954833984375,-0.007904052734375,-0.0209503173828125
1773790766692922400,14.53792236328125,-0.9946441650390625,-0.007843017578125,-0.0203704833984375
1773790766712885200,14.55788525390625,-0.995361328125,-0.0070953369140625,-0.0208892822265625
1773790766732849400,14.577849365234375,-0.99542236328125,-0.0067901611328125,-0.0208587646484375
1773790766752812000,14.59781201171875,-0.9938507080078125,-0.00787353515625,-0.0193939208984375
1773790766772775200,14.617775146484375,-0.99652099609375,-0.0061492919921875,-0.0202789306640625
1773790766792739000,14.637739013671874,-0.9970855712890625,-0.0065460205078125,-0.01983642578125
1773790766812702200,14.6577021484375,-0.996063232421875,-0.0074615478515625,-0.021759033203125
1773790766832666000,14.677666015625,-0.99530029296875,-0.006866455078125,-0.0199127197265625
1773790766852629200,14.697629150390625,-0.995208740234375,-0.0075225830078125,-0.0217742919921875
1773790766872592100,14.717592041015624,-0.99554443359375,-0.006317138671875,-0.020538330078125
1773790766892556300,14.737556396484376,-0.995635986328125,-0.0067291259765625,-0.0206298828125
1773790766912518700,14.7575185546875,-0.994232177734375,-0.007110595703125,-0.0202789306640625
1773790766932482800,14.77748291015625,-0.995361328125,-0.006317138671875,-0.0211334228515625
1773790766952445700,14.79744580078125,-0.9953765869140625,-0.006622314453125,-0.02056884765625
1773790766972408800,14.817408935546876,-0.99560546875,-0.0067291259765625,-0.02093505859375
1773790766992372700,14.837372802734375,-0.9949951171875,-0.006866455078125,-0.0210113525390625
1773790767012335900,14.8573359375,-0.9956817626953125,-0.0080413818359375,-0.021148681640625
1773790767032299800,14.8772998046875,-0.99462890625,-0.0068359375,-0.021392822265625
1773790767052262700,14.8972626953125,-0.99627685546875,-0.0075531005859375,-0.021148681640625
1773790767072225800,14.917225830078126,-0.9954071044921875,-0.00677490234375,-0.019989013671875
1773790767092189700,14.937189697265625,-0.99603271484375,-0.0073089599609375,-0.0195770263671875
1773790767112152800,14.95715283203125,-0.996063232421875,-0.00701904296875,-0.0213470458984375
1773790767132116700,14.97711669921875,-0.9949188232421875,-0.007293701171875,-0.0216217041015625
1773790767152080000,14.997079833984374,-0.996551513671875,-0.0072174072265625,-0.0209808349609375
1773790767172042800,15.017042724609375,-0.99658203125,-0.0073089599609375,-0.0212249755859375
1773790767192007000,15.0370068359375,-0.9959716796875,-0.00701904296875,-0.02001953125
1773790767211969800,15.0569697265625,-0.9966888427734375,-0.0075225830078125,-0.0202178955078125
1773790767231934000,15.076933837890625,-0.99505615234375,-0.0058135986328125,-0.0215606689453125
1773790767251896800,15.096896728515626,-0.995819091796875,-0.00787353515625,-0.0212554931640625
1773790767271860000,15.11685986328125,-0.9950103759765625,-0.007110595703125,-0.021392822265625
1773790767291823900,15.136823974609374,-0.9961395263671875,-0.006744384765625,-0.02197265625
1773790767311787000,15.156787109375,-0.9959716796875,-0.0070037841796875,-0.020294189453125
1773790767331751000,15.1767509765625,-0.995086669921875,-0.0075836181640625,-0.0207366943359375
1773790767351713800,15.1967138671875,-0.996673583984375,-0.0067901611328125,-0.0211944580078125
1773790767371676700,15.2166767578125,-0.9962310791015625,-0.0076904296875,-0.019287109375
1773790767391640800,15.236640869140626,-0.995208740234375,-0.007110595703125,-0.020843505859375
1773790767411603700,15.256603759765625,-0.995361328125,-0.0070953369140625,-0.02069091796875
1773790767431567600,15.276567626953126,-0.994415283203125,-0.00811767578125,-0.0205078125
1773790767451530800,15.29653076171875,-0.9952545166015625,-0.006011962890625,-0.0211181640625
1773790767471493600,15.31649365234375,-0.9967498779296875,-0.0066070556640625,-0.0206146240234375
1773790767491457800,15.336457763671875,-0.9948272705078125,-0.0074310302734375,-0.021270751953125
1773790767511420700,15.356420654296874,-0.995697021484375,-0.0073089599609375,-0.0204315185546875
1773790767531384800,15.376384765625,-0.9954986572265625,-0.007568359375,-0.02166748046875
1773790767551347700,15.39634765625,-0.9960479736328125,-0.0068359375,-0.02105712890625
1773790767571310800,15.416310791015626,-0.995147705078125,-0.0076141357421875,-0.0197296142578125
1773790767591274800,15.436274658203125,-0.9945831298828125,-0.0075531005859375,-0.0204620361328125
1773790767611238000,15.45623779296875,-0.995819091796875,-0.0065155029296875,-0.0208282470703125
1773790767631201800,15.476201904296875,-0.9954071044921875,-0.006561279296875,-0.0190582275390625
1773790767651164700,15.49616455078125,-0.996307373046875,-0.007904052734375,-0.02093505859375
1773790767671127800,15.5161279296875,-0.995635986328125,-0.007537841796875,-0.0203704833984375
1773790767691091700,15.536091796875,-0.99554443359375,-0.00689697265625,-0.0205535888671875
1773790767711054800,15.556054931640626,-0.9958648681640625,-0.0078277587890625,-0.0208740234375
1773790767731017700,15.576017822265625,-0.9959716796875,-0.0066375732421875,-0.0208892822265625
1773790767750982000,15.59598193359375,-0.9946441650390625,-0.0069122314453125,-0.020782470703125
1773790767770944800,15.61594482421875,-0.996185302734375,-0.006805419921875,-0.0209197998046875
1773790767790909000,15.635908935546874,-0.9948883056640625,-0.006591796875,-0.019287109375
1773790767810871800,15.655871826171875,-0.9962310791015625,-0.0075225830078125,-0.0205535888671875
1773790767830835000,15.6758349609375,-0.995147705078125,-0.00775146484375,-0.0210113525390625
1773790767850798800,15.695798828125,-0.995025634765625,-0.0063629150390625,-0.0205535888671875
1773790767870762000,15.715761962890625,-0.9958648681640625,-0.0076141357421875,-0.0205841064453125
1773790767890726000,15.735725830078126,-0.99560546875,-0.0064697265625,-0.01995849609375
1773790767910688800,15.755688720703125,-0.9970855712890625,-0.00640869140625,-0.0214385986328125
1773790767930652000,15.77565185546875,-0.9964447021484375,-0.0071563720703125,-0.020843505859375
1773790767950615800,15.79561572265625,-0.996337890625,-0.0075836181640625,-0.0209808349609375
1773790767970579000,15.815578857421874,-0.995819091796875,-0.0082855224609375,-0.0208282470703125
1773790767990542800,15.83554296875,-0.9947509765625,-0.0064239501953125,-0.021087646484375
1773790768010506000,15.855506103515625,-0.996185302734375,-0.0079193115234375,-0.0207061767578125
1773790768030468900,15.87546875,-0.9949188232421875,-0.00726318359375,-0.02069091796875
1773790768050433000,15.89543310546875,-0.9952545166015625,-0.0076141357421875,-0.02099609375
1773790768070396000,15.91539599609375,-0.9956512451171875,-0.006744384765625,-0.020843505859375
1773790768090359000,15.935359130859375,-0.9954681396484375,-0.005706787109375,-0.020751953125
1773790768110323000,15.955322998046874,-0.99609375,-0.0076446533203125,-0.02069091796875
1773790768130286000,15.9752861328125,-0.9960479736328125,-0.0073394775390625,-0.0219573974609375
1773790768150250000,15.99525,-0.99566650390625,-0.0072479248046875,-0.02166748046875
1773790768170212900,16.015212890625,-0.9967803955078125,-0.0075225830078125,-0.019317626953125
1773790768190176000,16.035176025390626,-0.9961700439453125,-0.00738525390625,-0.0214080810546875
1773790768210140000,16.055139892578126,-0.99688720703125,-0.0083770751953125,-0.019866943359375
1773790768230103000,16.07510302734375,-0.9946136474609375,-0.005889892578125,-0.020782470703125
1773790768250067000,16.09506689453125,-0.996185302734375,-0.007232666015625,-0.0202484130859375
1773790768270030000,16.115030029296875,-0.9966278076171875,-0.0074005126953125,-0.0209197998046875
1773790768289993000,16.134992919921874,-0.9957122802734375,-0.00775146484375,-0.0212860107421875
1773790768309957000,16.15495703125,-0.9956207275390625,-0.007171630859375,-0.02093505859375
1773790768329920000,16.174919921875,-0.995513916015625,-0.0074005126953125,-0.021270751953125
1773790768349883100,16.194883056640624,-0.99591064453125,-0.006591796875,-0.021026611328125
1773790768369847000,16.214846923828127,-0.9957733154296875,-0.006927490234375,-0.021331787109375
1773790768389810200,16.23481005859375,-0.9957275390625,-0.0064697265625,-0.0208587646484375
1773790768409774000,16.254774169921873,-0.99627685546875,-0.0067138671875,-0.020843505859375
1773790768429737200,16.2747373046875,-0.9942474365234375,-0.008392333984375,-0.0206756591796875
1773790768449699800,16.294699951171875,-0.9970245361328125,-0.00714111328125,-0.0206451416015625
1773790768469664000,16.3146640625,-0.9962158203125,-0.00677490234375,-0.021026611328125
1773790768489627000,16.334626953125,-0.9963531494140625,-0.0084075927734375,-0.021881103515625
1773790768509591000,16.354591064453125,-0.9960479736328125,-0.006744384765625,-0.0206298828125
1773790768529554000,16.374553955078124,-0.995513916015625,-0.0068511962890625,-0.020233154296875
1773790768549516800,16.394516845703127,-0.9957733154296875,-0.0076751708984375,-0.021575927734375
1773790768569481000,16.41448095703125,-0.99554443359375,-0.0079498291015625,-0.0207061767578125
1773790768589443800,16.43444384765625,-0.995849609375,-0.008148193359375,-0.020721435546875
1773790768609408000,16.454407958984376,-0.9958038330078125,-0.0071258544921875,-0.020721435546875
1773790768629371000,16.474370849609375,-0.996063232421875,-0.0066070556640625,-0.020050048828125
1773790768649334000,16.494333984375,-0.996124267578125,-0.0069732666015625,-0.0209503173828125
1773790768669298000,16.5142978515625,-0.995452880859375,-0.007720947265625,-0.0203399658203125
1773790768689261000,16.534260986328125,-0.996368408203125,-0.0060882568359375,-0.0206298828125
1773790768709224000,16.554223876953124,-0.9954833984375,-0.0079193115234375,-0.0198974609375
1773790768729187800,16.574187744140627,-0.9954833984375,-0.007659912109375,-0.0202484130859375
1773790768749151000,16.59415087890625,-0.996063232421875,-0.0068817138671875,-0.020660400390625
1773790768769115000,16.614114990234373,-0.9954833984375,-0.006683349609375,-0.02154541015625
1773790768789078000,16.634078125,-0.9968109130859375,-0.0069732666015625,-0.020904541015625
1773790768809041000,16.654041015625,-0.9962005615234375,-0.00616455078125,-0.021331787109375
1773790768829005000,16.674005126953126,-0.9947662353515625,-0.0067138671875,-0.021026611328125
1773790768848968000,16.693968017578126,-0.9957275390625,-0.0081329345703125,-0.0205535888671875
1773790768868932000,16.71393212890625,-0.9957122802734375,-0.006256103515625,-0.0219573974609375
1773790768888895000,16.73389501953125,-0.9964141845703125,-0.007232666015625,-0.0208892822265625
1773790768908857900,16.75385791015625,-0.9956512451171875,-0.0069427490234375,-0.01983642578125
1773790768928821800,16.77382177734375,-0.9966888427734375,-0.0085906982421875,-0.0216064453125
1773790768948785000,16.793784912109373,-0.9964141845703125,-0.007354736328125,-0.019805908203125
1773790768968748800,16.813748779296876,-0.9958038330078125,-0.0068206787109375,-0.0212860107421875
1773790768988712000,16.8337119140625,-0.996826171875,-0.0077972412109375,-0.0196990966796875
1773790769008674800,16.8536748046875,-0.995330810546875,-0.0069580078125,-0.020355224609375
1773790769028638700,16.873638671875,-0.996063232421875,-0.0063629150390625,-0.0203704833984375
