time,seconds_elapsed,z,y,x
1773790752205643300,0.050643310546875,-0.00037390782381407917,-0.0018668759148567915,-0.0070760189555585384
1773790752225607200,0.070607177734375,-0.00035260253935121,-0.0033808830194175243,-0.00532419141381979
1773790752245571000,0.090571044921875,-0.0012261193478479981,-0.0031180288642644882,-0.004245345015078783
1773790752265534200,0.1105341796875,-0.0014713965356349945,-0.003385676769539714,-0.005412076134234667
1773790752289242400,0.134242431640625,-0.00024767397553659976,-0.002645584288984537,-0.005960953421890736
1773790752309206300,0.154206298828125,-0.0003304982965346426,-0.004000866785645485,-0.0057652113027870655
1773790752329169200,0.174169189453125,0.0003587277897167951,-0.0021233384031802416,-0.005286907311528921
1773790752349133300,0.19413330078125,0.0008548747282475233,-0.003890611929818988,-0.005419000051915646
1773790752369097200,0.21409716796875,0.000022636868379777297,-0.003364371368661523,-0.005268265027552843
1773790752389060400,0.234060302734375,-0.0008815063047222793,-0.003995007835328579,-0.005758020561188459
1773790752409024300,0.254024169921875,-0.00063356600003317,-0.0033542513847351074,-0.005739644635468721
1773790752428988200,0.27398828125,-0.00031851406674832106,-0.002585130510851741,-0.006922088097780943
1773790752448951300,0.293951416015625,0.000544350128620863,-0.003349723992869258,-0.005455751903355122
1773790752468915200,0.313915283203125,-0.0006375607335940003,-0.0032003207597881556,-0.004947620443999767
1773790752488879000,0.333879150390625,-0.0003880225704051554,-0.0027659591287374496,-0.005520200356841087
1773790752508842200,0.35384228515625,0.00046072687837295234,-0.0037766287568956614,-0.004860268905758858
1773790752528806100,0.37380615234375,0.0013845774810761213,-0.003442401997745037,-0.005390504375100136
1773790752548770300,0.393770263671875,-0.0004743089957628399,-0.003108441596850753,-0.0057439059019088745
1773790752568733200,0.413733154296875,-0.0014796522445976734,-0.002770220162346959,-0.00657454552128911
1773790752588697000,0.433697021484375,0.0005190501105971634,-0.0030184267088770866,-0.005396896041929722
1773790752608660200,0.45366015625,0.0007339671719819307,-0.003081809962168336,-0.005260542035102844
1773790752628624100,0.4736240234375,-0.0006942860782146454,-0.003600061172619462,-0.005597964394837618
1773790752648588300,0.49358837890625,0.001315335277467966,-0.0017025588313117623,-0.005750563926994801
1773790752668551200,0.51355126953125,0.00033662354690022767,-0.0017480988753959537,-0.007470965851098299
1773790752688514300,0.533514404296875,-0.0003784351865760982,-0.003406715579330921,-0.005407814867794514
1773790752708478200,0.553478271484375,-0.0013752563390880823,-0.002758768619969487,-0.005633917171508074
1773790752728441300,0.57344140625,0.0005166532355360687,-0.003591006388887763,-0.005747634451836348
1773790752748405200,0.5934052734375,0.00004367584188003093,-0.0023148194886744022,-0.006708502769470215
1773790752768369200,0.613369140625,-0.0005424859118647873,-0.0044083306565880775,-0.003962783608585596
1773790752788332300,0.633332275390625,-0.0012990899849683046,-0.0030370689928531647,-0.004229898564517498
1773790752808296200,0.653296142578125,-0.00009720538218971342,-0.002448510378599167,-0.0054301852360367775
1773790752828260000,0.673260009765625,-0.0011536814272403717,-0.0028578380588442087,-0.0060115535743534565
1773790752848223200,0.69322314453125,-0.00019973708549514413,-0.004710599314421415,-0.00686110183596611
1773790752868187100,0.713187255859375,-0.00008841694943839684,-0.004010187927633524,-0.0044022053480148315
1773790752888151300,0.7331513671875,-0.00016484966909047216,-0.003662112867459655,-0.0049532135017216206
1773790752908114400,0.753114501953125,-0.0002798982313834131,-0.0026194851379841566,-0.00481206551194191
1773790752928078300,0.773078369140625,0.00020106865849811584,-0.003153981640934944,-0.004346811678260565
1773790752948041500,0.79304150390625,-0.0008647284121252596,-0.003397128311917186,-0.0060110208578407764
1773790752968005400,0.81300537109375,0.00003968110104324296,-0.003990214318037033,-0.005586512852460146
1773790752987969300,0.83296923828125,-0.0006231797160580754,-0.0030929953791201115,-0.0051931641064584255
1773790753007932400,0.852932373046875,0.001526523963548243,-0.003509779926389456,-0.005702094174921513
1773790753027896300,0.872896240234375,-0.0009478190331719816,-0.0035896748304367065,-0.0052080778405070305
1773790753047860500,0.892860595703125,-0.00010066748654935509,-0.004486361052840948,-0.004345479886978865
1773790753067823400,0.9128232421875,-0.0003635214816313237,-0.0032653016969561577,-0.006131395697593689
1773790753087787300,0.932787353515625,0.0011520835105329752,-0.002882871776819229,-0.004762530792504549
1773790753107750400,0.95275048828125,-0.0015816513914614916,-0.0031382690649479628,-0.005644037388265133
1773790753127714300,0.97271435546875,-0.0017872473690658808,-0.004226702731102705,-0.005933256354182959
1773790753147678500,0.992678466796875,-0.0001030643325066194,-0.0022205437999218702,-0.004034955520182848
1773790753167641300,1.012641357421875,-0.0007640608819201589,-0.002386192325502634,-0.006334594916552305
1773790753187605500,1.03260546875,-0.001660214620642364,-0.0029739518649876118,-0.005420065484941006
1773790753207569700,1.052569580078125,-0.00031611722079105675,-0.00227806787006557,-0.0062879896722733974
1773790753227532300,1.0725322265625,-0.000441818410763517,-0.00321869645267725,-0.005785983521491289
1773790753247496700,1.09249658203125,0.000404534162953496,-0.003370496677234769,-0.005530586466193199
1773790753267460600,1.112460693359375,-0.0004964132094755769,-0.0032655680552124977,-0.006244846619665623
1773790753287423500,1.132423583984375,-0.0004809668753296137,-0.0036693033762276173,-0.006562827620655298
1773790753307387600,1.1523876953125,-0.0007890945998951793,-0.0028690234757959843,-0.004620318301022053
1773790753327350300,1.172350341796875,0.00004314320904086344,-0.002314553363248706,-0.004487959202378988
1773790753347314700,1.192314697265625,-0.0007611314067617059,-0.0027798074297606945,-0.006392118986696005
1773790753367278600,1.212278564453125,-0.0006543386843986809,-0.0046267095021903515,-0.005785451270639896
1773790753387241700,1.23224169921875,0.00003914846820407547,-0.003064233111217618,-0.004720719531178474
1773790753407205600,1.25220556640625,-0.0005462143453769386,-0.003722566645592451,-0.004369448404759169
1773790753427169500,1.27216943359375,-0.001303351018577814,-0.0026077672373503447,-0.0065684206783771515
1773790753447132700,1.292132568359375,0.000621848099399358,-0.002019208623096347,-0.0055228634737432
1773790753467096600,1.3120966796875,0.0007094661123119295,-0.0022895196452736855,-0.0054730623960494995
1773790753487059700,1.332059814453125,-0.0013949638232588768,-0.0026373283471912146,-0.004341484978795052
1773790753507023600,1.352023681640625,-0.0005584649043157697,-0.0035004590172320604,-0.00574843306094408
1773790753526987500,1.371987548828125,-0.0012903015594929457,-0.0034314829390496016,-0.0049287122674286366
1773790753546950700,1.39195068359375,-0.0007901599165052176,-0.0022365227341651917,-0.005609150044620037
1773790753566914600,1.41191455078125,0.00013875069271307439,-0.0018122810870409012,-0.005105812568217516
1773790753586878500,1.43187841796875,-0.0016450346447527409,-0.002347842790186405,-0.006172941066324711
1773790753606841600,1.451841552734375,0.0005629922379739583,-0.002739860210567713,-0.006482666824012995
1773790753626805500,1.471805419921875,-0.0006391586503013968,-0.0031790153589099646,-0.0062339273281395435
1773790753646768600,1.4917685546875,0.0009257147903554142,-0.0018152105621993542,-0.00626002624630928
1773790753666732500,1.511732666015625,-0.0000876179983606562,-0.0030594393610954285,-0.005437375977635384
1773790753686696400,1.531696533203125,-0.0017334514996036887,-0.003737214021384716,-0.00669278996065259
1773790753706659600,1.55165966796875,-0.0008772452711127698,-0.0030562435276806355,-0.0054821171797811985
1773790753726623500,1.57162353515625,0.00011531487689353526,-0.003284476464614272,-0.004833637271076441
1773790753746586600,1.591586669921875,-0.0010183927370235324,-0.0034061830956488848,-0.0054972972720861435
1773790753766550500,1.611550537109375,-0.0006926882197149098,-0.0028767467010766268,-0.005950300954282284
1773790753786514400,1.631514404296875,-0.000592287047766149,-0.0020714066922664642,-0.007072024047374725
1773790753806477600,1.6514775390625,-0.00013448962999973446,-0.0038077877834439278,-0.005667206831276417
1773790753826441500,1.67144140625,-0.00016351809608750045,-0.0037289580795913935,-0.004988100845366716
1773790753846405600,1.691405517578125,-0.001065264455974102,-0.0033214944414794445,-0.004917793441563845
1773790753866368500,1.711368408203125,-0.0002889529860112816,-0.0027031085919588804,-0.006007825024425983
1773790753886332400,1.73133251953125,0.00013502225920092314,-0.003489007242023945,-0.004573446698486805
1773790753906295300,1.75129541015625,-0.0011225224006921053,-0.0029236183036118746,-0.005666141398251057
1773790753926259200,1.77125927734375,0.000037017940485384315,-0.0025774072855710983,-0.00592420157045126
1773790753946223400,1.791223388671875,0.0005510080372914672,-0.0018271948210895061,-0.005201419815421104
1773790753966186200,1.811186279296875,0.000031691615731688216,-0.0041542649269104,-0.006208361126482487
1773790753986150100,1.831150146484375,0.0005462143453769386,-0.003041330026462674,-0.005071723833680153
1773790754006114300,1.8511142578125,-0.0002055960358120501,-0.00253453035838902,-0.004713262431323528
1773790754026077200,1.8710771484375,0.0011475561186671257,-0.0031529164407402277,-0.006256564520299435
1773790754046041300,1.891041259765625,-0.0008820389630272985,-0.00233825552277267,-0.006159359123557806
1773790754066004200,1.911004150390625,-0.00021172130072955042,-0.002895122393965721,-0.005262672435492277
1773790754085968100,1.930968017578125,-0.00006338323146337643,-0.003448527306318283,-0.0057433731853961945
1773790754105932300,1.950932373046875,-0.000502804818097502,-0.0030562435276806355,-0.0043987431563436985
1773790754125895200,1.970895263671875,-0.0003616572648752481,-0.002686330582946539,-0.006166815757751465
1773790754145859300,1.990859375,-0.00007163903501350433,-0.0041372207924723625,-0.006708769127726555
1773790754165822200,2.010822265625,-0.00010439591278554872,-0.0037888791412115097,-0.00569996377453208
1773790754185786400,2.030786376953125,0.0012831110507249832,-0.0038868836127221584,-0.004795287735760212
1773790754205750300,2.050750244140625,-0.00018029600323643535,-0.002662362065166235,-0.007413441315293312
1773790754225713200,2.070713134765625,0.0005424859118647873,-0.0020101540721952915,-0.0054885088466107845
1773790754245677300,2.09067724609375,-0.0002924150903709233,-0.003306048223748803,-0.005344165489077568
1773790754265640200,2.11064013671875,-0.0015552861150354147,-0.002681004349142313,-0.006304767448455095
1773790754285604400,2.130604248046875,-0.0002644518972374499,-0.002695651724934578,-0.005269330460578203
1773790754305568300,2.150568359375,-0.001844771672040224,-0.002216548891738057,-0.005008873529732227
1773790754325531100,2.17053125,-0.00017869810108095407,-0.002436526119709015,-0.006337258033454418
1773790754345495300,2.190495361328125,-0.0003534014686010778,-0.002466087229549885,-0.005026982631534338
1773790754365459200,2.210459228515625,-0.0002633866388350725,-0.002126534003764391,-0.005845372099429369
1773790754385422300,2.23042236328125,-0.00029587719473056495,-0.0026943201664835215,-0.0041457428596913815
1773790754405386200,2.25038623046875,-0.0004982774262316525,-0.004433896858245134,-0.0063002402894198895
1773790754425349000,2.27034912109375,0.0012101404136046767,-0.003296727081760764,-0.005869873333722353
1773790754445313300,2.290313232421875,-0.00047084689140319824,-0.00307568465359509,-0.006981743033975363
1773790754465277200,2.310277099609375,-0.0002993392990902066,-0.0029947245493531227,-0.006565757095813751
1773790754485240300,2.330240234375,0.0010301107540726662,-0.0031380027066916227,-0.004554005339741707
1773790754505204200,2.350204345703125,-0.0017915084026753902,-0.0037947380915284157,-0.006676811259239912
1773790754525167000,2.3701669921875,-0.0006436860421672463,-0.0031875374261289835,-0.005979862064123154
1773790754545131300,2.39013134765625,0.00009427589975530282,-0.002299905987456441,-0.006370281334966421
1773790754565095200,2.41009521484375,-0.0011638014111667871,-0.0023880566004663706,-0.005595301277935505
1773790754585058300,2.430058349609375,-0.0007693872321397066,-0.003320162883028388,-0.005377188324928284
1773790754605022200,2.450022216796875,-0.00044900894863530993,-0.0028067054226994514,-0.006338589824736118
1773790754624985300,2.4699853515625,-0.0008815063047222793,-0.0024567660875618458,-0.0052205948159098625
1773790754644949200,2.48994921875,-0.00088949577184394,-0.0016876452136784792,-0.005906358826905489
1773790754664913200,2.5099130859375,-0.00016405072528868914,-0.002514556748792529,-0.005320196971297264
1773790754684876300,2.529876220703125,-0.000594950164668262,-0.0037614486645907164,-0.005422195885330439
1773790754704840200,2.549840087890625,-0.00009321063407696784,-0.0028362665325403214,-0.0065284729935228825
1773790754724803300,2.56980322265625,0.00006364954606397077,-0.003590473672375083,-0.00609437795355916
1773790754744767200,2.589767333984375,-0.00041784998029470444,-0.0021963089238852262,-0.005008340813219547
1773790754764731100,2.609731201171875,-0.000055393749789800495,-0.003257844829931855,-0.0065010422840714455
1773790754784694300,2.6296943359375,-0.0007893609581515193,-0.00410552928224206,-0.0065537733025848866
1773790754804658200,2.649658203125,-0.0010365023044869304,-0.0024855281226336956,-0.006647782865911722
1773790754824621300,2.669621337890625,-0.0013265205780044198,-0.002939064521342516,-0.0072959959506988525
1773790754844585200,2.689585205078125,-0.0009859022684395313,-0.0021949773654341698,-0.005829659756273031
1773790754864549000,2.709549072265625,-0.0003890878288075328,-0.0024564997293055058,-0.00529729388654232
1773790754884512300,2.72951220703125,-0.0008743157959543169,-0.002296976512297988,-0.0037713022902607918
1773790754904476200,2.74947607421875,0.001068193931132555,-0.003288205014541745,-0.006785468198359013
1773790754924439300,2.769439208984375,-0.00040986048406921327,-0.0041129859164357185,-0.005915945861488581
1773790754944403200,2.7894033203125,-0.00041039311327040195,-0.0036876790691167116,-0.006578007712960243
1773790754964367000,2.8093671875,0.0002247707889182493,-0.0031214910559356213,-0.005658951122313738
1773790754984330200,2.829330322265625,-0.000010652644050423987,-0.0034208304714411497,-0.005714611150324345
1773790755004294100,2.849294189453125,-0.0007661914569325745,-0.003206712193787098,-0.007188138086348772
1773790755024257300,2.86925732421875,0.000022370553779182956,-0.0028152274899184704,-0.005404086317867041
1773790755044221200,2.88922119140625,-0.00011105381418019533,-0.0021949773654341698,-0.006058158818632364
1773790755064185000,2.90918505859375,-0.001618403010070324,-0.0034882084000855684,-0.006670153234153986
1773790755084148200,2.929148193359375,-0.0003020024741999805,-0.0033513219095766544,-0.004322310443967581
1773790755104112000,2.949112060546875,-0.0012383698485791683,-0.00239205127581954,-0.005006209947168827
1773790755124075300,2.9690751953125,0.0002820287481881678,-0.0032120386604219675,-0.0057316552847623825
1773790755144039200,2.9890390625,-0.0006825681775808334,-0.0022447784431278706,-0.00455693481490016
1773790755164003000,3.009003173828125,0.0009483516332693398,-0.003920439630746841,-0.00492125516757369
1773790755183966200,3.02896630859375,-0.0015712650492787361,-0.0033305492252111435,-0.005228850524872541
1773790755203930000,3.04893017578125,-0.0011864382540807128,-0.004773982334882021,-0.005750563926994801
1773790755223893200,3.068893310546875,-0.0005635248962789774,-0.004705006722360849,-0.006715427152812481
1773790755243857200,3.088857177734375,0.00045034053619019687,-0.0021499700378626585,-0.005245894659310579
1773790755263821000,3.108821044921875,-0.0006615291931666434,-0.0036450685001909733,-0.00490314606577158
1773790755283784200,3.1287841796875,0.0002663161139935255,-0.003230680711567402,-0.0062243398278951645
1773790755303748000,3.148748046875,-0.0003478088474366814,-0.0037859496660530567,-0.004975583869963884
1773790755323711200,3.168711181640625,-0.0003885551996063441,-0.002329733222723007,-0.006316485349088907
1773790755343675100,3.188675048828125,-0.00038589202449657023,-0.003040264593437314,-0.006049636751413345
1773790755363639000,3.20863916015625,0.0005283711361698806,-0.002098038326948881,-0.005877329967916012
1773790755383602200,3.228602294921875,0.0004889564006589353,-0.0031124362722039223,-0.0070797475054860115
1773790755403566000,3.248566162109375,-0.00015526228526141495,-0.0018101505702361465,-0.005564675200730562
1773790755423529200,3.268529296875,-0.0009211873984895647,-0.0020325244404375553,-0.004709267523139715
1773790755443493000,3.2884931640625,0.0010844392236322165,-0.003913781605660915,-0.004947620443999767
1773790755463457000,3.30845703125,-0.0011084076249971986,-0.0036852823104709387,-0.005602225661277771
1773790755483420200,3.328420166015625,-0.00011611382069531828,-0.002614957746118307,-0.005661880597472191
1773790755503384000,3.348384033203125,-0.0015153386630117893,-0.002773415995761752,-0.0059660132974386215
1773790755523347200,3.36834716796875,0.0008013451588340104,-0.00424188282340765,-0.004874649923294783
1773790755543311000,3.38831103515625,0.0003837615076918155,-0.003228017594665289,-0.004956941585987806
1773790755563274200,3.408274169921875,0.0008072041091509163,-0.003910585772246122,-0.004909005016088486
1773790755583238100,3.428238037109375,-0.0017536915838718414,-0.004627508576959372,-0.004986502695828676
1773790755603202000,3.4482021484375,0.0002711098059080541,-0.0013827132061123848,-0.005775064695626497
1773790755623165200,3.468165283203125,-0.00032676986302249134,-0.002614957746118307,-0.006431533955037594
1773790755643129000,3.488129150390625,-0.0012221246724948287,-0.0030663637444376945,-0.006987601984292269
1773790755663092200,3.50809228515625,-0.0005763080553151667,-0.002959570847451687,-0.005501558072865009
1773790755683056000,3.52805615234375,0.00009906959166983142,-0.0034490597900003195,-0.0056831855326890945
1773790755703020000,3.54802001953125,-0.001115598133765161,-0.0014511564513668418,-0.005082376766949892
1773790755722983200,3.567983154296875,-0.0005752427969127893,-0.002195776207372546,-0.006249640136957169
1773790755742947000,3.587947021484375,-0.0005693838465958834,-0.0034059167373925447,-0.004541754722595215
1773790755762910200,3.60791015625,0.0002633866388350725,-0.0022857910953462124,-0.006992928218096495
1773790755782874000,3.6278740234375,-0.00024314661277458072,-0.0032498554792255163,-0.0049494849517941475
1773790755802838000,3.647838134765625,0.001008272753097117,-0.0025276062078773975,-0.006555370986461639
1773790755822801200,3.66780126953125,0.0006564692012034357,-0.002013882389292121,-0.006327404174953699
1773790755842765000,3.68776513671875,0.0006910903030075133,-0.0032554480712860823,-0.0039116512052714825
1773790755862728200,3.707728271484375,-0.0002772350562736392,-0.003169428091496229,-0.006193447392433882
1773790755882692000,3.727692138671875,-0.0005344964447431266,-0.003798999357968569,-0.006119411438703537
1773790755902656300,3.74765625,0.0005605954211205244,-0.0021643510553985834,-0.0056949034333229065
1773790755922620400,3.767620361328125,-0.0013395700370892882,-0.0021252024453133345,-0.005557484459131956
1773790755942584300,3.787584228515625,0.00020506340661086142,-0.0033369408920407295,-0.00748960766941309
1773790755962547200,3.807547119140625,0.0005811017472296953,-0.003111104713752866,-0.004526575095951557
1773790755982511400,3.827511474609375,-0.0007076018955558538,-0.003052515210583806,-0.0054754591546952724
1773790756002474200,3.84747412109375,-0.0007185208378359675,-0.0026296053547412157,-0.0067575047723948956
1773790756022438400,3.8674384765625,-0.0014950985787436366,-0.0036330842413008213,-0.005038434639573097
1773790756042402300,3.88740234375,-0.001460477476939559,-0.0035800873301923275,-0.0060083577409386635
1773790756062365200,3.907365234375,-0.0008884305134415627,-0.0031941954512149096,-0.005870938766747713
1773790756082329300,3.927329345703125,-0.00015180018090177327,-0.0022274679504334927,-0.006372944451868534
1773790756102292200,3.947292236328125,0.0010333064710721374,-0.004521781112998724,-0.005113535560667515
1773790756122256400,3.96725634765625,0.00043835630640387535,-0.004737230949103832,-0.0057676080614328384
1773790756142219300,3.98721923828125,-0.0009661948424763978,-0.0036791570018976927,-0.006482400465756655
1773790756162183200,4.00718310546875,-0.0014511564513668418,-0.0033694314770400524,-0.00666296249255538
1773790756182147300,4.027147216796875,0.0007004113867878914,-0.0028903286438435316,-0.005242698825895786
1773790756202110200,4.047110107421875,-0.00001864212754298933,-0.0037587855476886034,-0.004323375876992941
1773790756222074400,4.067074462890625,-0.0012463594321161509,-0.0033808830194175243,-0.005072256550192833
1773790756242037200,4.087037353515625,-0.001659948262386024,-0.0010423612548038363,-0.005797701422125101
1773790756262001200,4.107001220703125,-0.0014199974248185754,-0.0034943337086588144,-0.006369482260197401
1773790756285708300,4.130708251953125,0.0012391688069328666,-0.0034077810123562813,-0.006967628374695778
1773790756305672200,4.150672119140625,-0.0007265103631652892,-0.0028756812680512667,-0.005282113794237375
1773790756325636000,4.170635986328125,-0.0018628811230883002,-0.0028533106669783592,-0.004803543444722891
1773790756345599200,4.19059912109375,0.0009329052991233766,-0.003233610186725855,-0.006864564027637243
1773790756365563100,4.210563232421875,0.00006391586794052273,-0.003038400551304221,-0.0059692091308534145
1773790756385526300,4.2305263671875,-0.00046845004544593394,-0.004335360135883093,-0.0057383133098483086
1773790756405490200,4.250490234375,-0.0010540791554376483,-0.0019142802339047194,-0.005194761790335178
1773790756425454000,4.2704541015625,-0.0006436860421672463,-0.0030162963084876537,-0.005572664551436901
1773790756445417200,4.290417236328125,0.00007376955909421667,-0.0035862126387655735,-0.005378786474466324
1773790756465381000,4.310381103515625,-0.001300155185163021,-0.0028671592008322477,-0.0057500312104821205
1773790756485344300,4.33034423828125,-0.000025566347176209092,-0.0026903252582997084,-0.006169745232909918
1773790756505308200,4.35030810546875,5.326322138898831e-7,-0.0025385250337421894,-0.006114617921411991
1773790756525271300,4.370271240234375,0.00014434332842938602,-0.002086054068058729,-0.004717523697763681
1773790756545235200,4.390235107421875,-0.0011827098205685616,-0.0027659591287374496,-0.0046424223110079765
1773790756565199000,4.41019921875,-0.000681236619129777,-0.002766757970675826,-0.006393450777977705
1773790756585162200,4.430162353515625,0.0008138620178215206,-0.0030186930671334267,-0.006117281038314104
1773790756605126100,4.450126220703125,0.0005307680112309754,-0.0041071269661188126,-0.006913299672305584
1773790756625089300,4.47008935546875,-0.0007901599165052176,-0.0032402679789811373,-0.005657352972775698
1773790756645053200,4.49005322265625,-0.00013662016135640442,-0.0018101505702361465,-0.005594768561422825
1773790756665016000,4.51001611328125,0.000013582121027866378,-0.003454386256635189,-0.00552312983199954
1773790756684980200,4.529980224609375,-0.0006245112745091319,-0.002695119008421898,-0.004607801325619221
1773790756704943000,4.549943115234375,-0.00004447478931979276,-0.004138552118092775,-0.0065140919759869576
1773790756724907300,4.5699072265625,-0.000391218374716118,-0.003698331769555807,-0.006372678093612194
1773790756744871200,4.58987109375,-0.00040000680019147694,-0.003215500619262457,-0.006659234408289194
1773790756764834000,4.609833984375,-0.0002061286650132388,-0.0028245486319065094,-0.005595301277935505
1773790756784798200,4.629798095703125,-0.0002745719102676958,-0.004455468617379665,-0.005848834291100502
1773790756804761000,4.649760986328125,0.0003579288604669273,-0.001981658162549138,-0.0041159153915941715
1773790756824725200,4.669725341796875,-0.0017638115677982569,-0.0026019082870334387,-0.0040852888487279415
1773790756844689200,4.689689208984375,-0.00020719393796753138,-0.002624012529850006,-0.005230181850492954
1773790756864652000,4.709652099609375,-0.0014215953415259719,-0.0022280006669461727,-0.005311941262334585
1773790756884616200,4.7296162109375,-0.00040506679215468466,-0.0033864756114780903,-0.004442685283720493
1773790756904578600,4.74957861328125,-0.0003150519623886794,-0.003816842334344983,-0.004825115203857422
1773790756924542500,4.76954248046875,-0.00038535939529538155,-0.003139334265142679,-0.007035272661596537
1773790756944505300,4.78950537109375,0.00018082863243762404,-0.002776611829176545,-0.004627774935215712
1773790756964469500,4.809469482421875,-0.00021198761533014476,-0.001609081868082285,-0.005507150664925575
1773790756984432400,4.829432373046875,-0.0018066884949803352,-0.001987250754609704,-0.005572930909693241
1773790757004396500,4.849396484375,-0.0010167949367314577,-0.0023907197173684835,-0.005143363028764725
1773790757024360400,4.8693603515625,0.0011150655336678028,-0.00336117553524673,-0.005042961798608303
1773790757044323300,4.8893232421875,0.0009709885343909264,-0.0024170849937945604,-0.005511678289622068
1773790757064287500,4.90928759765625,-0.0009691243176348507,-0.0034011229872703552,-0.005250155925750732
1773790757084250400,4.92925048828125,-0.000984836951829493,-0.0024471788201481104,-0.005446430761367083
1773790757104214500,4.949214599609375,-0.0002713761059567332,-0.0023696806747466326,-0.005182777531445026
1773790757124177400,4.969177490234375,0.0007832356495782733,-0.002410160843282938,-0.005507949739694595
1773790757144141300,4.989141357421875,0.0002490055630914867,-0.0019979034550487995,-0.0052205948159098625
1773790757164105500,5.00910546875,-0.0009944243356585503,-0.0032434638123959303,-0.005675728898495436
1773790757184068400,5.029068359375,-0.0002913498319685459,-0.0017483652336522937,-0.006357498001307249
1773790757204032500,5.049032470703125,0.0012567456578835845,-0.003290335414931178,-0.005782255437225103
1773790757223995400,5.068995361328125,0.00018855179951060563,-0.002085521351546049,-0.006401706486940384
1773790757243959600,5.08895947265625,-0.0002540655550546944,-0.0021851237397640944,-0.0064802695997059345
1773790757263922400,5.10892236328125,-0.0004551342281047255,-0.002083124592900276,-0.0054999603889882565
1773790757283886300,5.12888623046875,0.0007408913807012141,-0.002305232221260667,-0.0057167415507137775
1773790757303849500,5.148849365234375,-0.0008620652370154858,-0.0033963292371481657,-0.005008340813219547
1773790757323813400,5.1688134765625,-0.0009398295660503209,-0.0033369408920407295,-0.0054578823037445545
1773790757343777500,5.188777587890625,-0.0016873788554221392,-0.003186472225934267,-0.00580648984760046
1773790757363740400,5.208740478515625,-0.0005062668933533132,-0.002837864449247718,-0.005603556986898184
1773790757383704300,5.228704345703125,-0.002412823960185051,-0.0028759476263076067,-0.006731938570737839
1773790757403667500,5.24866748046875,0.0005930859479121864,-0.003454386256635189,-0.005018726922571659
1773790757423631400,5.26863134765625,0.00018455706594977528,-0.0016911072889342904,-0.003855724586173892
1773790757443594500,5.288594482421875,-0.0003616572648752481,-0.002767823403701186,-0.005254683084785938
1773790757463558400,5.308558349609375,-0.0009033442474901676,-0.0034796863328665495,-0.005813147872686386
1773790757483521500,5.328521484375,0.00014141385327093303,-0.004437625408172607,-0.006206230726093054
1773790757503485400,5.3484853515625,-0.0013587448047474027,-0.0029816750902682543,-0.006594519596546888
1773790757523449300,5.368449462890625,0.0010700580896809697,-0.0032898029312491417,-0.0057492321357131
1773790757543412500,5.38841259765625,0.00031851406674832106,-0.003492203075438738,-0.0049556102603673935
1773790757563376400,5.40837646484375,-0.0006285060080699623,-0.0032834112644195557,-0.006925283931195736
1773790757583339500,5.428339599609375,0.0010391654213890433,-0.003946272190660238,-0.006423544604331255
1773790757603303400,5.448303466796875,-0.0015355786308646202,-0.003013632958754897,-0.005914880894124508
1773790757623266600,5.4682666015625,-0.0010990865994244814,-0.002939330879598856,-0.00518837058916688
1773790757643230500,5.48823046875,-0.0007472829893231392,-0.002636529505252838,-0.0065439194440841675
1773790757663193300,5.508193359375,0.001627457677386701,-0.004352137912064791,-0.005303951445966959
1773790757683157500,5.528157470703125,-0.00024740767548792064,-0.003945206757634878,-0.005604622419923544
1773790757703121400,5.548121337890625,0.0007560714147984982,-0.003828826593235135,-0.006641124840825796
1773790757723084500,5.56808447265625,-0.0023550332989543676,-0.0035989959724247456,-0.005458415020257235
1773790757743048400,5.58804833984375,-0.00012623383372556418,-0.0029936593491584063,-0.005883987993001938
1773790757763011300,5.60801123046875,-0.0003920173039659858,-0.0036368127912282944,-0.005736715160310268
1773790757782975500,5.6279755859375,-0.0005600627628155053,-0.004348942078649998,-0.006462160497903824
1773790757802938400,5.6479384765625,-0.00038988678716123104,-0.0026442527305334806,-0.00606455048546195
1773790757822902500,5.667902587890625,-0.00022849922243040055,-0.002942526713013649,-0.0057191383093595505
1773790757842865400,5.687865478515625,0.0009243832319043577,-0.003162770066410303,-0.004995291121304035
1773790757862829600,5.70782958984375,0.0007611314067617059,-0.0032415995374321938,-0.005106344819068909
1773790757882793500,5.72779345703125,-0.001365402713418007,-0.003629355924203992,-0.005044559482485056
1773790757902756600,5.747756591796875,-0.0002950782363768667,-0.0026786073576658964,-0.004312989301979542
1773790757922720800,5.767720703125,-0.0010327738709747791,-0.0026043052785098553,-0.0052296495996415615
1773790757942683600,5.78768359375,-0.0008005462004803121,-0.0028796761762350798,-0.004311923868954182
1773790757962647600,5.8076474609375,-0.0011350392596796155,-0.004038417246192694,-0.005727660376578569
1773790757982610700,5.827610595703125,-0.0017547567840665579,-0.00195156445261091,-0.005155080929398537
1773790758002574600,5.84757470703125,-0.00041811628034338355,-0.0025888588279485703,-0.00452790642157197
1773790758022537700,5.867537841796875,-0.0020639498252421618,-0.004175037611275911,-0.006554838269948959
1773790758042501600,5.887501708984375,-0.0002495381922926754,-0.002281263703480363,-0.00523790530860424
1773790758062464800,5.90746484375,-0.0007848335662856698,-0.003322825999930501,-0.0051960935816168785
1773790758082428700,5.9274287109375,-0.001532116555608809,-0.0027654264122247696,-0.0067785438150167465
1773790758102392600,5.947392578125,0.00016937704640440643,-0.0030743530951440334,-0.004938299767673016
1773790758122355700,5.967355712890625,-0.0011891013709828258,-0.0026165556628257036,-0.004482632502913475
1773790758142319600,5.987319580078125,-0.00035127095179632306,-0.0036756948102265596,-0.005797169171273708
1773790758162282800,6.00728271484375,-0.0011033476330339909,-0.0029236183036118746,-0.005286108236759901
1773790758182246700,6.02724658203125,-0.00007163903501350433,-0.003823234001174569,-0.005119394510984421
1773790758202209800,6.047209716796875,-0.001939313835464418,-0.003192597534507513,-0.006599046755582094
1773790758222173700,6.067173583984375,-0.00017017599020618945,-0.0021321268286556005,-0.004833370912820101
1773790758242136800,6.08713671875,-0.000004793690095539205,-0.003379817819222808,-0.005056543741375208
1773790758262100700,6.107100830078125,-0.0012271846644580364,-0.0014530207263305783,-0.005852562841027975
1773790758282063600,6.127063720703125,0.00011904330312972888,-0.001966478070244193,-0.005981992464512587
1773790758302027800,6.14702783203125,-0.00003941478280466981,-0.0029585056472569704,-0.006294913589954376
1773790758321990700,6.16699072265625,0.0007909588166512549,-0.002612827345728874,-0.0062158177606761456
1773790758341954800,6.186954833984375,-0.0012325108982622623,-0.002941993996500969,-0.004246144089847803
1773790758361918700,6.206918701171875,-0.00011851066665258259,-0.0035502600949257612,-0.00549197057262063
1773790758381881600,6.226881591796875,-0.000046871635277057067,-0.0030772825703024864,-0.005511678289622068
1773790758401845800,6.246845703125,-0.0013523531379178166,-0.003082076320424676,-0.006554039195179939
1773790758421808600,6.26680859375,0.000006391586794052273,-0.004619785584509373,-0.00669358903542161
1773790758441772800,6.286772705078125,-0.0005083974683657289,-0.0024051007349044085,-0.006363090593367815
1773790758461735700,6.306735595703125,0.00039947417099028826,-0.0029888655990362167,-0.006332198157906532
1773790758481699600,6.326699462890625,-0.00014061490946915,-0.00307675008662045,-0.005083708092570305
1773790758501662700,6.346662841796875,-0.0009408948244526982,-0.0030802120454609394,-0.0052293832413852215
1773790758521626600,6.366626708984375,-0.0008077367674559355,-0.003204049076884985,-0.005938849411904812
1773790758541589800,6.38658984375,0.0003091930120717734,-0.0020189424976706505,-0.005381982307881117
1773790758561553700,6.4065537109375,-0.0013467605458572507,-0.0016972325975075364,-0.0065223476849496365
1773790758581516500,6.4265166015625,-0.0009872338268905878,-0.003174754325300455,-0.005570534151047468
1773790758601480700,6.446480712890625,-0.0011587414192035794,-0.002213885774835944,-0.005854959599673748
1773790758621444600,6.466444580078125,-0.00008468852320220321,-0.0018634138396009803,-0.007220895029604435
1773790758641407700,6.48640771484375,-0.0005733785801567137,-0.004042944870889187,-0.005796103738248348
1773790758661371600,6.50637158203125,-0.00004394215648062527,-0.0033366745337843895,-0.004674113821238279
1773790758681334800,6.526334716796875,-0.0004474110610317439,-0.003372893435880542,-0.0059961071237921715
1773790758701298700,6.546298583984375,0.001633316627703607,-0.003282079705968499,-0.005563343409448862
1773790758721261600,6.566261474609375,0.0007637945818714797,-0.00293293921276927,-0.006048837676644325
1773790758741225700,6.586225830078125,-0.00048176583368331194,-0.0018940401496365666,-0.006639260333031416
1773790758761188600,6.606188720703125,0.00016058860637713224,-0.0034964641090482473,-0.0057159424759447575
1773790758781152800,6.62615283203125,-0.00096086849225685,-0.003308444982394576,-0.005615807604044676
1773790758801115400,6.646115478515625,0.0007009439868852496,-0.003629089565947652,-0.006637396290898323
1773790758821079800,6.666079833984375,-0.0006647250265814364,-0.0029020465444773436,-0.0054368432611227036
1773790758841042400,6.68604248046875,-0.0015635418239980936,-0.00344533147290349,-0.004858404863625765
1773790758861006800,6.7060068359375,-0.00088949577184394,-0.0027750139124691486,-0.005654689855873585
1773790758880970800,6.725970703125,0.0012274509062990546,-0.0024706146214157343,-0.004768656101077795
1773790758900933400,6.745933349609375,-0.0008652610122226179,-0.0032754219137132168,-0.006185191683471203
1773790758920897500,6.7658974609375,-0.0015904398169368505,-0.00222001108340919,-0.004278901033103466
1773790758940860200,6.785860107421875,0.0003909520455636084,-0.0028216191567480564,-0.0059905145317316055
1773790758960824300,6.80582421875,-0.0012695288751274347,-0.002082591876387596,-0.006591590121388435
1773790758980787200,6.825787109375,0.000024767397917457856,-0.004226170480251312,-0.0071066454984247684
1773790759000751400,6.84575146484375,0.00008362325752386823,-0.0035297537688165903,-0.004767591133713722
1773790759020714200,6.86571435546875,0.001574194524437189,-0.003981425892561674,-0.005133775528520346
1773790759040678100,6.88567822265625,-0.00010705907334340736,-0.002852778183296323,-0.005389172583818436
1773790759060641300,6.905641357421875,-0.0011470235185697675,-0.002317216480150819,-0.0062424493953585625
1773790759080605200,6.925605224609375,-0.0010362359462305903,-0.0031470574904233217,-0.0060118199326097965
1773790759100568300,6.945568359375,0.00040746363811194897,-0.002823217073455453,-0.00628932099789381
1773790759120532200,6.9655322265625,-0.0006178533658385277,-0.0022394522093236446,-0.005362540949136019
1773790759140495400,6.985495361328125,0.0009861685102805495,-0.003397128311917186,-0.005846703890711069
1773790759160459300,7.005459228515625,-0.0010135991033166647,-0.003284476464614272,-0.006191316992044449
1773790759180422400,7.02542236328125,0.0006860303110443056,-0.002257561543956399,-0.00552179804071784
1773790759200386300,7.04538623046875,-0.00009480853623244911,-0.003570766421034932,-0.005557750817388296
1773790759220349200,7.06534912109375,0.0005222458858042955,-0.0028583707753568888,-0.0054821171797811985
1773790759240313300,7.085313232421875,0.0002878876985050738,-0.0038280277512967587,-0.005548163317143917
1773790759260277200,7.10527734375,0.0006351639167405665,-0.0021931130904704332,-0.004804608877748251
1773790759280240400,7.125240478515625,-0.0012889700010418892,-0.002956907730549574,-0.005567604675889015
1773790759300204300,7.145204345703125,-0.0015984292840585113,-0.00350365461781621,-0.004662662278860807
1773790759320167400,7.16516748046875,-0.0015568839153274894,-0.0028943235520273447,-0.004346545320004225
1773790759340131300,7.18513134765625,-0.0007643272401764989,-0.0025153555907309055,-0.005213404074311256
1773790759360094200,7.20509423828125,-0.0011470235185697675,-0.0035156388767063618,-0.004595550708472729
1773790759380058400,7.225058349609375,-0.00041518680518493056,-0.0029401297215372324,-0.0057646785862743855
1773790759400021200,7.245021240234375,-0.00029081720276735723,-0.004328968469053507,-0.006068012677133083
1773790759419985400,7.2649853515625,0.0002633866388350725,-0.0026754115242511034,-0.004600610584020615
1773790759439948300,7.2849482421875,0.0003888215287588537,-0.003168362658470869,-0.005228850524872541
1773790759459912200,7.304912109375,-0.0011052117915824056,-0.003174221608787775,-0.005399559158831835
1773790759479875300,7.324875244140625,0.0009299758239649236,-0.002376871183514595,-0.005861351266503334
1773790759499839200,7.344839111328125,-0.0006527407676912844,-0.003960386849939823,-0.006819556467235088
1773790759519802400,7.36480224609375,0.0000045273736759554595,-0.0028503811918199062,-0.0046488139778375626
1773790759539766300,7.384766357421875,0.00007430219557136297,-0.0017811221769079566,-0.005915679503232241
1773790759559729400,7.4047294921875,-0.00024394555657636374,-0.003792874049395323,-0.005951632279902697
1773790759579693300,7.424693359375,0.00041518680518493056,-0.0023664848413318396,-0.006354834884405136
1773790759599657200,7.4446572265625,0.001181378262117505,-0.003884752979502082,-0.004596349783241749
1773790759619620400,7.464620361328125,-0.000051132694352418184,-0.0038048583082854748,-0.005111937876790762
1773790759639584300,7.484584228515625,0.00009161273919744417,-0.0015286544803529978,-0.005066131241619587
1773790759659547400,7.50454736328125,0.0006612628931179643,-0.003600061172619462,-0.006414756178855896
1773790759679511300,7.52451123046875,0.0006048039067536592,-0.0032434638123959303,-0.006147641222923994
1773790759699474400,7.544474365234375,0.0005302353529259562,-0.00381391285918653,-0.00686056911945343
1773790759719438300,7.564438232421875,0.000011984225238848012,-0.004224572330713272,-0.00589570589363575
1773790759739401200,7.584401123046875,-0.0008215851848945022,-0.00239231763407588,-0.0048946235328912735
1773790759759365400,7.604365478515625,-0.00010226538870483637,-0.002067944500595331,-0.005756688769906759
1773790759779328300,7.624328369140625,0.00034115093876607716,-0.0031638352666050196,-0.004798749927431345
1773790759799292400,7.64429248046875,-0.00010972223390126601,-0.0024580976460129023,-0.006756439805030823
1773790759819255300,7.66425537109375,-0.0005648564547300339,-0.003011502558365464,-0.006229400169104338
1773790759839219500,7.684219482421875,-0.0018192053539678454,-0.001576857641339302,-0.005371063016355038
1773790759859182300,7.704182373046875,-0.00016192019393201917,-0.002427471335977316,-0.005736448802053928
1773790759879146200,7.724146240234375,-0.0022628880105912685,-0.0033015208318829536,-0.005368133541196585
1773790759899109400,7.744109375,0.0008780442294664681,-0.0032828785479068756,-0.005800630897283554
1773790759919072800,7.76407275390625,-0.0014165353495627642,-0.002808303339406848,-0.00526799913495779
1773790759939036000,7.784035888671875,-0.0001555285998620093,-0.002445048186928034,-0.00583844818174839
1773790759958999800,7.803999755859375,0.00035686357296071947,-0.0018485001055523753,-0.006994260009378195
1773790759978963000,7.823962890625,-0.0007414240390062332,-0.002960369922220707,-0.0046514770947396755
1773790759998926800,7.8439267578125,-0.0012218583142384887,-0.00347489258274436,-0.005763346794992685
1773790760018890000,7.863889892578125,0.00005619269722956233,-0.0031579763162881136,-0.005859753116965294
1773790760038854000,7.88385400390625,0.0007954862085171044,-0.002825347473844886,-0.005259742960333824
1773790760058817000,7.903817138671875,-0.0006460828590206802,-0.001151284552179277,-0.006129798013716936
1773790760078781000,7.923781005859375,-0.0011824434623122215,-0.002755572786554694,-0.0051923650316894054
1773790760098743800,7.943743896484375,-0.0008697884040884674,-0.0031755531672388315,-0.007474428042769432
1773790760118708000,7.9637080078125,-0.0005808354471810162,-0.0025779400020837784,-0.005170527379959822
1773790760138670800,7.9836708984375,0.0009664611425250769,-0.002507632365450263,-0.00649678148329258
1773790760158635000,8.003635009765626,-0.0010871023405343294,-0.0026794064324349165,-0.0060179452411830425
1773790760178598000,8.023597900390625,-0.0004082625964656472,-0.00216514989733696,-0.005616606678813696
1773790760198561800,8.043561767578124,0.0003182477375958115,-0.0021941782906651497,-0.006365487817674875
1773790760218526000,8.06352587890625,0.0016740630380809307,-0.0023957795929163694,-0.005520999431610107
1773790760238488800,8.08348876953125,0.00008229167724493891,-0.0029236183036118746,-0.006734068971127272
1773790760258453000,8.103452880859376,-0.0007768440991640091,-0.004273840691894293,-0.006542321294546127
1773790760278416000,8.123415771484375,-0.00010333064710721374,-0.004078364931046963,-0.0057252636179327965
1773790760298379800,8.1433798828125,-0.0005896238726563752,-0.0023997745011001825,-0.005249623209238052
1773790760318343000,8.163343017578125,0.0003779025573749095,-0.0028767467010766268,-0.007119694724678993
1773790760338306800,8.183306884765624,0.00026019083452410996,-0.0017893778858706355,-0.005411277059465647
1773790760358270000,8.20327001953125,-0.0004748416249640286,-0.0037441381718963385,-0.0067689563147723675
1773790760378233900,8.22323388671875,0.00032410668791271746,-0.0024671524297446012,-0.005287173669785261
1773790760398197000,8.243197021484375,-0.000017843178284238093,-0.004001932218670845,-0.005382781382650137
1773790760418161000,8.263160888671875,0.0017385114915668964,-0.0020897823851555586,-0.004948685877025127
1773790760438124000,8.2831240234375,-0.0008636631537228823,-0.0019651465117931366,-0.006275206338614225
1773790760458088000,8.303087890625,-0.0002814961189869791,-0.0024780714884400368,-0.005327653605490923
1773790760478051000,8.323051025390624,0.00019893812714144588,-0.002644518855959177,-0.006482400465756655
1773790760498015000,8.343014892578125,-0.0017568873008713126,-0.003725496120750904,-0.005603823345154524
1773790760517977900,8.362977783203124,-0.0007206514128483832,-0.00412363838404417,-0.00595429539680481
1773790760537942000,8.38294189453125,-0.0007688545738346875,-0.0029816750902682543,-0.006010221783071756
1773790760557905000,8.40290478515625,-0.0015243934467434883,-0.0022626216523349285,-0.007311975117772818
1773790760577869000,8.422869140625,0.0000066579027588886674,-0.0035457327030599117,-0.005210474599152803
1773790760597832000,8.44283203125,-0.00042770366417244077,-0.0024975123815238476,-0.005468268413096666
1773790760617795800,8.4627958984375,0.000723048229701817,-0.0026016421616077423,-0.006503439508378506
1773790760637759000,8.482759033203125,-0.0002633866388350725,-0.003254649229347706,-0.00577932596206665
1773790760657723000,8.502722900390625,-0.0004679173871409148,-0.002837598090991378,-0.006115150637924671
1773790760677686000,8.52268603515625,-0.0004293015517760068,-0.003078880487009883,-0.004741491749882698
1773790760697650000,8.54264990234375,-0.001246892032213509,-0.0027590349782258272,-0.0051630702801048756
1773790760717613000,8.562613037109376,0.0005992112564854324,-0.003020290983840823,-0.005021656397730112
1773790760737577000,8.582576904296875,0.0013038836186751723,-0.0014745922526344657,-0.004713528789579868
1773790760757540000,8.6025400390625,0.0004111920716241002,-0.0028184233233332634,-0.005126052536070347
1773790760777504000,8.62250390625,-0.000055660068028373644,-0.003834685543552041,-0.004291950259357691
1773790760797467000,8.642466796875,-0.0002878876985050738,-0.0030743530951440334,-0.005169994663447142
1773790760817431000,8.66243115234375,0.0007297061383724213,-0.0024945829063653946,-0.005952697712928057
1773790760837394000,8.682393798828125,0.0011435613268986344,-0.002633866388350725,-0.006701312027871609
1773790760857358000,8.702358154296874,0.0008266451768577099,-0.003403519745916128,-0.006224073935300112
1773790760877321000,8.722321044921875,0.000811997801065445,-0.003840544493868947,-0.005032309330999851
1773790760897284900,8.742284912109374,-0.0005781722720712423,-0.004180363845080137,-0.005148955620825291
1773790760917248800,8.762248779296876,-0.0007648598402738571,-0.002288188086822629,-0.005759618245065212
1773790760937212700,8.782212646484375,0.0000125168571685208,-0.0030328077264130116,-0.006866161711513996
1773790760957175800,8.80217578125,0.00041731735109351575,-0.00279019377194345,-0.0057590859942138195
1773790760977139700,8.8221396484375,-0.00036511936923488975,-0.0041761030443012714,-0.005526592023670673
1773790760997102800,8.842102783203124,-0.0006870955694466829,-0.003912982530891895,-0.005465605296194553
1773790761017066800,8.862066650390625,-0.000568318588193506,-0.0023371900897473097,-0.006643255241215229
1773790761037029600,8.882029541015624,0.0005009406013414264,-0.0020785972010344267,-0.005288239102810621
1773790761056993800,8.901993896484376,-0.001264735241420567,-0.003055711043998599,-0.00555135915055871
1773790761076956700,8.921956787109375,0.0004993426846340299,-0.0027566379867494106,-0.004779309034347534
1773790761096920800,8.9419208984375,0.00029587719473056495,-0.0031105722300708294,-0.005218197591602802
1773790761116883700,8.9618837890625,-0.00046631949953734875,-0.002347842790186405,-0.00580755528062582
1773790761136847600,8.98184765625,-0.00010572749306447804,-0.001395496423356235,-0.0046789078041911125
1773790761156810800,9.001810791015625,0.00037710359902121127,-0.0031558459158986807,-0.006298375781625509
1773790761176774700,9.021774658203125,-0.000508663768414408,-0.002927346620708704,-0.005587578285485506
1773790761196737800,9.04173779296875,-0.0011118697002530098,-0.004042678512632847,-0.0057100835256278515
1773790761216701700,9.06170166015625,-0.0015374429058283567,-0.0024319987278431654,-0.004971322603523731
1773790761236664800,9.081664794921876,0.00048176583368331194,-0.0033193640410900116,-0.006076801102608442
1773790761256628700,9.101628662109375,0.000598145998083055,-0.003579022129997611,-0.005519933998584747
1773790761276591900,9.121591796875,0.00046818371629342437,-0.0023936491925269365,-0.0057042245753109455
1773790761296555800,9.1415556640625,0.00017736652807798237,-0.0025928535033017397,-0.005905293393880129
1773790761316518700,9.1615185546875,0.00021731393644586205,-0.0031313446816056967,-0.005891178734600544
1773790761336482800,9.18148291015625,-0.0010926949325948954,-0.002672215923666954,-0.005885852500796318
1773790761356445700,9.20144580078125,0.0001270327775273472,-0.00180855265352875,-0.006036587059497833
1773790761376409900,9.221409912109374,-0.00031425300403498113,-0.0029635655228048563,-0.005877862684428692
1773790761396372700,9.241372802734375,0.00008894957863958552,-0.0031726236920803785,-0.005002215504646301
1773790761416337000,9.2613369140625,-0.0007651261985301971,-0.0035947347059845924,-0.005674397107213736
1773790761436299800,9.2812998046875,-0.0009755159262567759,-0.003942543640732765,-0.005795571021735668
1773790761456263700,9.301263671875,-0.0013462279457598925,-0.0024738102219998837,-0.005352953914552927
1773790761476226800,9.321226806640626,-0.00007084008393576369,-0.0030810111202299595,-0.004851480480283499
1773790761496190700,9.341190673828125,-0.000330231967382133,-0.002930276095867157,-0.00612154183909297
1773790761516153900,9.36115380859375,-0.0005914880894124508,-0.003201652318239212,-0.00472391489893198
1773790761536116700,9.38111669921875,0.0007643272401764989,-0.0022897860035300255,-0.006462692748755217
1773790761556081000,9.401080810546874,0.0004751079250127077,-0.0040887510403990746,-0.005878395400941372
1773790761576043800,9.421043701171875,-0.0014106763992458582,-0.003370496677234769,-0.004733768757432699
1773790761596008000,9.441008056640625,0.0003022687742486596,-0.00350472005084157,-0.00500940578058362
1773790761615970800,9.460970703125,0.000598145998083055,-0.0035380094777792692,-0.006036587059497833
1773790761635934700,9.480934814453125,-0.0004924184759147465,-0.00267780851572752,-0.0038485340774059296
1773790761655897900,9.50089794921875,-0.0013401026371866465,-0.001407214323990047,-0.005901831202208996
1773790761675861800,9.52086181640625,-0.0001179780374513939,-0.002293780678883195,-0.005379052832722664
1773790761695825000,9.540824951171874,-0.0007936219917610288,-0.0017944378778338432,-0.00561074772849679
1773790761715788800,9.560788818359375,-0.0008066715090535581,-0.001449025934562087,-0.005403021350502968
1773790761735751700,9.580751708984375,-0.0016365124611184,-0.001856489572674036,-0.0057345847599208355
1773790761755715800,9.6007158203125,0.00018109494703821838,-0.002581668319180608,-0.007029946427792311
1773790761775678700,9.6206787109375,0.00025832661776803434,-0.004358263220638037,-0.004513791762292385
1773790761795643000,9.640642822265624,-0.0006945523782633245,-0.003005110891535878,-0.005277586169540882
1773790761815605800,9.660605712890625,-0.00037497308221645653,-0.0020330571569502354,-0.004336158744990826
1773790761835570000,9.68056982421875,-0.0009688580175861716,-0.0027244137600064278,-0.006126335822045803
1773790761855532500,9.700532470703125,-0.0019800602458417416,-0.005194495897740126,-0.005361209623515606
1773790761875496700,9.72049658203125,-0.00008016114588826895,-0.004030694253742695,-0.0070280819199979305
1773790761895459600,9.74045947265625,-0.0005166532355360687,-0.002670884132385254,-0.005829926114529371
1773790761915423700,9.760423828125,0.001210406655445695,-0.003028546692803502,-0.0036756948102265596
1773790761935387000,9.780386962890624,0.00022024342615623027,-0.003061569994315505,-0.005796636454761028
1773790761955350800,9.800350830078125,0.000017843178284238093,-0.0032871398143470287,-0.0059745353646576405
1773790761975314000,9.82031396484375,0.00019334549142513424,-0.0023883229587227106,-0.004282363224774599
1773790761995277800,9.84027783203125,-0.0010218549286946654,-0.003207511268556118,-0.0049010151997208595
1773790762015240700,9.86024072265625,-0.0007166566210798919,-0.0022865901701152325,-0.006449110805988312
1773790762035204900,9.880204833984376,-0.00005965480886516161,-0.003370230318978429,-0.004693288821727037
1773790762055167700,9.900167724609375,-0.0006029396899975836,-0.003126551164314151,-0.006187322083860636
1773790762075132000,9.9201318359375,-0.00036192359402775764,-0.003251187037676573,-0.005257079843431711
1773790762095094800,9.9400947265625,-0.0003075950953643769,-0.0029401297215372324,-0.004477838985621929
1773790762115057700,9.9600576171875,-0.0005392901366576552,-0.003073021536692977,-0.00452897185459733
1773790762135021600,9.980021484375,-0.0001371527905575931,-0.0035167040769010782,-0.006053631659597158
1773790762154984700,9.999984619140625,-0.0003009371866937727,-0.00205276464112103,-0.007728493306785822
1773790762174948600,10.019948486328126,-0.00045566685730591416,-0.0024168186355382204,-0.006602242588996887
1773790762194911700,10.039911865234375,-0.0004114583716727793,-0.002852778183296323,-0.005200887098908424
1773790762214875600,10.059875732421874,0.00010998855577781796,-0.0023161512799561024,-0.005792108830064535
1773790762234838800,10.0798388671875,-0.00009454221435589716,-0.003364105010405183,-0.005258944351226091
1773790762254802700,10.099802734375,-0.0008878979133442044,-0.0029017801862210035,-0.006101834587752819
1773790762274765800,10.119765869140625,-0.0005930859479121864,-0.0030711572617292404,-0.006266417913138866
1773790762294729700,10.139729736328125,0.0006918892613612115,-0.0023015039041638374,-0.005270129535347223
1773790762314692600,10.159692626953126,0.0004500742070376873,-0.0038397456519305706,-0.006113552488386631
1773790762334656800,10.17965673828125,-0.0013070794520899653,-0.0024434502702206373,-0.005304750520735979
1773790762354619600,10.19961962890625,-0.00045566685730591416,-0.0029585056472569704,-0.0057287258096039295
1773790762374583800,10.219583740234375,-0.0002061286650132388,-0.0013259878614917397,-0.005042695440351963
1773790762394546700,10.239546630859374,0.0007211840129457414,-0.003090864745900035,-0.005298358853906393
1773790762414510800,10.2595107421875,0.0003105245705228299,-0.0028245486319065094,-0.004366785287857056
1773790762434473700,10.2794736328125,0.000391218374716118,-0.0033483924344182014,-0.005693305749446154
1773790762454437600,10.299437744140626,-0.0011973571963608265,-0.002269812161102891,-0.00501073757186532
1773790762474400800,10.31940087890625,-0.00023675501870457083,-0.0033744913525879383,-0.005599296186119318
1773790762494364000,10.339364013671876,-0.0004269047058187425,-0.0019321233266964555,-0.005278118886053562
1773790762514327800,10.359327880859375,-0.0012455604737624526,-0.0022916500456631184,-0.00526640098541975
1773790762534290700,10.379290771484374,0.00021225394448265433,-0.0031816784758120775,-0.005354018881917
1773790762554254800,10.3992548828125,-0.001181378262117505,-0.003691940102726221,-0.006006759591400623
1773790762574217700,10.4192177734375,0.0004780374001711607,-0.004569984506815672,-0.00529542937874794
1773790762594182000,10.439181884765626,-0.00011424961121520028,-0.003652791725471616,-0.005899967160075903
1773790762614144800,10.459144775390625,-0.0013369068037718534,-0.0026224146131426096,-0.005302620120346546
1773790762634108700,10.479108642578124,0.00041731735109351575,-0.0027457191608846188,-0.005619536153972149
1773790762654071800,10.49907177734375,0.001332645770162344,-0.0033449302427470684,-0.0054914383217692375
1773790762674035700,10.51903564453125,-0.001654089312069118,-0.003750795964151621,-0.004860002547502518
1773790762693998800,10.538998779296875,-0.0013704627053812146,-0.003710316028445959,-0.004893824923783541
1773790762713962800,10.558962646484375,-0.0008074704091995955,-0.002968625631183386,-0.005254416726529598
1773790762733926000,10.57892578125,0.00004394215648062527,-0.0036224317736923695,-0.006972688250243664
1773790762753889800,10.598889892578125,-0.00008948221511673182,-0.0031531827989965677,-0.005657086614519358
1773790762773853000,10.61885302734375,-0.0014194648247212172,-0.003489806316792965,-0.006039782892912626
1773790762793816800,10.63881689453125,-0.0000977380113909021,-0.0022471752017736435,-0.005255748517811298
1773790762813779700,10.65877978515625,-0.0005888249143026769,-0.0023062974214553833,-0.005692773032933474
1773790762833742800,10.678742919921875,-0.00033156355493701994,-0.0037734329234808683,-0.0059811933897435665
1773790762853706800,10.698706787109375,-0.0010162622202187777,-0.0029467877466231585,-0.004803543444722891
1773790762873670000,10.718669921875,-0.00010333064710721374,-0.0022535668686032295,-0.005939914379268885
1773790762893633800,10.7386337890625,-0.00044474788592197,-0.003531085327267647,-0.004765460267663002
1773790762913596000,10.758595947265626,0.0006831008358858526,-0.0027238810434937477,-0.0054395063780248165
1773790762933559800,10.778559814453125,-0.0000828243064461276,-0.002969424705952406,-0.00746137835085392
1773790762953523000,10.79852294921875,0.00039787625428289175,-0.002826412906870246,-0.005260542035102844
1773790762973486800,10.81848681640625,0.0007062703371047974,-0.004049336537718773,-0.004956675227731466
1773790762993450000,10.838449951171874,-0.0009358347742818296,-0.003950266633182764,-0.006514358334243298
1773790763013414000,10.858413818359375,-0.0008442220860160887,-0.0026783409994095564,-0.006169478874653578
1773790763033377000,10.878376953125,-0.00043835630640387535,-0.004418983124196529,-0.005322593729943037
1773790763053341000,10.8983408203125,0.0013728595804423094,-0.001630387152545154,-0.004757204558700323
1773790763073304000,10.918303955078125,-0.00035366779775358737,-0.003973968792706728,-0.005209143273532391
1773790763093267000,10.938266845703126,-0.0003057308786083013,-0.003492469433695078,-0.006738862954080105
1773790763113230800,10.95823095703125,-0.0016114787431433797,-0.0027427896857261658,-0.00640756543725729
1773790763133194000,10.978194091796874,0.0005789712304249406,-0.002415220718830824,-0.005766808986663818
1773790763153158000,10.998157958984375,-0.00022530343267135322,-0.003459978848695755,-0.006119145080447197
1773790763173121000,11.01812109375,0.00010759170982055366,-0.0022122878581285477,-0.005333778914064169
1773790763193085000,11.0380849609375,-0.00008655273268232122,-0.003291400847956538,-0.005567338317632675
1773790763213048000,11.058048095703125,0.0010069411946460605,-0.0030663637444376945,-0.006724747829139233
1773790763233012000,11.078011962890624,-0.0003020024741999805,-0.0029198897536844015,-0.004751611966639757
1773790763252975000,11.09797509765625,0.00014700648898724467,-0.0038695731200277805,-0.005524727515876293
1773790763272939000,11.11793896484375,-0.0011744539951905608,-0.0033875408116728067,-0.005656820256263018
1773790763292901600,11.137901611328125,-0.00045540055725723505,-0.00304692261852324,-0.00621022516861558
1773790763312866000,11.157865966796875,-0.00007723167072981596,-0.003909520339220762,-0.00458622956648469
1773790763332828700,11.17782861328125,0.00047084689140319824,-0.00256382510997355,-0.006716225761920214
1773790763352791800,11.197791748046875,-0.0001203748834086582,-0.0023555660154670477,-0.00566880451515317
1773790763372755700,11.217755615234376,-0.0008607336785644293,-0.003251453395932913,-0.005953230429440737
1773790763392718800,11.23771875,-0.0006881608278490603,-0.002909503411501646,-0.005829127039760351
1773790763412682800,11.257682861328124,0.000355532014509663,-0.002482066163793206,-0.006097839679569006
1773790763432646000,11.27764599609375,-0.0013195963110774755,-0.0028658276423811913,-0.005594502668827772
1773790763452609800,11.29760986328125,-0.0000804274677648209,-0.003281813347712159,-0.0051803807727992535
1773790763472573000,11.317572998046876,-0.000675377668812871,-0.002502572489902377,-0.005139900837093592
1773790763492536800,11.337536865234375,-0.0009116000146605074,-0.004516454879194498,-0.004828843753784895
1773790763512499700,11.357499755859376,-0.0003709783486556262,-0.003439738880842924,-0.0060147494077682495
1773790763532462800,11.377462890625,0.00024101608141791075,-0.003947869874536991,-0.005892243701964617
1773790763552426800,11.3974267578125,0.0002612560929264873,-0.002584597794339061,-0.006082660052925348
1773790763572390000,11.417389892578125,-0.000630636524874717,-0.004057858604937792,-0.00532445777207613
1773790763592353800,11.437353759765625,-0.0006892260862514377,-0.0020988371688872576,-0.005917544011026621
1773790763612317000,11.45731689453125,-0.0011949603212997317,-0.004603806417435408,-0.006149505265057087
1773790763632280800,11.47728076171875,-0.0011313108261674643,-0.0037020600866526365,-0.006681871134787798
1773790763652244000,11.497243896484376,-0.002163019496947527,-0.003919374197721481,-0.00672208471223712
1773790763672208000,11.517207763671875,-0.001119060325436294,-0.003694869577884674,-0.006451773922890425
1773790763692170800,11.537170654296874,-0.0010186590952798724,-0.00256382510997355,-0.004741491749882698
1773790763712135000,11.557135009765625,-0.0016082830261439085,-0.003058640519157052,-0.005109540652483702
1773790763732097800,11.577097900390624,-0.0011294466676190495,-0.004142280668020248,-0.004920722916722298
1773790763752061000,11.59706103515625,-0.0001549959706608206,-0.002639192622154951,-0.005805957596749067
1773790763772024800,11.61702490234375,0.00023302659974433482,-0.0027715517207980156,-0.00574896577745676
1773790763791988000,11.636988037109376,0.0000929443194763735,-0.003975300583988428,-0.005009139887988567
1773790763811951900,11.656951904296875,0.00029827404068782926,-0.0024234766606241465,-0.0059774648398160934
1773790763831915000,11.6769150390625,-0.0008892294717952609,-0.003489007242023945,-0.006187055725604296
1773790763851879000,11.69687890625,-0.00011078749957960099,-0.003210174385458231,-0.004188619554042816
1773790763871841800,11.716841796875,-0.0005099953268654644,-0.002585130510851741,-0.006188121158629656
1773790763891806000,11.736805908203126,0.0005060005933046341,-0.0025473134592175484,-0.006346845533698797
1773790763911769600,11.75676953125,0.0014977618120610714,-0.004656270612031221,-0.005299957003444433
1773790763931732700,11.776732666015626,0.000031957933970261365,-0.0033241575583815575,-0.00672315014526248
1773790763951696600,11.796696533203125,-0.0006985471700318158,-0.0020847225096076727,-0.005307679995894432
1773790763971659800,11.81665966796875,0.00017070861940737814,-0.0029760824982076883,-0.004705006722360849
1773790763991623700,11.836623779296875,-0.00033902039285749197,-0.0018895127577707171,-0.0044075315818190575
1773790764011586600,11.856586669921874,-0.0002133192028850317,-0.0019707391038537025,-0.0065537733025848866
1773790764031550700,11.87655078125,0.00007936220208648592,-0.00339153571985662,-0.005468268413096666
1773790764051513600,11.896513671875,-0.0000351537273672875,-0.0024205471854656935,-0.005248025059700012
1773790764071477800,11.916477783203124,-0.000005326322025211994,-0.0022884542122483253,-0.004886367823928595
1773790764091440600,11.936440673828125,-0.0005648564547300339,-0.0025590313598513603,-0.0062818643637001514
1773790764111403800,11.95640380859375,-0.00033182985498569906,-0.002189118415117264,-0.006162554491311312
1773790764131367700,11.97636767578125,0.00008921589324017987,-0.0030652983114123344,-0.00526666734367609
1773790764151330800,11.996330810546874,-0.0002300971100339666,-0.002778475871309638,-0.006412625312805176
1773790764171294700,12.016294677734376,-0.0013853764394298196,-0.0030953921377658844,-0.006662163883447647
1773790764191257600,12.036257568359375,-0.0002031991898547858,-0.003066896228119731,-0.005372661165893078
1773790764211221800,12.0562216796875,0.0010692591313272715,-0.002811232814565301,-0.004861067980527878
1773790764231184600,12.0761845703125,-0.0013438310706987977,-0.0024612934794276953,-0.005406217183917761
1773790764251148800,12.096148681640624,0.00010333064710721374,-0.002800047630444169,-0.006138320080935955
1773790764271111700,12.116111572265625,-0.00037257623625919223,-0.0036661075428128242,-0.00600409647449851
1773790764291074600,12.136074462890624,-0.001187503570690751,-0.002770486520603299,-0.005396896041929722
1773790764311038700,12.156038818359375,-0.0006420881254598498,-0.002928145695477724,-0.004853610880672932
1773790764331001600,12.176001708984375,-0.00028096348978579044,-0.0025997778866440058,-0.005090632475912571
1773790764350965500,12.195965576171876,-0.0005781722720712423,-0.0039087217301130295,-0.006564159411936998
1773790764370928600,12.2159287109375,0.0005360943032428622,-0.0032205607276409864,-0.005182511638849974
1773790764390892500,12.235892578125,-0.0002372876479057595,-0.0037803570739924908,-0.006012352649122477
1773790764410855400,12.25585546875,-0.0003129214164800942,-0.0024684839881956577,-0.005142563953995705
1773790764430818600,12.275818603515624,-0.0010793792316690087,-0.0030567762441933155,-0.005923669319599867
1773790764450782500,12.295782470703125,-0.0005856291390955448,-0.002892725635319948,-0.005301288329064846
1773790764470745600,12.31574560546875,-0.0005789712304249406,-0.003097256412729621,-0.006307164207100868
1773790764490709500,12.33570947265625,-0.0001608549355296418,-0.004602475091814995,-0.005394765175879002
1773790764510672600,12.355672607421875,0.00024341292737517506,-0.005381982307881117,-0.004971056245267391
1773790764530636500,12.375636474609376,-0.00029401297797448933,-0.0030629015527665615,-0.005858954507857561
1773790764550599700,12.395599609375,-0.0012543488992378116,-0.004691424313932657,-0.005083974450826645
1773790764570562600,12.4155625,0.0006745787104591727,-0.0028367992490530014,-0.006968959700316191
1773790764590526500,12.4355263671875,-0.0012564794160425663,-0.003166498616337776,-0.0062278020195662975
1773790764610489600,12.455489501953124,-0.0001030643325066194,-0.0026487798895686865,-0.004886900540441275
1773790764630453500,12.47545361328125,-0.0005542038124985993,-0.004399542231112719,-0.00592500064522028
1773790764650416600,12.495416748046875,-0.000461259507574141,-0.0035238948184996843,-0.0060267336666584015
1773790764670380500,12.515380615234376,-0.00029534456552937627,-0.0032754219137132168,-0.005122057627886534
1773790764690343700,12.53534375,0.0005137237603776157,-0.002623746171593666,-0.0057289921678602695
1773790764710307600,12.5553076171875,0.0008255799184553325,-0.0033657029271125793,-0.004706870764493942
1773790764730270700,12.575270751953125,0.0008482168195769191,-0.004170776344835758,-0.005824067164212465
1773790764750233600,12.595233642578124,-0.0008218514849431813,-0.002828276949003339,-0.005316202063113451
1773790764770197500,12.615197509765625,-0.0008578042034059763,-0.003034405643120408,-0.006705306936055422
1773790764790160600,12.63516064453125,-0.0009552759001962841,-0.003150785807520151,-0.005242965184152126
1773790764810124500,12.65512451171875,-0.0005137237603776157,-0.0028700886759907007,-0.005889580585062504
1773790764830087700,12.675087646484375,-0.00017789915727917105,-0.0031848743092268705,-0.004416053649038076
1773790764850050600,12.695050537109376,-0.00006125270738266408,-0.003619768423959613,-0.005839246790856123
1773790764870014700,12.7150146484375,-0.0009350358741357923,-0.003947070799767971,-0.006327404174953699
1773790764889977600,12.7349775390625,-0.00011824435205198824,-0.0036815537605434656,-0.0059540290385484695
1773790764909941200,12.754941162109375,-0.0013315805699676275,-0.0027028422337025404,-0.004732171073555946
1773790764929904000,12.774904052734374,0.0002564624010119587,-0.0025041704066097736,-0.006296245381236076
1773790764949868300,12.794868408203126,-0.000041545314161339775,-0.0025150892324745655,-0.005757221486419439
1773790764969831200,12.8148310546875,-0.0001597896625753492,-0.001799764228053391,-0.004254666157066822
1773790764989794300,12.834794189453126,0.0003810983616858721,-0.001995772821828723,-0.0059875850565731525
1773790765009758200,12.85475830078125,0.000004261057711119065,-0.0036706349346786737,-0.005304217804223299
1773790765029721300,12.874721435546874,0.0003043993201572448,-0.004456267226487398,-0.0057228668592870235
1773790765049685200,12.894685302734375,-0.0009949569357559085,-0.004009122494608164,-0.006097041070461273
1773790765069648400,12.9146484375,-0.0008615325787104666,-0.0023875238839536905,-0.005578257143497467
1773790765089612300,12.9346123046875,0.0015864450251683593,-0.004013383761048317,-0.0054363105446100235
1773790765109575200,12.9545751953125,-0.0001573928166180849,-0.003055711043998599,-0.0054182009771466255
1773790765129538300,12.974538330078126,-0.00007669904152862728,-0.0031933963764458895,-0.005678125657141209
1773790765149502200,12.994502197265625,-0.0006207828409969807,-0.0018042916199192405,-0.005995308049023151
1773790765169465300,13.01446533203125,-0.00030067088664509356,-0.003194727934896946,-0.005486644338816404
1773790765189429200,13.03442919921875,-0.0006524744676426053,-0.0025566346012055874,-0.005065332166850567
1773790765209392400,13.054392333984374,0.00011185276525793597,-0.0033449302427470684,-0.007283479440957308
1773790765229356300,13.074356201171875,-0.00047351003740914166,-0.0026069683954119682,-0.005949768237769604
1773790765249319400,13.0943193359375,-0.00046818371629342437,-0.002596848411485553,-0.006224073935300112
1773790765269282300,13.1142822265625,-0.000568318588193506,-0.003409378696233034,-0.0044176517985761166
1773790765289246200,13.13424609375,-0.0012519520241767168,-0.0030391993932425976,-0.0056925066746771336
1773790765309209300,13.154209228515626,0.0011797803454101086,-0.001797101111151278,-0.004240285139530897
1773790765329173200,13.17417333984375,-0.0006993460701778531,-0.0019286612514406443,-0.006192648317664862
1773790765349136400,13.194136474609374,-0.0012562130577862263,-0.0038013961166143417,-0.006579339504241943
1773790765369099300,13.214099365234375,-0.0009057410643436015,-0.002883138135075569,-0.005949501879513264
1773790765389063400,13.2340634765625,0.00019148127466905862,-0.0036906085442751646,-0.004295412451028824
1773790765409026000,13.254026123046875,0.0005589975044131279,-0.0029949909076094627,-0.005331648513674736
1773790765428990200,13.273990234375,-0.0014692660188302398,-0.002552639925852418,-0.005146825220435858
1773790765448953000,13.293953125,-0.0008165251929312944,-0.0022799321450293064,-0.005556419026106596
1773790765468917200,13.313917236328125,-0.00046152580762282014,-0.0029968551825731993,-0.004741225857287645
1773790765488880000,13.333880126953124,-0.0015781891997903585,-0.002865294925868511,-0.004786232952028513
1773790765508843300,13.35384326171875,-0.0012479572324082255,-0.003686613868921995,-0.005739378277212381
1773790765528807200,13.37380712890625,-0.000215716048842296,-0.002767823403701186,-0.005148422904312611
1773790765548770300,13.393770263671875,-0.0018034926615655422,-0.003233876544982195,-0.005133509170264006
1773790765568734200,13.413734130859375,-0.002159290947020054,-0.0031350732315331697,-0.005989182740449905
1773790765588697000,13.433697021484376,-0.0004956142511218786,-0.0028479844331741333,-0.004926049150526524
1773790765608660200,13.45366015625,-0.0009001484140753746,-0.0019233349012210965,-0.005841909907758236
1773790765628624100,13.4736240234375,-0.0000045273736759554595,-0.0025808694772422314,-0.005586512852460146
1773790765648587300,13.493587158203125,0.0004673847579397261,-0.0024615598376840353,-0.005058141890913248
1773790765668551200,13.51355126953125,-0.000657534459605813,-0.0015052186790853739,-0.004884237423539162
1773790765688514300,13.533514404296875,-0.0012508867075666785,-0.00478330347687006,-0.005799299571663141
1773790765708477200,13.553477294921874,-0.0006956176948733628,-0.0034410704392939806,-0.005901831202208996
1773790765728441300,13.57344140625,-0.0008319715270772576,-0.0033750240691006184,-0.0046384274028241634
1773790765748404200,13.593404296875,-0.001100684516131878,-0.004520449787378311,-0.005371063016355038
1773790765768368000,13.6133681640625,-0.0013568805297836661,-0.001416269107721746,-0.006080795545130968
1773790765788331300,13.633331298828125,-0.00001864212754298933,-0.002816825406625867,-0.005788647104054689
1773790765808295200,13.653295166015624,0.00027537086862139404,-0.0028541097417473793,-0.006828344892710447
1773790765828258300,13.67325830078125,-0.0006511429091915488,-0.0032349417451769114,-0.004756139125674963
1773790765848221200,13.69322119140625,-0.0006064017652533948,-0.0025984463281929493,-0.0054632085375487804
1773790765868185300,13.713185302734376,-0.0007012102869339287,-0.003593403147533536,-0.006344182416796684
1773790765888148200,13.733148193359375,0.00009161273919744417,-0.004043211229145527,-0.005020325072109699
1773790765908112400,13.7531123046875,0.00018961707246489823,-0.00285011506639421,-0.0049092709086835384
1773790765928075300,13.7730751953125,-0.0006141249323263764,-0.0034852789249271154,-0.005612611770629883
1773790765948038400,13.793038330078126,-0.0008183894096873701,-0.003201385959982872,-0.006445382256060839
1773790765968002300,13.813002197265625,0.0010253170039504766,-0.0028453213162720203,-0.006946855690330267
1773790765987965400,13.83296533203125,-0.0017233315156772733,-0.003911118488758802,-0.005766542628407478
1773790766007929300,13.852929443359375,-0.0010077401529997587,-0.0033987262286245823,-0.005620068870484829
1773790766027892200,13.872892333984375,0.00023169501218944788,-0.0026703516487032175,-0.005216067191213369
1773790766047855000,13.892855224609375,-0.0009118663729168475,-0.0026194851379841566,-0.007169762160629034
1773790766067819300,13.9128193359375,0.00006258428766159341,-0.0031427964568138123,-0.006183327175676823
1773790766087782100,13.9327822265625,-0.0018319884547963738,-0.00350445369258523,-0.005595567636191845
1773790766107746000,13.95274609375,-0.0016945693641901016,-0.0028104339726269245,-0.006186256650835276
1773790766127709200,13.972709228515624,-0.001044491771608591,-0.0027481159195303917,-0.005681055132299662
1773790766147672000,13.992672119140625,0.0012426309986039996,-0.004293548408895731,-0.004846420604735613
1773790766167636200,14.01263623046875,-0.0014021543320268393,-0.002843457041308284,-0.0057622818276286125
1773790766187599000,14.03259912109375,-0.000910268456209451,-0.0035369442775845528,-0.004581169690936804
1773790766207563300,14.052563232421875,0.00023169501218944788,-0.0041494714096188545,-0.005351888481527567
1773790766227526100,14.072526123046876,0.0001978728687390685,-0.0036701022181659937,-0.0054672034457325935
1773790766247489300,14.0924892578125,-0.0019832560792565346,-0.003774498123675585,-0.005577990785241127
1773790766267453200,14.112453125,-0.0009941579774022102,-0.0033095101825892925,-0.0065077003091573715
1773790766287416300,14.132416259765625,-0.0009853695519268513,-0.00301736150868237,-0.004822452086955309
1773790766307380200,14.152380126953124,-0.0014506238512694836,-0.003938282374292612,-0.004305799026042223
1773790766327343000,14.172343017578125,0.0005842975224368274,-0.00219524372369051,-0.006371080409735441
1773790766347306200,14.19230615234375,0.0003001382574439049,-0.0027502465527504683,-0.006396380253136158
1773790766367270100,14.212270263671876,0.0006964165950194001,-0.0023734092246741056,-0.006365221459418535
1773790766387233300,14.2322333984375,0.0001613875647308305,-0.002927612978965044,-0.006446447689086199
1773790766407197200,14.252197265625,0.00009667274571256712,-0.003641073824837804,-0.005953496787697077
1773790766427160300,14.272160400390625,-0.0019955066964030266,-0.003412574529647827,-0.004796353168785572
1773790766447123200,14.292123291015624,0.001290834159590304,-0.0033965955954045057,-0.0052086105570197105
1773790766467087400,14.31208740234375,0.0009784454014152288,-0.0036575854755938053,-0.005150287412106991
1773790766487050200,14.33205029296875,-0.000391218374716118,-0.0023361248895525932,-0.005658951122313738
1773790766507014400,14.352014404296876,-0.0007355650886893272,-0.0029843382071703672,-0.006423544604331255
1773790766526977300,14.371977294921875,0.00015899071877356619,-0.002575543010607362,-0.00583791546523571
1773790766546940400,14.3919404296875,0.0005696501466445625,-0.00336170825175941,-0.00666429428383708
1773790766566904300,14.411904296875,-0.0008527441532351077,-0.004851480480283499,-0.0057042245753109455
1773790766586867500,14.431867431640624,-0.001207743538543582,-0.0035800873301923275,-0.006727410946041346
1773790766606831400,14.451831298828125,0.000026365294615970924,-0.003565173828974366,-0.006535930093377829
1773790766626794200,14.471794189453124,0.000708134553860873,-0.0023582291323691607,-0.005163602996617556
1773790766646757000,14.491757080078125,-0.0012913667596876621,-0.0024501082953065634,-0.005243231542408466
1773790766666721300,14.51172119140625,-0.0006527407676912844,-0.0030330740846693516,-0.005167065188288689
1773790766686684200,14.53168408203125,0.0002585929469205439,-0.003442401997745037,-0.00549356872215867
1773790766706648300,14.5516484375,0.00027057717670686543,-0.0024138891603797674,-0.007888282649219036
1773790766726611200,14.571611083984376,-0.001059405505657196,-0.0026999127585440874,-0.005811017472296953
1773790766746574000,14.591573974609375,-0.0004516721237450838,-0.0036040558479726315,-0.0057798586785793304
1773790766766538200,14.611538330078124,0.00023675501870457083,-0.002080195117741823,-0.005367068573832512
1773790766786501000,14.631501220703125,0.00028575718170031905,-0.0038432078436017036,-0.006315952632576227
1773790766806465000,14.651465087890625,-0.00017603494052309543,-0.0031590417493134737,-0.004637628793716431
1773790766826428200,14.67142822265625,0.0014293185668066144,-0.0029499835800379515,-0.006156163290143013
1773790766846391300,14.691391357421875,-0.001368598430417478,-0.0030517163686454296,-0.005450159311294556
1773790766866355200,14.711355224609376,-0.00044767739018425345,-0.0022796657867729664,-0.006327404174953699
1773790766886318000,14.731318115234375,-0.0002002697146963328,-0.0033846113365143538,-0.0068235513754189014
1773790766906282200,14.7512822265625,-0.000811997801065445,-0.003930559381842613,-0.005361742340028286
1773790766926244600,14.77124462890625,-0.000737695605494082,-0.0033276197500526905,-0.006909837480634451
1773790766946207700,14.791207763671874,-0.0003755057114176452,-0.004456533584743738,-0.005225388333201408
1773790766966171600,14.811171630859375,0.00003355582884978503,-0.003751861397176981,-0.005097290500998497
1773790766986134800,14.831134765625,0.000060453756304923445,-0.0023699470330029726,-0.006875216495245695
1773790767006098700,14.8510986328125,-0.0006966829532757401,-0.0041401502676308155,-0.005770537536591291
1773790767026061800,14.871061767578125,-0.0007163903210312128,-0.003961984533816576,-0.005686914082616568
1773790767046024700,14.891024658203126,-0.0014386395923793316,-0.0023646207991987467,-0.005298625212162733
1773790767065988900,14.91098876953125,-0.000767523015383631,-0.0030131004750728607,-0.005083175376057625
1773790767085951700,14.93095166015625,0.00014381069922819734,-0.0027305390685796738,-0.0057532270438969135
1773790767105916000,14.950916015625,-0.00048070057528093457,-0.004219246096909046,-0.005386243108659983
1773790767125878800,14.970878662109374,-0.0007691209320910275,-0.003948136232793331,-0.0065412563271820545
1773790767145842000,14.990842041015625,-0.00042290997225791216,-0.0033787523861974478,-0.004959604702889919
1773790767165805800,15.010805908203125,-0.0013305152533575892,-0.003051982494071126,-0.0051833102479577065
1773790767185769000,15.03076904296875,0.00016245282313320786,-0.004037884995341301,-0.003802727675065398
1773790767205732900,15.05073291015625,-0.0012247877893969417,-0.0029526466969400644,-0.005547098349779844
1773790767225695700,15.07069580078125,-0.000755805114749819,-0.0012500877492129803,-0.005726595409214497
1773790767245659000,15.090658935546875,-0.0010934938909485936,-0.0024897893890738487,-0.005950567312538624
1773790767265622800,15.110622802734374,-0.000749679864384234,-0.00407623453065753,-0.006080262828618288
1773790767285586000,15.1305859375,-0.0011145329335704446,-0.004244545940309763,-0.006195045076310635
1773790767305549800,15.1505498046875,-0.00019973708549514413,-0.00219524372369051,-0.005852030124515295
1773790767325513000,15.170512939453126,-0.0009355684742331505,-0.0021875204984098673,-0.005379585549235344
1773790767345475600,15.1904755859375,0.0005352954030968249,-0.0028189560398459435,-0.005923402961343527
1773790767365440000,15.21043994140625,0.00003861583536490798,-0.002764893928542733,-0.004714594222605228
1773790767385402600,15.230402587890625,0.0000577905957470648,-0.0041156490333378315,-0.005681587848812342
1773790767405366800,15.25036669921875,-0.00026525085559114814,-0.00296250032261014,-0.005913282744586468
1773790767425329700,15.27032958984375,0.0013294500531628728,-0.0013395700370892882,-0.004264253657311201
1773790767445292800,15.290292724609374,0.000696150294970721,-0.0014527543680742383,-0.004911401774734259
1773790767465256700,15.310256591796875,-0.0010580739472061396,-0.003010969841852784,-0.005550294183194637
1773790767485219800,15.3302197265625,-0.0016911072889342904,-0.002572613535448909,-0.004999552387744188
1773790767505183700,15.350183837890626,0.0007089334540069103,-0.00233825552277267,-0.006313289515674114
1773790767525146600,15.370146728515625,0.00021438446128740907,-0.003323891432955861,-0.006434996146708727
1773790767545109800,15.39010986328125,-0.0013528858544304967,-0.0038394792936742306,-0.00603472301736474
1773790767565073700,15.41007373046875,-0.0008705873624421656,-0.0025446503423154354,-0.006389988586306572
1773790767585036800,15.430036865234374,-0.00040613205055706203,-0.002561694709584117,-0.006658435333520174
1773790767604999700,15.449999755859375,-0.0003158508916385472,-0.003102582646533847,-0.0062461779452860355
1773790767624963800,15.4699638671875,-0.0002055960358120501,-0.002389654517173767,-0.005595034919679165
1773790767644926700,15.4899267578125,0.0007400924805551767,-0.002918025478720665,-0.005601692944765091
1773790767664891000,15.509890869140625,-0.00042876892257481813,-0.003091131104156375,-0.005066397599875927
1773790767684853800,15.529853759765626,-0.00012383698776829988,-0.003236539661884308,-0.005230448208749294
1773790767704817000,15.54981689453125,0.000031158982892520726,-0.0024658208712935448,-0.00618252856656909
1773790767724780800,15.56978076171875,-0.0010303769959136844,-0.0035119105596095324,-0.005870406050235033
1773790767744744000,15.589743896484375,-0.0006764429272152483,-0.003085005795583129,-0.00490181427448988
1773790767764707800,15.609707763671874,-0.00033928672201000154,-0.0037092508282512426,-0.005647765472531319
1773790767784670700,15.629670654296875,0.000009321063771494664,-0.0029963224660605192,-0.005499427672475576
1773790767804633900,15.6496337890625,0.00003488740912871435,-0.003099120454862714,-0.005887716542929411
1773790767824597800,15.66959765625,-0.00015659387281630188,-0.0028826056513935328,-0.006984672509133816
1773790767844561000,15.689560791015625,-0.00005459480235003866,-0.003549727378413081,-0.006027265917509794
1773790767864523800,15.709523681640626,-0.0013193299528211355,-0.002376604825258255,-0.005763879511505365
1773790767884488000,15.729488037109375,-0.0011677960865199566,-0.002284193178638816,-0.0060946443118155
1773790767904450800,15.749450927734374,-0.00047617321251891553,-0.00250550196506083,-0.004551342222839594
1773790767924415200,15.769415283203125,-0.00022849922243040055,-0.0025449167005717754,-0.005294098053127527
1773790767944377900,15.7893779296875,-0.0008005462004803121,-0.0027590349782258272,-0.005933522712439299
1773790767964341000,15.809341064453125,0.00039015308720991015,-0.0021339908707886934,-0.0062485747039318085
1773790767984305000,15.829304931640625,-0.000737695605494082,-0.0025190841406583786,-0.0051569449715316296
1773790768004268000,15.84926806640625,-0.0016620787791907787,-0.0027337349019944668,-0.006323676090687513
1773790768024232000,15.86923193359375,0.00029294771957211196,-0.0027180220931768417,-0.005568669643253088
1773790768044194800,15.88919482421875,-0.0008370315190404654,-0.002813629573211074,-0.005062669049948454
1773790768064158000,15.909157958984375,-0.001198955113068223,-0.003040530951693654,-0.005856557283550501
1773790768084121900,15.929121826171874,-0.0011321097845211625,-0.003069825703278184,-0.005504221189767122
1773790768104085000,15.9490849609375,-0.0011720572365447879,-0.0029707562644034624,-0.00341550400480628
1773790768124048000,15.9690478515625,-0.00017896443023346364,-0.0035446672700345516,-0.005697034299373627
1773790768144012000,15.989011962890626,0.00027750138542614877,-0.0024080302100628614,-0.004412857815623283
1773790768163975000,16.008974853515625,0.00035446672700345516,-0.0036549223586916924,-0.006529804784804583
1773790768183939000,16.02893896484375,-0.00048602689639665186,-0.00321949552744627,-0.006625412032008171
1773790768203902000,16.04890185546875,-0.0003539340978022665,-0.0017563547007739544,-0.004729773849248886
1773790768223865000,16.068864990234374,0.0005318332696333528,-0.003373426152393222,-0.005016862880438566
1773790768243829000,16.0888291015625,-0.0006934871198609471,-0.002977680414915085,-0.00615190202370286
1773790768263792000,16.108792236328124,0.00008149272616719827,-0.003835484618321061,-0.005604888778179884
1773790768283756000,16.128756103515624,0.0005558017292059958,-0.002150502521544695,-0.0067873322404921055
1773790768303719200,16.14871923828125,-0.0000655137628200464,-0.004332962911576033,-0.005793706979602575
1773790768323682000,16.16868212890625,-0.00006578007742064074,-0.004520982038229704,-0.0049092709086835384
1773790768343646000,16.18864599609375,0.00019760655413847417,-0.0023845944087952375,-0.0068270135670900345
1773790768363609000,16.208609130859376,-0.00001944107498275116,-0.004618453793227673,-0.004122839774936438
1773790768383573000,16.228572998046875,-0.0004985437262803316,-0.0029119004029780626,-0.004917527083307505
1773790768403536100,16.2485361328125,-0.0013398362789303064,-0.0024319987278431654,-0.005526325665414333
1773790768423499000,16.2684990234375,0.00044288369826972485,-0.003492203075438738,-0.007109308615326881
1773790768443463200,16.288463134765625,-0.0018884475575760007,-0.0029640982393175364,-0.005465073045343161
1773790768463425800,16.30842578125,0.00017976337403524667,-0.0037143107037991285,-0.0057138120755553246
1773790768483390200,16.32839013671875,-0.0009419600828550756,-0.0027864654548466206,-0.006419016979634762
1773790768503352800,16.348352783203126,0.00046312372433021665,-0.0031933963764458895,-0.004885036498308182
1773790768523316000,16.36831591796875,-0.0012112056137993932,-0.0038860845379531384,-0.005410477984696627
1773790768543279900,16.38827978515625,-0.0002932140196207911,-0.0026852653827518225,-0.004239486064761877
1773790768563243000,16.408242919921875,-0.0009307747823186219,-0.0033337450586259365,-0.006411560345441103
1773790768583206000,16.428205810546874,0.00010146643762709573,-0.0019920445047318935,-0.0041057956404984
1773790768603169800,16.448169677734374,-0.0005033374181948602,-0.0037736992817372084,-0.005968144163489342
1773790768623133000,16.4681328125,0.0004106594424229115,-0.002430667169392109,-0.005870406050235033
1773790768643096800,16.488096923828124,-0.0006934871198609471,-0.003216033335775137,-0.005534581374377012
1773790768663060000,16.50806005859375,0.0004468784318305552,-0.0034061830956488848,-0.005828860681504011
1773790768683022800,16.52802294921875,-0.0017480988753959537,-0.0016620787791907787,-0.005407282151281834
1773790768702987000,16.547987060546873,-0.0010074737947434187,-0.00230842805467546,-0.004659732803702354
1773790768722950000,16.567949951171876,-0.00047404266661033034,-0.0031169636640697718,-0.006543120369315147
1773790768742914000,16.5879140625,-0.00044474788592197,-0.002484462922438979,-0.004543885588645935
1773790768762877000,16.607876953125,0.000027963191314483993,-0.002447711303830147,-0.005656288005411625
1773790768782840000,16.627840087890625,-0.00101146858651191,-0.002799781272187829,-0.007380152121186256
1773790768802804000,16.647803955078125,0.0006122607155703008,-0.0024775387719273567,-0.006106095854192972
1773790768822767000,16.66776708984375,-0.0008689894457347691,-0.0038099181838333607,-0.005532983224838972
1773790768842731000,16.68773095703125,-0.00018109494703821838,-0.004474376793950796,-0.00574896577745676
1773790768862694100,16.707694091796874,0.0005020058597438037,-0.002529204124584794,-0.004486893769353628
1773790768882657000,16.727656982421873,-0.00037230990710668266,-0.003355050226673484,-0.0041159153915941715
1773790768902621000,16.747620849609376,-0.0010628675809130073,-0.0036131106317043304,-0.0035031221341341734
1773790768922583800,16.767583740234375,0.00010972223390126601,-0.0025539714843034744,-0.007095726206898689
1773790768942547000,16.787546875,0.0006245112745091319,-0.0021230720449239016,-0.006968427449464798
1773790768962510800,16.8075107421875,-0.0008247809601016343,-0.002758768619969487,-0.005320996046066284
1773790768982473700,16.8274736328125,0.00012197277828818187,-0.003893807763233781,-0.00569996377453208
1773790769002438000,16.84743798828125,-0.00030360036180354655,-0.004661863669753075,-0.00675351032987237
1773790769022400800,16.86740087890625,0.0004442152567207813,-0.004751079250127077,-0.005556419026106596
1773790769042364000,16.887364013671874,0.0005257080192677677,-0.003147856332361698,-0.006216350477188826
