time,seconds_elapsed,z,y,x
1773790752216873200,0.061873291015625,0.0009714238112792373,0.00015078112483024597,0.0006181471981108189
1773790752236837000,0.081837158203125,-0.000701938581187278,0.0002644895575940609,0.00025017326697707176
1773790752256801000,0.101801025390625,0.000325980712659657,-0.00004523014649748802,-0.0010053841397166252
1773790752276764200,0.12176416015625,-0.0004195735091343522,0.0007696873508393764,-0.0006080623716115952
1773790752299224000,0.14422412109375,0.00006150975241325796,-0.0006831621285527945,-0.0001664920710027218
1773790752319188500,0.1641884765625,0.0005178010324016213,-0.001170336501672864,-0.0012170556001365185
1773790752339151000,0.184151123046875,0.0006979327881708741,0.0006877647247165442,0.0012352126650512218
1773790752359115300,0.204115234375,0.0004912542644888163,0.0005912152118980885,0.0001414567232131958
1773790752379078100,0.224078125,0.00019958490156568587,0.0007421029731631279,-0.0002112826332449913
1773790752399042000,0.2440419921875,-0.00024047953775152564,0.0002830305602401495,0.0002523120492696762
1773790752419006500,0.26400634765625,0.0007594616618007421,0.00027287378907203674,0.0016906848177313805
1773790752438969000,0.283968994140625,-0.0006938326405361295,0.0004268847405910492,-0.0003562355414032936
1773790752458933200,0.303933349609375,0.0005748755065724254,-0.00006552273407578468,-0.0004196758382022381
1773790752478897400,0.3238974609375,0.00011098809773102403,-0.0001672385260462761,-0.0005332538858056068
1773790752498860300,0.3438603515625,-0.00042697673779912293,-0.00016175280325114727,0.0005914852954447269
1773790752518824400,0.363824462890625,-0.00045218534069135785,-0.00028923596255481243,-0.00015390384942293167
1773790752538788400,0.383788330078125,0.0005694489227607846,-0.00009555229917168617,-0.0014175483956933022
1773790752558751200,0.403751220703125,-0.0006652866723015904,0.0005075954832136631,0.0005391235463321209
1773790752578715400,0.42371533203125,-0.0007297099800780416,-0.0007035909220576286,0.0009161657653748989
1773790752598679300,0.44367919921875,0.000723181408829987,-0.0004926349502056837,0.0012941956520080566
1773790752618642400,0.463642333984375,-0.00021761827520094812,-0.0008969472255557775,0.001313531305640936
1773790752638606300,0.4836064453125,-0.0017748597310855985,-0.00003432855010032654,0.0006627091206610203
1773790752658569200,0.5035693359375,-0.0005806123372167349,-0.0009003104642033577,-0.0007338076829910278
1773790752678532400,0.523532470703125,-0.0006651364383287728,-0.00045370333828032017,0.00016296934336423874
1773790752698496300,0.543496337890625,0.0001319090079050511,-0.00011408980935811996,-0.00037812162190675735
1773790752718460400,0.56346044921875,0.00017860873776953667,-0.0008298491593450308,-0.0009218561463057995
1773790752738423300,0.58342333984375,-0.0007361669559031725,-0.0006286290008574724,0.0003052791580557823
1773790752758387200,0.60338720703125,0.00021171645494177938,-0.00028071715496480465,0.00035452935844659805
1773790752778351400,0.623351318359375,-0.000701319717336446,-0.00026976759545505047,0.00014146557077765465
1773790752798314200,0.643314208984375,0.00035267003113403916,0.0012808195315301418,0.0014382652007043362
1773790752818278400,0.6632783203125,-0.00012079550651833415,-0.0007014595903456211,-0.0003350204788148403
1773790752838241300,0.6832412109375,0.00003624212695285678,0.00027877441607415676,-0.000669628381729126
1773790752858205400,0.703205322265625,-0.0009325608843937516,-0.0015488099306821823,-0.0005933516658842564
1773790752878169300,0.72316943359375,-0.000958356074988842,0.00047383736819028854,-0.000021063722670078278
1773790752898132500,0.743132568359375,0.001602544798515737,0.0003824690356850624,-0.0007664412260055542
1773790752918096600,0.7630966796875,0.00033953660749830306,-0.00045843026600778103,0.0009299209341406822
1773790752938060500,0.783060546875,-0.0002607080095913261,-0.0009664818644523621,-0.00014161132276058197
1773790752958023400,0.8030234375,0.0007533245370723307,-0.0003439078573137522,-0.00024907710030674934
1773790752977987600,0.822987548828125,0.0006390118505805731,0.00008678738959133625,-0.0004507359117269516
1773790752997951500,0.842951416015625,0.0010255874367430806,-0.0004015299491584301,0.0006475606933236122
1773790753017914600,0.86291455078125,0.0005702369380742311,-0.0006299859378486872,0.00013952143490314484
1773790753037878500,0.88287841796875,-0.00005633480031974614,0.0008648904040455818,0.0005536642856895924
1773790753057841700,0.902841552734375,-0.001540062134154141,0.001190696144476533,0.0002311207354068756
1773790753077805600,0.9228056640625,0.0006528492085635662,0.0003356721717864275,0.0015641427598893642
1773790753097769500,0.94276953125,0.0010308841010555625,-0.0003100493922829628,-0.0013829534873366356
1773790753117732600,0.962732666015625,0.0005140806315466762,0.0008629963267594576,-0.00011668866500258446
1773790753137696500,0.982696533203125,-0.0004151773464400321,-0.001982900081202388,0.0001301504671573639
1773790753157660400,1.002660400390625,-0.0006498025031760335,-0.00025927857495844364,-0.0008062501437962055
1773790753177623600,1.02262353515625,0.0006608556723222136,0.00009036343544721603,-0.0010191714391112328
1773790753197587500,1.04258740234375,0.002044474706053734,0.000765753211453557,-0.001345628872513771
1773790753217550600,1.062550537109375,0.0005719396867789328,-0.0007255373056977987,-0.0005923300050199032
1773790753237514500,1.082514404296875,0.0004425248480401933,0.0001378590241074562,-0.0008705491200089455
1773790753257478400,1.102478515625,0.0007934937020763755,0.0006801355630159378,-0.001018062699586153
1773790753277441500,1.122441650390625,-0.0009811073541641235,0.0005618133582174778,-0.00024071382358670235
1773790753297405400,1.142405517578125,0.0010009906254708767,-0.0005237376317381859,-0.0010225172154605389
1773790753317369300,1.162369384765625,0.0009992823470383883,0.00005942094139754772,-0.0002703513018786907
1773790753337332500,1.18233251953125,-0.0005679905298165977,-0.0001588994637131691,0.0013201022520661354
1773790753357296400,1.20229638671875,0.00012965488713234663,-0.00014555547386407852,-0.00045314524322748184
1773790753377259500,1.222259521484375,-0.0014177305856719613,-0.000028594397008419037,0.0009560412727296352
1773790753397223400,1.242223388671875,-0.0004880201304331422,-0.000598239479586482,-0.00036650290712714195
1773790753417187300,1.262187255859375,-0.00004279150743968785,0.00034221168607473373,0.000341691542416811
1773790753437150500,1.282150390625,-0.0003449082432780415,-0.00039444700814783573,-0.0011387262493371964
1773790753457114400,1.3021142578125,-0.0006855701794847846,-0.0006358330138027668,0.0003525814972817898
1773790753477078500,1.32207861328125,-0.00024017199757508934,0.0006357987876981497,-0.0009696786291897297
1773790753497041400,1.34204150390625,-0.0003938754671253264,-0.0000898861326277256,0.0005820067599415779
1773790753517005600,1.362005615234375,0.0006641604704782367,0.0006866552866995335,-0.00007460452616214752
1773790753536968400,1.381968505859375,0.0009362107957713306,-0.0002753345761448145,-0.0007401760667562485
1773790753556932400,1.401932373046875,-0.0004342121828813106,0.0012688350398093462,0.0006872732192277908
1773790753576896500,1.421896484375,0.0016044147778302431,0.0007758538704365492,0.0011380896903574467
1773790753596859400,1.441859375,-0.000825951574370265,-0.0009194251615554094,-0.000019395258277654648
1773790753616823600,1.461823486328125,-0.0007417254382744431,0.000791656319051981,-0.0006897011771798134
1773790753636787500,1.481787353515625,0.000029981398256495595,-0.0009031905792653561,0.00011036684736609459
1773790753656750300,1.501750244140625,-0.0012984707718715072,-0.00028733513318002224,-0.0005344627425074577
1773790753676714500,1.521714599609375,0.0005144429160282016,0.00022550742141902447,0.000009837094694375992
1773790753696677400,1.541677490234375,-0.0009295197669416666,0.001053088577464223,0.00023838598281145096
1773790753716641500,1.5616416015625,-0.00037356046959757805,-0.0005282063502818346,0.00001941528171300888
1773790753736605400,1.58160546875,-0.0007391332183033228,0.0004791582468897104,0.0013515008613467216
1773790753756568300,1.601568359375,-0.00042511074570938945,-0.0003657073248177767,-0.0004675425589084625
1773790753776532500,1.621532470703125,-0.0007240555714815855,-0.00016080960631370544,0.0018111560493707657
1773790753796496400,1.641496337890625,0.0012374266516417265,-0.0009324206039309502,0.0003118417225778103
1773790753816459500,1.66145947265625,0.0008245052304118872,-0.00014570541679859161,0.0015152143314480782
1773790753836423400,1.68142333984375,-0.0007843101629987359,-0.0002927640452980995,-0.00029580574482679367
1773790753856386300,1.70138623046875,0.0003954116837121546,0.0004622652195394039,-0.00062137795612216
1773790753876350500,1.7213505859375,-0.0018122652545571327,-0.0001728080678731203,-0.000021989457309246063
1773790753896314000,1.741314208984375,-0.0004686323809437454,-0.0007312011439353228,0.000524482224136591
1773790753916277200,1.76127734375,0.00022136280313134193,0.0003447909839451313,-0.00023708492517471313
1773790753936241200,1.7812412109375,-0.0007036803290247917,0.0010984295513480902,0.0004722354933619499
1773790753956204300,1.801204345703125,-0.00020054998458363116,0.0010221593547612429,0.0004908731207251549
1773790753976168200,1.821168212890625,-0.0007506967522203922,0.0006579442415386438,0.00034060748293995857
1773790753996132000,1.841132080078125,-0.0010505288373678923,-0.000726040918380022,0.000242569949477911
1773790754016095200,1.86109521484375,0.001182223903015256,-0.00011498038657009602,-0.0007181884720921516
1773790754036059100,1.88105908203125,-0.0004319270374253392,-0.0004434597212821245,-0.0008034440688788891
1773790754056022300,1.901022216796875,-0.0001278902927879244,0.0003575601149350405,0.0004902868531644344
1773790754075986200,1.920986083984375,0.0009418533300049603,-0.0013196093495935202,-0.0006997538730502129
1773790754095950000,1.9409501953125,-0.0005087964236736298,0.00015708524733781815,-0.00003085937350988388
1773790754115913200,1.960913330078125,-0.00008177498239092529,0.0007502078078687191,0.0013909065164625645
1773790754135877000,1.980877197265625,0.00037214718759059906,-0.00045257597230374813,0.0003175698220729828
1773790754155841300,2.00084130859375,0.0005479593528434634,0.0003543177153915167,0.0003127316012978554
1773790754175804200,2.02080419921875,-0.00018575269496068358,-0.0008662769105285406,0.00022445572540163994
1773790754195768300,2.040768310546875,0.0004485521058086306,-0.00027168914675712585,0.0014223968610167503
1773790754215731200,2.060731201171875,0.00020854781905654818,-0.0002625260967761278,0.0004820101894438267
1773790754235695400,2.0806953125,0.000051112903747707605,0.00002515106461942196,-0.00021970225498080254
1773790754255659300,2.1006591796875,0.0008044551941566169,-0.0005094483494758606,0.0010070796124637127
1773790754275622100,2.1206220703125,-0.00044905138202011585,-0.0008027656003832817,-0.00003835046663880348
1773790754295586300,2.14058642578125,0.0007632161723449826,-0.00045371404848992825,-0.0006067105568945408
1773790754315550200,2.16055029296875,-0.00009549612877890468,0.0011831376468762755,0.0000664801336824894
1773790754335513300,2.180513427734375,0.001134015852585435,0.00001760711893439293,0.00008716387674212456
1773790754355477200,2.200477294921875,-0.0009532427648082376,0.00034448085352778435,-0.0021385974250733852
1773790754375440400,2.2204404296875,0.000146544145536609,-0.0007300565484911203,0.00047616660594940186
1773790754395404300,2.240404296875,0.0016043685609474778,-0.00009926734492182732,-0.0003953198902308941
1773790754415368200,2.2603681640625,-0.00014843512326478958,-0.0004973346367478371,0.0003170832060277462
1773790754435331300,2.280331298828125,0.001065822783857584,0.000009896233677864075,0.00028972141444683075
1773790754455295200,2.300295166015625,0.0005781372310593724,-0.0008499899413436651,0.0005695116706192493
1773790754475258400,2.32025830078125,-0.00089274748461321,0.0005923539865761995,-0.0004554176703095436
1773790754495222300,2.34022216796875,-0.00044561727554537356,0.0016272965585812926,0.000017097685486078262
1773790754515186400,2.3601865234375,0.0012662470107898116,-0.0008885778952389956,0.0002900809049606323
1773790754535149300,2.3801494140625,-0.0005354339373297989,-0.0006287193391472101,-0.001181725412607193
1773790754555113200,2.40011328125,-0.0010812185937538743,-0.0003343785647302866,0.00007117306813597679
1773790754575076400,2.420076416015625,0.0010976179037243128,-0.0005888177547603846,-0.0005583446472883224
1773790754595040300,2.440040283203125,-0.0011429442092776299,0.0008294046856462955,0.0014614551328122616
1773790754615004400,2.46000439453125,0.00005168571078684181,0.0011780974455177784,-0.00006271200254559517
1773790754634967300,2.47996728515625,-0.0006231022416613996,-0.0011008097790181637,0.00025873351842164993
1773790754654931200,2.49993115234375,0.00048465339932590723,-0.00010821525938808918,-0.00040569016709923744
1773790754674894300,2.519894287109375,-0.0007810427341610193,-0.000041995663195848465,-0.0010133963078260422
1773790754694858200,2.539858154296875,0.0006318292580544949,-0.0004921157378703356,0.0008680950850248337
1773790754714822400,2.559822509765625,0.0012532713590189815,-0.0017363936640322208,-0.0007955804467201233
1773790754734785300,2.579785400390625,0.0004233256622683257,-0.001094312872737646,0.0008131959475576878
1773790754754749200,2.599749267578125,0.00019837377476505935,-0.0009039083961397409,-0.0011927932500839233
1773790754774712300,2.61971240234375,0.001211443217471242,0.0009408982004970312,0.001377261709421873
1773790754794676200,2.63967626953125,0.0007782313041388988,0.0003376526292413473,0.0000854874961078167
1773790754814640400,2.659640380859375,0.0001789132656995207,0.0005128306802362204,-0.0007517775520682335
1773790754834603300,2.679603271484375,-0.0005052295746281743,-0.0004307134076952934,0.00027403421700000763
1773790754854567200,2.699567138671875,-0.0010937601327896118,0.000353487441316247,0.0008847387507557869
1773790754874530300,2.7195302734375,-0.0009650607826188207,0.000212561571970582,0.0006471681408584118
1773790754894494000,2.739493896484375,-0.0008563630981370807,0.0008209799416363239,-0.00006886431947350502
1773790754914458000,2.7594580078125,0.0006255848566070199,-0.0008688957896083593,-0.000029460527002811432
1773790754934421000,2.7794208984375,-0.001004416262730956,0.00017414125613868237,-0.000723580364137888
1773790754954385200,2.79938525390625,-0.00024628228857181966,-0.0002297998871654272,-0.0001616976223886013
1773790754974348000,2.81934814453125,0.0008945848676376045,-0.00037131644785404205,0.000011443626135587692
1773790754994312000,2.83931201171875,-0.00036295613972470164,-0.00008777505718171597,-0.0005678697489202023
1773790755014276000,2.859276123046875,-0.00009609617700334638,-0.00005785119719803333,-0.0000873226672410965
1773790755034239000,2.879239013671875,-0.0007752036326564848,0.00014385441318154335,-0.00009587220847606659
1773790755054203100,2.899203125,0.0004922618390992284,0.0002295803278684616,0.0005038343369960785
1773790755074166000,2.919166015625,-0.0001708158670226112,-0.00044200452975928783,-0.0001033036969602108
1773790755094130000,2.9391298828125,-0.0012538856826722622,0.0003942446783185005,0.0005118399858474731
1773790755114094000,2.959093994140625,-0.00016876528388820589,-0.00005679065361618996,-0.00045646028593182564
1773790755134057000,2.979056884765625,0.0006567593663930893,-0.000019431347027420998,-0.0002787560224533081
1773790755154021000,2.999021240234375,0.0005633576074615121,-0.0008774911984801292,0.0002547907643020153
1773790755173984000,3.01898388671875,-0.00004468729457585141,-0.000273087527602911,-0.000059495214372873306
1773790755193948000,3.038947998046875,-0.00003202544030500576,-0.00021927314810454845,-0.001696303952485323
1773790755213912000,3.058912109375,-0.0006619248306378722,-0.00037174648605287075,0.0004934407770633698
1773790755233875000,3.078875,-0.0009911343222483993,-0.0006306667346507311,-0.00046201422810554504
1773790755253839000,3.098839111328125,-0.0003269415465183556,0.0004371930845081806,-0.00022626854479312897
1773790755273802000,3.118802001953125,-0.0001462372310925275,-0.0015028156340122223,-0.0007381923496723175
1773790755293766100,3.13876611328125,-0.0005762601504102349,-0.00007415656000375748,0.0007004397921264172
1773790755313730000,3.15872998046875,-0.00005901145050302148,-0.0010368276853114367,0.0011243019253015518
1773790755333693000,3.17869287109375,0.0005383557872846723,-0.0007895897142589092,-0.001348848920315504
1773790755353657000,3.198656982421875,-0.000008902468835003674,-0.0007825144566595554,-0.0007856483571231365
1773790755373620000,3.218619873046875,-0.0016812076792120934,-0.0006094942800700665,-0.000434359535574913
1773790755393584000,3.238584228515625,-0.0004931758157908916,0.000599282793700695,-0.000274494756013155
1773790755413548300,3.25854833984375,0.00026391056599095464,-0.0005236074794083834,-0.0005490970797836781
1773790755433511000,3.278510986328125,-0.0008709446410648525,-0.00040364661253988743,-0.0001848801039159298
1773790755453475300,3.298475341796875,-0.0016851124819368124,0.0006730980239808559,0.0012121237814426422
1773790755473438000,3.31843798828125,0.00019621712272055447,0.00026955711655318737,-0.0002504456788301468
1773790755493402000,3.338402099609375,0.000024739398213569075,-0.0005529914051294327,-0.0018100477755069733
1773790755513366300,3.3583662109375,-0.00030374096240848303,0.00039271661080420017,-0.00033002253621816635
1773790755533329000,3.378328857421875,0.00007130653830245137,-0.00018248101696372032,0.0002687545493245125
1773790755553293300,3.398293212890625,0.00012101631000405177,0.0001583332195878029,-0.0007279389537870884
1773790755573256000,3.418255859375,-0.0010148449800908566,-0.00008089584298431873,0.0005389824509620667
1773790755593220400,3.438220458984375,0.0005013651680201292,0.0005801799707114697,-0.00019527319818735123
1773790755613183000,3.458182861328125,0.00023112751659937203,0.0007348260842263699,-0.0006449404172599316
1773790755633147000,3.47814697265625,-0.0013282793806865811,0.00041012070141732693,0.00014650588855147362
1773790755653111300,3.498111328125,-0.0013031316921114922,-0.00008383579552173615,-0.001046628225594759
1773790755673074000,3.518073974609375,-0.0007289269706234336,0.0003303706180304289,-0.0006872853264212608
1773790755693038300,3.538038330078125,-0.00014117926184553653,-0.0017887311987578869,-0.0000036088749766349792
1773790755713001000,3.5580009765625,-0.0005648136720992625,0.0015559542225673795,-0.00016214186325669289
1773790755732965000,3.577965087890625,0.00003973765706177801,-0.00012836256064474583,0.00034978101029992104
1773790755752929300,3.59792919921875,-0.0017657987773418427,-0.0009514614939689636,0.0003828909248113632
1773790755772892200,3.61789208984375,-0.0018598920432850718,0.0005556447431445122,0.0010372344404459
1773790755792856300,3.637856201171875,-0.0001380031753797084,0.00044559291563928127,-0.0011906740255653858
1773790755812819000,3.65781884765625,-0.00004763161996379495,-0.0000356829259544611,-0.0007363022305071354
1773790755832783000,3.677783203125,0.0017278115265071392,-0.00000631832517683506,-0.0003993925638496876
1773790755852746000,3.69774609375,0.0002874477067962289,-0.00019897171296179295,-0.00010957475751638412
1773790755872710100,3.717710205078125,0.00012333746417425573,-0.000630080234259367,0.0006047803908586502
1773790755892674300,3.73767431640625,-0.000639682519249618,0.0003499214071780443,0.0006416537798941135
1773790755912638200,3.75763818359375,-0.0015245391987264156,-0.002065731445327401,0.00008824467658996582
1773790755932602000,3.77760205078125,0.00040087662637233734,0.0004221952985972166,-0.0007865359075367451
1773790755952565200,3.797565185546875,0.0003669204597827047,-0.00035120383836328983,-0.00014674151316285133
1773790755972529200,3.817529052734375,-0.0008439578814432025,0.0003949403762817383,0.000038961414247751236
1773790755992493000,3.8374931640625,0.0006441687000915408,-0.0006700532976537943,-0.000494734849780798
1773790756012456200,3.857456298828125,-0.0008700537146069109,-0.0003440752625465393,0.0006224354729056358
1773790756032420000,3.877420166015625,-0.0003083939664065838,-0.0010115320328623056,0.0006818771362304688
1773790756052383200,3.89738330078125,0.001593295601196587,-0.000058850739151239395,0.0004502367228269577
1773790756072347100,3.91734716796875,-0.00021132489200681448,0.00006675417535007,0.0004044054076075554
1773790756092310300,3.937310302734375,0.00045360226067714393,0.0005808454006910324,0.00009939493611454964
1773790756112274200,3.957274169921875,0.001013397704809904,-0.0007831554394215345,0.00023836828768253326
1773790756132238000,3.977238037109375,-0.0006832524668425322,0.0008319129701703787,0.0005614175461232662
1773790756152201200,3.997201171875,0.000027623376809060574,0.00040177186019718647,0.00016205990687012672
1773790756172165000,4.0171650390625,-0.0008351794094778597,-0.0008427761495113373,0.0008858172222971916
1773790756192128300,4.037128173828125,0.0010105480905622244,-0.00030423025600612164,0.0006935126148164272
1773790756212092200,4.057092041015625,0.00010038478649221361,0.0006491751410067081,-0.0005008415319025517
1773790756232056000,4.07705615234375,-0.0003491804236546159,-0.0003056097775697708,-0.0017599249258637428
1773790756252019200,4.097019287109375,0.0006494948174804449,-0.0002496405504643917,0.00039695482701063156
1773790756271983000,4.116983154296875,-0.0005574438255280256,-0.0008701041806489229,-0.0011293618008494377
1773790756310663200,4.1556630859375,0.0007400426547974348,-0.00005579553544521332,0.0009172926656901836
1773790756330627300,4.17562744140625,-0.0006801298586651683,0.00030826451256871223,0.0008042361587285995
1773790756350590200,4.195590087890625,0.000132351866341196,-0.001160160405561328,-0.00017375685274600983
1773790756370554000,4.21555419921875,0.00040883422479964793,-0.000058208126574754715,-0.0009230710566043854
1773790756390517200,4.235517333984375,0.00016479748592246324,-0.00016023148782551289,0.00006844568997621536
1773790756410481200,4.255481201171875,0.0005296224262565374,-0.00027691712602972984,0.0005824300460517406
1773790756430444300,4.2754443359375,0.00009261313243769109,-0.0003066577482968569,0.0003949231468141079
1773790756450408200,4.295408203125,-0.0007255303207784891,0.0008263366762548685,-0.00016990257427096367
1773790756470372000,4.3153720703125,0.0008690374088473618,-0.00029700202867388725,-0.0000423528254032135
1773790756490335200,4.335335205078125,-0.0014440084341913462,-0.0005571728106588125,0.00009719701483845711
1773790756510299100,4.355299072265625,0.00019454718858469278,0.0005252701230347157,-0.0008506281301379204
1773790756530262300,4.37526220703125,-0.0001651691272854805,-0.00044026668183505535,0.00023070070892572403
1773790756550226200,4.39522607421875,0.000018780585378408432,-0.000003956491127610207,0.0004679737612605095
1773790756570189300,4.415189208984375,-0.0019198579248040915,-0.001306010875850916,0.001634497195482254
1773790756590153200,4.4351533203125,0.0005184600013308227,-0.000801601679995656,0.00019191531464457512
1773790756610117000,4.4551171875,0.0012308098375797272,-0.00015761307440698147,-0.0013118768110871315
1773790756630080300,4.475080322265625,-0.0004271859070286155,0.0003321846015751362,0.0002279798500239849
1773790756650044200,4.495044189453125,0.00044148098095320165,0.0007345108315348625,-0.000930476002395153
1773790756670007300,4.51500732421875,0.0009463833412155509,-0.0008940394036471844,0.0004872521385550499
1773790756689971200,4.53497119140625,0.0003822164435405284,0.0011231754906475544,0.00201579206623137
1773790756709934300,4.554934326171875,-0.0010764766484498978,-0.0007207766175270081,-0.00035031186416745186
1773790756729898200,4.574898193359375,0.0003100374015048146,0.00044913473539054394,0.000026914291083812714
1773790756749862100,4.594862060546875,-0.0006730935419909656,-0.0004327264614403248,-0.00039473967626690865
1773790756769825300,4.6148251953125,-0.000570062780752778,-0.000003453576937317848,0.0007841885089874268
1773790756789789200,4.6347890625,0.00007158165681175888,0.0007060875650495291,0.0009352173656225204
1773790756809752300,4.65475244140625,0.0006915114936418831,0.00006949529051780701,0.00010933680459856987
1773790756829716200,4.67471630859375,-0.0016404285561293364,-0.0006641794461756945,0.0014746831730008125
1773790756849679000,4.69467919921875,-0.00004374817945063114,0.00004493934102356434,-0.0014332053251564503
1773790756869643300,4.714643310546875,0.00004994429764337838,-0.0005895420908927917,0.00016837799921631813
1773790756889607200,4.734607177734375,0.0008825794793665409,0.0003298947121948004,-0.00021552853286266327
1773790756909569300,4.7545693359375,-0.0002829779405146837,-0.0013375119306147099,-0.0009065242484211922
1773790756929533400,4.774533447265625,-0.00041986367432400584,-0.000574904028326273,-0.0011724764481186867
1773790756949496300,4.794496337890625,0.00035138276871293783,0.00023251422680914402,0.00012743566185235977
1773790756969460500,4.81446044921875,0.000016873382264748216,0.0008457156363874674,-0.00009867316111922264
1773790756989423400,4.83442333984375,-0.0009196372702717781,0.00032941089011728764,-0.00014073634520173073
1773790757009387300,4.85438720703125,0.0008404871332459152,-0.0002694227732717991,0.0008977390825748444
1773790757029350400,4.874350341796875,-0.0007569255540147424,0.00029403669759631157,-0.0011773817241191864
1773790757049314300,4.894314208984375,-0.000014838413335382938,0.00010023452341556549,-0.00037490855902433395
1773790757069278500,4.914278564453125,0.00017359296907670796,-0.00032371864654123783,0.000328154768794775
1773790757089241300,4.934241455078125,-0.0009278749348595738,0.00023738201707601547,-0.000737825408577919
1773790757109205500,4.95420556640625,-0.00017755967564880848,0.0000696391798555851,-0.0004236064851284027
1773790757129168400,4.97416845703125,0.00011403369717299938,0.00009501003660261631,0.000265706330537796
1773790757149132300,4.99413232421875,-0.0017581835854798555,0.0010946246329694986,-0.0013749636709690094
1773790757169095200,5.01409521484375,0.0005534596275538206,0.0004989751614630222,0.0002199229784309864
1773790757189059300,5.034059326171875,-0.001273289555683732,-0.00020274636335670948,-0.00020483508706092834
1773790757209023500,5.0540234375,-0.0005225092172622681,0.0004984282422810793,0.00024347100406885147
1773790757228986400,5.073986328125,-0.0011086845770478249,-0.000601255102083087,-0.000030738767236471176
1773790757248950500,5.093950439453125,-0.00029451545560732484,0.00010371091775596142,-0.00006641261279582977
1773790757268913200,5.1139130859375,-0.0003933012194465846,-0.0006740731187164783,-0.0005342243239283562
1773790757288877600,5.133877685546875,-0.0006497414433397353,0.000739972572773695,-0.0006344071589410305
1773790757308840200,5.153840087890625,-0.001113241072744131,-0.0008475570939481258,0.0005579185672104359
1773790757328804400,5.173804443359375,0.0006290387827903032,0.0009612420108169317,-0.0010545356199145317
1773790757348767200,5.193767333984375,0.0007715373067185283,-0.00014756759628653526,-0.0008782530203461647
1773790757368731100,5.213731201171875,0.0002963279839605093,-0.00029806746169924736,-0.001021417323499918
1773790757388695600,5.233695556640625,-0.000962159363552928,0.0007388312369585037,-0.0001275693066418171
1773790757408658200,5.253658203125,0.00011956554953940213,-0.0004104918334633112,-0.000800078734755516
1773790757428622600,5.27362255859375,0.00003277967334724963,0.0002510922495275736,0.00019627856090664864
1773790757448585200,5.293585205078125,0.000014997785910964012,0.00036056782118976116,-0.0003499463200569153
1773790757468549400,5.31354931640625,-0.0003873325476888567,-0.0003755204379558563,-0.0005768677219748497
1773790757488512300,5.33351220703125,0.00017034568008966744,0.00010810606181621552,0.0005067014135420322
1773790757508476200,5.35347607421875,0.0007742211455479264,0.0013462911592796445,0.00005590682849287987
1773790757528439300,5.373439208984375,-0.0005853568436577916,-0.0003678745124489069,-0.0012912508100271225
1773790757548403200,5.3934033203125,0.0004210346669424325,-0.00040804711170494556,-0.0006460519507527351
1773790757568367400,5.413367431640625,0.0019585909321904182,-0.00020952662453055382,0.0002819877117872238
1773790757588330200,5.433330322265625,-0.0005241162143647671,0.00018435390666127205,0.001007387414574623
1773790757608294400,5.45329443359375,-0.0003495496930554509,0.0007842096965759993,0.0015626493841409683
1773790757628257300,5.47325732421875,-0.00018512937822379172,0.0009492670651525259,0.0010091601870954037
1773790757648221200,5.49322119140625,0.0004549339064396918,-0.000829292694106698,0.00020901300013065338
1773790757668184300,5.513184326171875,0.00035418954212218523,0.0001697181724011898,0.0011889361776411533
1773790757688148200,5.533148193359375,-0.0006754808709956706,-0.0008325485978275537,0.000521430280059576
1773790757708111400,5.553111328125,0.0002132626250386238,-0.00020479434169828892,0.0007446557283401489
1773790757728075300,5.5730751953125,-0.0004469762498047203,0.0001861413475126028,-0.00018515344709157944
1773790757748039400,5.593039306640625,0.00034315837547183037,0.0008017087820917368,0.001265028491616249
1773790757768002300,5.613002197265625,0.0005017476505599916,0.00009702821262180805,-0.0006657657213509083
1773790757787966200,5.63296630859375,-0.0029148468747735023,0.0005632301326841116,-0.0010662362910807133
1773790757807929300,5.652929443359375,0.000532472156919539,0.00044539524242281914,-0.0008745007216930389
1773790757827893200,5.672893310546875,0.0007592592155560851,0.00034406897611916065,0.0006283586844801903
1773790757847856400,5.6928564453125,0.0007881618803367019,-0.00024471012875437737,0.0008987789042294025
1773790757867820300,5.7128203125,-0.000005220586899667978,0.00003626546822488308,0.0009069610387086868
1773790757887783200,5.732783203125,0.0004825069336220622,-0.0002321903593838215,0.00046993745490908623
1773790757907747600,5.75274755859375,0.00040238298242911696,-0.0004957632627338171,-0.00004636356607079506
1773790757927710500,5.77271044921875,0.00013313934323377907,0.001081929192878306,0.0002799541689455509
1773790757947674600,5.792674560546875,-0.0007589221931993961,0.0011507802410051227,-0.0006512380205094814
1773790757967638800,5.812638671875,-0.000528103846590966,-0.00022453488782048225,-0.00015646405518054962
1773790757987601400,5.832601318359375,0.0015369851607829332,0.00132121576461941,-0.000688682310283184
1773790758007565800,5.85256591796875,0.0003165116359014064,-0.0010300760623067617,0.00015916582196950912
1773790758027528400,5.872528564453125,-0.00045081734424456954,0.0011242999462410808,0.0011269953101873398
1773790758047492600,5.89249267578125,0.0005602353485301137,0.0009256175253540277,-0.00019415514543652534
1773790758067455500,5.91245556640625,-0.0004996347124688327,0.00042122905142605305,-0.00012006377801299095
1773790758087419400,5.93241943359375,0.00012764327402692288,0.00024233805015683174,-0.0006368444301187992
1773790758107382500,5.952382568359375,0.0008448559092357755,-0.0014729329850524664,0.00017795711755752563
1773790758127346400,5.972346435546875,0.00014354143058881164,0.00017035333439707756,-0.0006761257536709309
1773790758147309600,5.9923095703125,0.0007407079683616757,0.00013995077461004257,0.00016036629676818848
1773790758167273500,6.0122734375,0.0002323058433830738,-0.0005389563739299774,-0.00007570302113890648
1773790758187237400,6.0322373046875,0.0004039980995003134,-0.00007894635200500488,0.0015675812028348446
1773790758207200500,6.052200439453125,-0.0006977595621719956,-0.00027766451239585876,-0.0005004005506634712
1773790758227164400,6.072164306640625,0.0005593560636043549,0.0008048657327890396,0.00008481135591864586
1773790758247127600,6.09212744140625,-0.0005846194108016789,-0.0005143079906702042,-0.0007019988261163235
1773790758267091500,6.112091552734375,0.0006087630754336715,0.0004316619597375393,0.00014950288459658623
1773790758287054600,6.1320546875,0.0010025232331827283,0.0007518944330513477,0.0009344276040792465
1773790758307018500,6.1520185546875,0.0002156090922653675,-0.0012424781452864408,-0.00014702416956424713
1773790758326981600,6.171981689453125,0.000738463131710887,0.0011611583177000284,-0.0013658497482538223
1773790758346945500,6.191945556640625,-0.00029969692695885897,0.00026811310090124607,-0.0008851070888340473
1773790758366908700,6.21190869140625,-0.000004307687049731612,0.00031203986145555973,-0.0005766395479440689
1773790758386872600,6.23187255859375,0.0011585891479626298,0.00013005896471440792,-0.0011654496192932129
1773790758406836500,6.25183642578125,0.00028753740480169654,-0.0011530404444783926,0.0015814006328582764
1773790758426799600,6.271799560546875,0.0007893705042079091,0.00038988981395959854,-0.001191412564367056
1773790758446763500,6.291763427734375,0.0006834533996880054,0.0005871136672794819,0.0006109084933996201
1773790758466726700,6.3117265625,-0.00005618721479550004,-0.000007624505087733269,-0.00029840273782610893
1773790758486690600,6.331690673828125,0.0008271284168586135,0.00009492854587733746,0.00002494174987077713
1773790758506653400,6.3516533203125,0.00025189839652739465,0.000022633932530879974,0.0009883809834718704
1773790758526617600,6.37161767578125,-0.0005543321603909135,0.0010091050062328577,0.0007587280124425888
1773790758546580500,6.39158056640625,-0.0010927006369456649,0.00008817738853394985,-0.0009764367714524269
1773790758566544600,6.411544677734375,-0.0008594421669840813,-0.00046679237857460976,0.0005889781750738621
1773790758586507500,6.431507568359375,0.0004461761855054647,0.0012676280457526445,0.0013805646449327469
1773790758606471400,6.451471435546875,-0.000006012094672769308,0.00043107895180583,-0.00020027253776788712
1773790758626434600,6.4714345703125,-0.0006004832684993744,-0.000016334466636180878,0.00033316249027848244
1773790758646398500,6.4913984375,0.0003000572032760829,0.0007677574176341295,-0.000819438137114048
1773790758666362600,6.511362548828125,0.00033037280081771314,-0.000126528088003397,0.000727351289242506
1773790758686325500,6.531325439453125,0.00010011662379838526,-0.0011362407822161913,-0.00003641936928033829
1773790758706289400,6.551289306640625,0.00013064497034065425,0.0010915270540863276,-0.00044353771954774857
1773790758726252500,6.57125244140625,-0.0003709752927534282,0.0006570506375283003,0.00006632786244153976
1773790758746216400,6.591216552734375,0.0006767509621568024,-0.0007922286167740822,-0.0008481466211378574
1773790758766179600,6.6111796875,0.00012363865971565247,-0.00011866632848978043,0.0013106954284012318
1773790758786143500,6.6311435546875,-0.0004008529940620065,0.0016879461472854018,0.0001710769720375538
1773790758806106600,6.651106689453125,-0.0003187473048456013,-0.00010289507918059826,0.0005290661938488483
1773790758826070500,6.671070556640625,-0.00043640134390443563,0.0003851128276437521,-0.00026557035744190216
1773790758846033700,6.69103369140625,0.0007561385864391923,-0.0006394931115210056,0.00037520239129662514
1773790758865997600,6.71099755859375,0.0005261049955151975,0.0005634569097310305,0.0011482350528240204
1773790758885960700,6.730960693359375,0.0005356465117074549,-0.0005630634259432554,0.001485914457589388
1773790758905924400,6.75092431640625,-0.0007398121524602175,0.0002848617732524872,0.00019597401842474937
1773790758925887200,6.77088720703125,0.0015747901052236557,-0.00008917949162423611,-0.0006027184426784515
1773790758945851400,6.790851318359375,-0.0009122648043558002,0.0012559759197756648,-0.0007110610604286194
1773790758965815300,6.810815185546875,0.0006550069083459675,-0.0008224919438362122,-0.0007056514732539654
1773790758985778400,6.8307783203125,-0.00024902354925870895,-0.0008146932814270258,-0.000699878204613924
1773790759005742300,6.850742431640625,0.0006406772299669683,-0.000014334218576550484,-0.0012271585874259472
1773790759025705200,6.870705322265625,-0.0012102777836844325,-0.0002031601034104824,0.0003813975490629673
1773790759045669400,6.89066943359375,-0.0020518808159977198,0.00007657008245587349,-0.00022821873426437378
1773790759065632300,6.91063232421875,-0.00013146648416295648,-0.0011836923658847809,-0.0008633187972009182
1773790759085596400,6.930596435546875,0.0010060021886602044,-0.0010507688857614994,-0.0007745041511952877
1773790759105559300,6.950559326171875,-0.0004727162013296038,0.000943552004173398,0.0003227819688618183
1773790759125523500,6.9705234375,0.00032577902311459184,0.0002420828677713871,0.000039184000343084335
1773790759145486300,6.990486328125,0.0009023138554766774,0.00011541275307536125,-0.0003558616153895855
1773790759165450200,7.0104501953125,0.000023393804440274835,0.00012139277532696724,0.0011050645262002945
1773790759185413400,7.030413330078125,-0.000266579125309363,0.0003233670722693205,-0.00032202014699578285
1773790759205377300,7.050377197265625,-0.00020415254402905703,-0.0012004338204860687,0.0005623446777462959
1773790759225340400,7.07034033203125,0.0003250584122724831,-0.0005513178184628487,0.0007879096083343029
1773790759245304300,7.09030419921875,-0.0001735605183057487,0.0012118796585127711,-0.00015981169417500496
1773790759265267500,7.110267333984375,0.000015228928532451391,0.00007343501783907413,0.0003178822807967663
1773790759285231400,7.1302314453125,0.00009175817831419408,-0.00007617566734552383,0.0002414141781628132
1773790759305195300,7.1501953125,0.0009369198232889175,0.0012965588830411434,-0.0013752402737736702
1773790759325158400,7.170158447265625,0.0003700943780131638,-0.0003479784354567528,0.0020841355435550213
1773790759345122300,7.190122314453125,-0.000837075465824455,0.00010851048864424229,0.0010394849814474583
1773790759365085400,7.21008544921875,-0.0014148128684610128,-0.0005707715172320604,-0.0009501134045422077
1773790759385049300,7.23004931640625,-0.000700819306075573,0.00003871088847517967,0.0010987157002091408
1773790759405012500,7.250012451171875,-0.0001499950303696096,-0.0006997305899858475,0.0007197372615337372
1773790759424976400,7.269976318359375,0.0017775304149836302,0.00041317567229270935,-0.0005767284892499447
1773790759444939300,7.289939208984375,-0.0004922262160107493,-0.0010629305616021156,0.001041552983224392
1773790759464903400,7.3099033203125,-0.0005329886917024851,-0.00025236373767256737,0.00001102406531572342
1773790759484866300,7.3298662109375,0.0012154625728726387,0.0002120372373610735,-0.00019351020455360413
1773790759504830500,7.34983056640625,-0.0001426232047379017,0.00012960657477378845,-0.0003925347700715065
1773790759524793300,7.36979345703125,0.000501971400808543,-0.0003761912230402231,-0.0008447328582406044
1773790759544757200,7.38975732421875,-0.00017809175187721848,-0.0013877516612410545,-0.0002608541399240494
1773790759564720400,7.409720458984375,-0.00109787005931139,0.000284756300970912,-0.00022366223856806755
1773790759584684300,7.429684326171875,0.000293334829621017,0.0004062268417328596,-0.00011770334094762802
1773790759604647400,7.4496474609375,-0.001523916726000607,0.0003908667713403702,-0.00023579271510243416
1773790759624611300,7.469611328125,-0.00010253212531097233,0.0003565272781997919,-0.0006443606689572334
1773790759644574500,7.489574462890625,0.0007032944704405963,0.0013889373512938619,0.0006472105160355568
1773790759664538400,7.509538330078125,-0.0002844944247044623,0.0003208632115274668,0.0005686767399311066
1773790759684501500,7.52950146484375,-0.00024548073997721076,0.00022444874048233032,-0.00003011198714375496
1773790759704465400,7.54946533203125,-0.0005260256584733725,-0.0005886675789952278,-0.0005311556160449982
1773790759724428300,7.56942822265625,-0.00006999276229180396,0.00008144788444042206,0.0009965403005480766
1773790759744392400,7.589392333984375,0.00048550343490205705,-0.001080116955563426,0.0007761321030557156
1773790759764356400,7.6093564453125,-0.0004624412104021758,0.0003405993338674307,-0.00035389047116041183
1773790759784319500,7.629319580078125,0.0010770827066153288,0.0011823493987321854,0.0010870699770748615
1773790759804283400,7.649283447265625,0.00010676769306883216,-0.0016380725428462029,0.0008290945552289486
1773790759824246500,7.66924658203125,0.00013533318997360766,-0.00006212759763002396,-0.00010074488818645477
1773790759844210400,7.68921044921875,-0.0011737344320863485,0.0000369043555110693,0.00013797543942928314
1773790759864173300,7.70917333984375,-0.000519544119015336,0.0004032393917441368,0.00004642456769943237
1773790759884137500,7.729137451171875,-0.00006692006718367338,-0.0004812742117792368,-0.00032396847382187843
1773790759904099800,7.749099853515625,0.0018125169444829226,0.0006373224314302206,0.0009763464331626892
1773790759924064000,7.76906396484375,0.0006699038785882294,-0.00019652443006634712,0.000659797340631485
1773790759944027000,7.78902685546875,-0.0005034308414906263,0.0003667364362627268,0.00007965182885527611
1773790759963991000,7.808990966796875,0.00075177988037467,0.000033460790291428566,-0.0009098374284803867
1773790759983954000,7.828953857421875,0.0011694396380335093,0.00016133300960063934,0.0005111782811582088
1773790760003917800,7.848917724609375,0.0005567133775912225,0.0007822406478226185,0.00031017325818538666
1773790760023881000,7.868880859375,0.00036355029442347586,0.00040912674739956856,-0.0012266789563000202
1773790760043844900,7.888844970703125,-0.0011494752252474427,-0.0014691739343106747,-0.00017459597438573837
1773790760063808000,7.90880810546875,-0.00013977917842566967,0.0015113704139366746,0.00005542673170566559
1773790760083772000,7.92877197265625,0.0009812896605581045,0.0007488243281841278,-0.0001316433772444725
1773790760103735000,7.948735107421875,-0.0003160756314173341,0.0017419519135728478,-0.0008764383383095264
1773790760123699000,7.968698974609375,0.001349281519651413,0.00032920227386057377,0.0006801243871450424
1773790760143662000,7.988662109375,-0.0006949346279725432,0.0014656708808615804,-0.0008092573843896389
1773790760163626000,8.0086259765625,0.002414450980722904,0.00008520553819835186,0.0011251452378928661
1773790760183588900,8.0285888671875,-0.001035549328662455,0.002173640299588442,-0.0007392396219074726
1773790760203553000,8.048552978515625,-0.000063262355979532,0.0015766245778650045,0.000764699187129736
1773790760223516000,8.068515869140626,-0.0005407263524830341,0.000022142427042126656,-0.0001482372172176838
1773790760243480000,8.08847998046875,-0.0007880657794885337,-0.00028177001513540745,0.0008451980538666248
1773790760263443000,8.10844287109375,0.0011604081373661757,0.0015783155104145408,0.0005294159054756165
1773790760283406800,8.12840673828125,0.00047841458581387997,-0.00017767283134162426,0.0008211550302803516
1773790760303370000,8.148369873046875,0.0016188586596399546,0.00022763432934880257,-0.000694353599101305
1773790760323334000,8.168333984375,0.0003404485178180039,-0.00009920494630932808,0.0003863922320306301
1773790760343297000,8.188297119140625,0.00027486623730510473,0.0001913879532366991,-0.0010406821966171265
1773790760363261000,8.208260986328124,0.0007697655237279832,0.0005374641623347998,0.001257453579455614
1773790760383224000,8.22822412109375,0.0011896344367414713,0.000020827632397413254,0.0000469316728413105
1773790760403188000,8.24818798828125,0.0010499423369765282,-0.0005520910490304232,0.000953970942646265
1773790760423151000,8.268151123046875,0.0018408175092190504,0.00023669330403208733,0.00032010721042752266
1773790760443115000,8.288114990234375,0.00041680646245367825,-0.0008379458449780941,-0.0006271903403103352
1773790760463078100,8.308078125,0.0005586150218732655,0.0007645813748240471,-0.00045415060594677925
1773790760483042000,8.3280419921875,-0.0007248329930007458,0.0008385053370147943,0.00010833190754055977
1773790760503005000,8.3480048828125,-0.0001913525047712028,0.00034645642153918743,0.0007823631167411804
1773790760522969000,8.367968994140625,0.0009533485863357782,-0.00042042811401188374,0.0016829362139105797
1773790760542933000,8.38793310546875,0.000975255505181849,0.00024172663688659668,0.0012016063556075096
1773790760562896100,8.407896240234376,-0.0003169229021295905,0.000476527726277709,-0.0003299484960734844
1773790760582860000,8.427860107421875,0.00022040572366677225,-0.0005273581482470036,-0.0005524936132133007
1773790760602823000,8.447822998046876,-0.0002535841194912791,-0.0005592033267021179,-0.00006587011739611626
1773790760622787000,8.467787109375,-0.0006135618314146996,-0.0005317814648151398,-0.0003550499677658081
1773790760642750000,8.48775,0.00015333504416048527,0.0015233661979436874,0.00022971536964178085
1773790760662714000,8.507714111328125,0.0005237116129137576,0.0007647727616131306,0.00025220075622200966
1773790760682676700,8.5276767578125,-0.0010754925897344947,0.00081229442730546,-0.00007551349699497223
1773790760702641000,8.547640869140626,-0.0006286486750468612,-0.0008590419311076403,0.00046990858390927315
1773790760722603800,8.567603759765625,-0.0000778868852648884,-0.0003265896812081337,-0.00008384091779589653
1773790760742568000,8.58756787109375,0.00011509639443829656,-0.0002973959781229496,-0.0006114961579442024
1773790760762530800,8.60753076171875,0.0007334096007980406,-0.0009602310601621866,-0.000422018114477396
1773790760782495000,8.627494873046874,-0.0007364675402641296,0.00014870264567434788,-0.0008019730448722839
1773790760802457900,8.647457763671875,-0.0016485938103869557,0.000456550857052207,-0.00032819248735904694
1773790760822422000,8.667422119140625,0.0007175640785135329,-0.00015753833577036858,0.00011724885553121567
1773790760842385000,8.687385009765626,0.00007897434988990426,0.0011208291398361325,0.00038035493344068527
1773790760862348800,8.707348876953125,0.000037296180380508304,-0.0013569258153438568,-0.0013816719874739647
1773790760882312000,8.72731201171875,-0.0004197695234324783,0.00003710598684847355,-0.00032883184030652046
1773790760902276900,8.74727685546875,-0.00007134236511774361,-0.00019834190607070923,0.00048354314640164375
1773790760922239700,8.76723974609375,-0.0003248379216529429,0.00037382100708782673,-0.00013863295316696167
1773790760942203600,8.78720361328125,-0.0026603625155985355,0.00029773591086268425,0.0012672408483922482
1773790760962166800,8.807166748046875,0.000021976622520014644,0.0003844588063657284,0.00031654350459575653
1773790760982130700,8.827130615234376,-0.0010866639204323292,0.0015224919188767672,0.0010321862064301968
1773790761002093800,8.84709375,-0.001085981959477067,-0.0009841318242251873,0.0010386444628238678
1773790761022057700,8.8670576171875,-0.00022205102141015232,-0.000045296503230929375,-0.0007052719593048096
1773790761042020900,8.887020751953125,-0.00004153102054260671,-0.0006776079535484314,0.0004133768379688263
1773790761061984800,8.90698486328125,-0.00007118732901290059,-0.0001420164480805397,0.0013013039715588093
1773790761081948000,8.926947998046876,-0.0013752707745879889,-0.0009354637004435062,0.000044764019548892975
1773790761101911800,8.946911865234375,-0.0003404805902391672,0.000874984310939908,0.0014411159791052341
1773790761121874700,8.966874755859376,0.00037311261985450983,0.0005334620364010334,0.0004638894461095333
1773790761141837800,8.986837890625,0.0005840446683578193,-0.00003919331356883049,-0.00032599130645394325
1773790761161801700,9.0068017578125,0.0020886235870420933,-0.00007722387090325356,-0.002016342245042324
1773790761181764900,9.026764892578125,0.0004926113178953528,-0.0010352269746363163,-0.0004311874508857727
1773790761201728800,9.046728759765625,0.00012899527791887522,-0.0008531969506293535,-0.000005228444933891296
1773790761221692000,9.06669189453125,0.00015289071598090231,0.0002394572366029024,0.0012786169536411762
1773790761241655800,9.08665576171875,0.0008587890770286322,0.0015268251299858093,0.00027859583497047424
1773790761261619000,9.106618896484376,-0.000016342964954674244,0.00034809764474630356,-0.00045315083116292953
1773790761281582800,9.126582763671875,0.0017559954430907965,0.000789891928434372,-0.00017026066780090332
1773790761301546000,9.1465458984375,-0.0003099758177995682,0.0006414465606212616,-0.0005399724468588829
1773790761321510000,9.166510009765625,-0.0002694011200219393,0.0005622901953756809,0.0009659677743911743
1773790761341472500,9.186472412109374,-0.00142362539190799,0.00005482020787894726,-0.0012353984639048576
1773790761361437000,9.20643701171875,-0.00023384700762107968,0.00007569510489702225,-0.0003649517893791199
1773790761381399600,9.226399658203125,0.0012967692455276847,-0.00003742752596735954,0.0005531320348381996
1773790761401364000,9.246364013671876,0.00037011413951404393,-0.00022895308211445808,-0.00021779770031571388
1773790761421326600,9.26632666015625,0.0008546975441277027,-0.0006878578569740057,0.0015414077788591385
1773790761441290800,9.286290771484374,-0.0006695312913507223,-0.00007990305311977863,-0.0011821002699434757
1773790761461253600,9.306253662109375,0.0011692116968333721,-0.00005987705662846565,0.001264338381588459
1773790761481217800,9.3262177734375,-0.00008008506847545505,0.0002819639630615711,0.001447408925741911
1773790761501180700,9.3461806640625,0.0013258042745292187,-0.000417954521253705,-0.00033137761056423187
1773790761521144600,9.36614453125,0.0001240205019712448,-0.001375311054289341,0.0004438119940459728
1773790761541107700,9.386107666015626,0.0019746427424252033,0.0019054068252444267,0.000017216429114341736
1773790761561071600,9.406071533203125,0.00025632447795942426,0.00023626373149454594,0.0007495456375181675
1773790761581034800,9.42603466796875,-0.00034831889206543565,0.0002705063670873642,0.0004687984474003315
1773790761600998700,9.44599853515625,0.0003044736513402313,0.000640298705548048,-0.0002858149819076061
1773790761620961800,9.4659619140625,0.000319202255923301,-0.0011143074370920658,0.00006154365837574005
1773790761640925700,9.48592578125,0.0002883122069761157,-0.0001073172315955162,-0.00006959913298487663
1773790761660888600,9.505888671875,-0.00019297620747238398,0.000607714056968689,-0.00040658703073859215
1773790761680852700,9.525852783203124,0.0007927413680590689,0.0007244730368256569,-0.00006467802450060844
1773790761700815600,9.545815673828125,-0.0008155691903084517,-0.0012053567916154861,0.001115480437874794
1773790761720779800,9.56577978515625,0.0003924843040294945,0.00006399326957762241,0.00036140531301498413
1773790761740742700,9.58574267578125,0.000773946987465024,-0.0003828476183116436,-0.0014711180701851845
1773790761760706600,9.60570654296875,0.0003468474606052041,-0.00036145723424851894,-0.000355754978954792
1773790761780669700,9.625669677734376,0.0005949901533313096,-0.001178442733362317,0.0008157375268638134
1773790761800633600,9.645633544921875,0.0006160566117614508,-0.0017475751228630543,0.00039509451016783714
1773790761820596700,9.6655966796875,-0.0011903983540832996,0.0007010402623564005,0.0004954719915986061
1773790761840560600,9.685560546875,-0.000018841441487893462,0.0007935557514429092,-0.0004891688004136086
1773790761860523800,9.705523681640624,0.00013624303392134607,0.0003876863047480583,-0.000690738670527935
1773790761880487700,9.72548779296875,-0.00048582139424979687,-0.0008907306473702192,-0.0016065542586147785
1773790761900450800,9.745450927734375,-0.0007373646949417889,0.0006922050379216671,0.001651529222726822
1773790761920414700,9.765414794921876,0.00039021551492623985,0.0006289181765168905,-0.000005098991096019745
1773790761940377600,9.785377685546875,0.0007159700617194176,-0.0008324675727635622,-0.0007445905357599258
1773790761960341800,9.805341796875,-0.0011111556086689234,-0.0005703861825168133,0.0004845433868467808
1773790761980304600,9.8253046875,0.0005389582365751266,-0.00014727888628840446,0.00030429521575570107
1773790762000267800,9.845267822265624,-0.001788496971130371,-0.000027647241950035095,0.000044397078454494476
1773790762020231700,9.865231689453125,-0.0007022871868684888,0.0007109418511390686,-0.0007328186184167862
1773790762040194800,9.88519482421875,-0.00019599925144575536,-0.001184181310236454,0.0005445471033453941
1773790762060158700,9.90515869140625,0.0006741188699379563,-0.0006767346058040857,0.0007262234576046467
1773790762080121900,9.925121826171875,0.0008303031791001558,-0.001986265182495117,0.0005895411595702171
1773790762100085800,9.945085693359376,0.0011252451222389936,-0.00002109329216182232,0.000590144656598568
1773790762120048600,9.965048583984375,0.000056454213336110115,0.00024077296257019043,-0.000465302262455225
1773790762140012800,9.9850126953125,-0.00003230239963158965,0.0005551096983253956,0.0010920921340584755
1773790762159975700,10.0049755859375,-0.000563597131986171,-0.0003816382959485054,0.0006349286995828152
1773790762179939800,10.02493994140625,0.0009961072355508804,0.0010002022609114647,0.0009090532548725605
1773790762199902700,10.04490283203125,0.000743236334528774,-0.0008165664039552212,0.0014439835213124752
1773790762219867000,10.064866943359375,0.00048370438162237406,-0.001239152392372489,-0.00015362398698925972
1773790762239829800,10.084829833984376,0.0011827275156974792,0.00011971266940236092,0.0004262402653694153
1773790762259793700,10.104793701171875,-0.0011075892252847552,0.0004234206862747669,0.00020002201199531555
1773790762279756800,10.1247568359375,0.00012819987023249269,0.0001584694255143404,0.0007386030629277229
1773790762299720700,10.144720703125,0.0014728957321494818,0.00028218398801982403,0.0005425219424068928
1773790762319683800,10.164683837890625,-0.0002135063405148685,-0.0012213189620524645,-0.0009440402500331402
1773790762339647700,10.184647705078126,0.00020114160724915564,0.0019076860044151545,-0.00020004762336611748
1773790762359611000,10.20461083984375,-0.0008556221146136522,0.00012741819955408573,-0.0005172989331185818
1773790762379574800,10.22457470703125,0.00049547606613487,0.00010931538417935371,0.0009783781133592129
1773790762399538000,10.244537841796875,0.00007241644198074937,0.0014861266827210784,-0.0002726302482187748
1773790762419500800,10.264500732421874,-0.00040847453055903316,-0.0008079723920673132,0.0005044112913310528
1773790762439464700,10.284464599609375,-0.001082402653992176,-0.0005402828101068735,-0.0005296138115227222
1773790762459427800,10.304427734375,-0.00012667197734117508,-0.0010654437355697155,-0.000815046951174736
1773790762479391700,10.324391845703126,0.000024944660253822803,-0.000313811469823122,0.0008832542225718498
1773790762499355000,10.34435498046875,-0.0002615735284052789,-0.00007701502181589603,0.0007132687605917454
1773790762519318800,10.36431884765625,0.000045396838686428964,-0.000008007977157831192,-0.0008507994934916496
1773790762539282000,10.384281982421875,0.0016911567654460669,-0.000042329076677560806,-0.0003854464739561081
1773790762559245800,10.404245849609374,-0.00006322294939309359,0.0007258024998009205,0.0018826834857463837
1773790762579209000,10.424208984375,0.0014482976403087378,-0.00006862310692667961,-0.00034851720556616783
1773790762599172900,10.4441728515625,0.0006680854130536318,0.00021341536194086075,0.0007830113172531128
1773790762619135700,10.4641357421875,-0.0012599271722137928,0.0008879425004124641,-0.0010975156910717487
1773790762639100000,10.484099853515625,-0.0002625263878144324,-0.00037054228596389294,0.00024019880220294
1773790762659062800,10.504062744140626,0.0002115857059834525,-0.000175348948687315,0.0015494930557906628
1773790762679027000,10.52402685546875,0.001960083842277527,0.0005383435636758804,-0.0000978526659309864
1773790762698989800,10.54398974609375,-0.00021876985556446016,-0.0006738693919032812,-0.0001418590545654297
1773790762718953700,10.56395361328125,-0.000049697409849613905,-0.0017286352813243866,0.00031269993633031845
1773790762738916900,10.583916748046875,-0.0009105572244152427,0.00029427860863506794,0.0008384278044104576
1773790762758880000,10.6038798828125,0.0007505665998905897,0.0000680568628013134,-0.0006362386047840118
1773790762778844000,10.623843994140625,0.0004595202626660466,-0.0006591286510229111,-0.00027187634259462357
1773790762798806800,10.643806884765626,-0.0008648050716146827,-0.001280729891732335,0.00023396406322717667
1773790762818771000,10.66377099609375,-0.00042614268022589386,0.0010279743000864983,-0.001247350126504898
1773790762838733600,10.683733642578124,-0.0009651721338741481,-0.00031851883977651596,-0.0003430470824241638
1773790762858698000,10.703697998046875,-0.00031063746428117156,0.0002822801470756531,0.00012754462659358978
1773790762878660600,10.72366064453125,0.0016069766134023666,0.00021221395581960678,0.0005917870439589024
1773790762898625000,10.743625,-0.0008873993065208197,-0.0005919146351516247,0.00017470773309469223
1773790762918587000,10.7635869140625,0.000994088826701045,-0.0004328247159719467,0.0002991575747728348
1773790762938551000,10.783551025390626,0.00011172244558110833,0.00009700027294456959,-0.0006534834392368793
1773790762958514000,10.803513916015625,0.0004983784165233374,-0.00007247109897434711,-0.0001218775287270546
1773790762978478000,10.82347802734375,0.0009443458402529359,0.0013835551217198372,0.0017030243761837482
1773790762998441000,10.84344091796875,0.00023127981694415212,-0.00008752266876399517,0.00005472637712955475
1773790763018403800,10.86340380859375,0.001363794319331646,-0.0007590977475047112,-0.0011763563379645348
1773790763038368000,10.883367919921875,0.0009342434932477772,-0.0007875524461269379,-0.00016197003424167633
1773790763058331000,10.903330810546874,-0.001297689857892692,0.00044093397445976734,0.0009310129098594189
1773790763078294800,10.923294677734376,0.001305288402363658,0.000754419481381774,-0.0007487586699426174
1773790763098257700,10.943257568359375,0.0006730760214850307,0.0006119932513684034,0.000005716923624277115
1773790763118221800,10.963221923828126,-0.0011501971166580915,-0.0009095342829823494,-0.0006040614098310471
1773790763138184700,10.983184814453125,0.0001816258445614949,0.0006405916064977646,-0.00046080490574240685
1773790763158148900,11.00314892578125,-0.00016786938067525625,0.0000251114834100008,0.00105971097946167
1773790763178111700,11.02311181640625,0.00005044645513407886,0.0006753515917807817,-0.00009945128113031387
1773790763198075600,11.04307568359375,0.0017030100570991635,-0.0008940610568970442,-0.001088476274162531
1773790763218038800,11.063038818359376,0.00025672276387922466,-0.00011477014049887657,-0.0002596895210444927
1773790763238002700,11.083002685546875,-0.00013965240214020014,0.0006022860761731863,-0.0003126231022179127
1773790763257965800,11.1029658203125,0.00024394592037424445,0.00004730024375021458,0.00019469484686851501
1773790763277928700,11.1229287109375,0.0014839398209005594,-0.0006101473700255156,-0.0005036555230617523
1773790763297892900,11.142892822265624,-0.00002325465902686119,0.0004312344826757908,0.00003099068999290466
1773790763317855700,11.162855712890625,-0.00024166758521459997,0.000759992515668273,0.0006037792190909386
1773790763337820000,11.18281982421875,0.00028533791191875935,0.0009477597195655107,-0.00006682705134153366
1773790763357782800,11.20278271484375,-0.0007187226437963545,-0.00033570011146366596,0.000996914692223072
1773790763377747000,11.222746826171875,0.00007001866470091045,-0.0011341145727783442,-0.00024946779012680054
1773790763397709800,11.242709716796876,-0.0014162964653223753,0.00004419521428644657,-0.0008844309486448765
1773790763417673700,11.262673828125,-0.0005244750063866377,-0.00017523160204291344,-0.0005108215846121311
1773790763437636900,11.282636962890624,0.0007477713515982032,0.0017349630361422896,0.00004318775609135628
1773790763457600800,11.302600830078125,0.0002557592233642936,-0.0012300442904233932,0.0006398288533091545
1773790763477564000,11.32256396484375,0.0010009787511080503,0.00011797668412327766,-0.0009279763326048851
1773790763497526800,11.34252685546875,-0.000944119761697948,-0.001315329223871231,0.0002721077762544155
1773790763517491000,11.362490966796875,0.0003193369193468243,0.0013458846369758248,-0.00033501116558909416
1773790763537453800,11.382453857421876,-0.0004528987337835133,0.00045662885531783104,0.001934826374053955
1773790763557418000,11.40241796875,0.00016522753867320716,0.00015118159353733063,0.00031649693846702576
1773790763577380900,11.422380859375,-0.0006491267122328281,0.00032049696892499924,0.000056854914873838425
1773790763597344800,11.4423447265625,0.00041753402911126614,-0.0000707586295902729,-0.0019055153243243694
1773790763617308000,11.462307861328124,0.00016365981718990952,0.0006643314845860004,-0.0004987861029803753
1773790763637271800,11.482271728515625,-0.00016134470934048295,0.0008531364146620035,0.0004665846936404705
1773790763657235000,11.50223486328125,0.0009515570709481835,0.0005189469084143639,0.0011544846929609776
1773790763677197800,11.52219775390625,-0.0007334166439250112,0.0004155179485678673,0.0003375597298145294
1773790763697162000,11.542161865234375,-0.00027213688008487225,-0.0003802655264735222,0.000868283212184906
1773790763717124900,11.562124755859376,-0.0001712895173113793,-0.00011525326408445835,0.0000985083170235157
1773790763737089000,11.582089111328125,0.0004628033493645489,-0.00014750799164175987,-0.0002373768948018551
1773790763757052000,11.602052001953124,-0.0003059732262045145,0.0012248011771589518,0.00010807253420352936
1773790763777015800,11.622015869140625,0.00040859627188183367,-0.0012298393994569778,-0.001515454612672329
1773790763796979000,11.64197900390625,0.0002967377076856792,-0.00008954270742833614,0.000018116086721420288
1773790763816942800,11.66194287109375,0.0017243199981749058,0.0013050488196313381,0.000584261491894722
1773790763836906000,11.681906005859375,-0.0001273228117497638,0.0002619714941829443,-0.0005561532452702522
1773790763856870000,11.701869873046874,-0.0006000574794597924,-0.0003404226154088974,0.00007172627374529839
1773790763876833000,11.7218330078125,0.0002853296173270792,0.00038155284710228443,-0.0007608090527355671
1773790763896795600,11.741795654296874,0.00014572477084584534,-0.0007013450376689434,-0.0001965174451470375
1773790763916760600,11.761760498046876,0.00006427564949262887,0.00039580464363098145,0.0001411731354892254
1773790763936723700,11.7817236328125,0.00045791806769557297,-0.00014714407734572887,-0.00014464883133769035
1773790763956687600,11.8016875,-0.0011244233464822173,0.00017231283709406853,-0.00016150157898664474
1773790763976650800,11.821650634765625,0.0005207321373745799,0.0006496647838503122,-0.0005365749821066856
1773790763996614700,11.84161474609375,-0.00024581217439845204,-0.00035509816370904446,-0.00046422146260738373
1773790764016577800,11.861577880859375,0.0002769705024547875,0.0008904114365577698,-0.000031750649213790894
1773790764036541700,11.881541748046875,0.00022705267474520952,0.00014056777581572533,-0.0004611639305949211
1773790764056504800,11.9015048828125,0.0004513812600634992,0.0000397984404116869,0.0015072040259838104
1773790764076467500,11.921467529296875,-0.0022601711098104715,0.0011294784490019083,0.0002253083512187004
1773790764096431600,11.941431640625,0.0008113208459690213,0.0020660406444221735,-0.0001881178468465805
1773790764116394500,11.96139453125,0.00039233919233083725,0.0009424535091966391,0.00018646707758307457
1773790764136358400,11.9813583984375,0.0005933567881584167,0.00046391040086746216,-0.0000863778404891491
1773790764156321500,12.001321533203125,0.000655890442430973,0.00031336513347923756,-0.0006092609837651253
1773790764176285400,12.021285400390624,-0.001043517841026187,0.0009997724555432796,-0.0004982315003871918
1773790764196248600,12.04124853515625,0.0002369783614994958,-0.0008297504391521215,0.00020979717373847961
1773790764216211500,12.06121142578125,-0.0014979970874264836,-0.00020068185403943062,-0.0011101560667157173
1773790764236175600,12.081175537109376,-0.0002595138503238559,0.00016463431529700756,-0.0011353162117302418
1773790764256138500,12.101138427734375,0.0005610054940916598,0.001730200368911028,0.00024981237947940826
1773790764276102700,12.1211025390625,-0.0017336448654532433,-0.0001706348266452551,-0.00017283344641327858
1773790764296065500,12.1410654296875,-0.0003746038710232824,-0.00021510804072022438,-0.001546808984130621
1773790764316029400,12.161029541015624,-0.00003300953540019691,-0.0001466493122279644,-0.00014404859393835068
1773790764335992600,12.18099267578125,0.0004351547686383128,0.0016829267842695117,0.00013458030298352242
1773790764355956500,12.20095654296875,0.00012925645569339395,0.0006465567275881767,0.0003648274578154087
1773790764375919600,12.220919677734376,0.0008803668897598982,-0.000057809753343462944,0.00018731271848082542
1773790764395882500,12.240882568359375,-0.00004622404230758548,0.0004365697968751192,-0.00034023774787783623
1773790764415846700,12.2608466796875,-0.0011236278805881739,-0.0002876799553632736,-0.0009261183440685272
1773790764435809500,12.2808095703125,0.0011263645719736814,0.0017078873934224248,0.0004562824033200741
1773790764455773700,12.300773681640624,0.00013806819333694875,0.0002459944225847721,0.00010745413601398468
1773790764475736600,12.320736572265625,0.0006105218199081719,0.0010125408880412579,0.000562895555049181
1773790764495700500,12.340700439453125,0.0012923360336571932,0.00029674218967556953,-0.000394363421946764
1773790764515663600,12.36066357421875,0.0001728458737488836,0.000504837604239583,0.0002091946080327034
1773790764535626800,12.380626708984375,-0.0002358041238039732,0.0009198426268994808,0.001044434029608965
1773790764555590700,12.400590576171876,0.00020499064703471959,-0.00018403492867946625,0.00039117177948355675
1773790764575553500,12.420553466796875,-0.0006442007143050432,0.00015184329822659492,0.00074369041249156
1773790764595517700,12.440517578125,0.0017762691713869572,0.000731488224118948,-0.0005705440416932106
1773790764615480600,12.46048046875,0.0007013886934146285,-0.00008163764141499996,0.0004465077072381973
1773790764635444700,12.48044482421875,-0.0001812890695873648,0.0012083882465958595,0.00012654345482587814
1773790764655407600,12.50040771484375,0.00018515330157242715,-0.0006992961280047894,0.0009130463004112244
1773790764675370800,12.520370849609375,-0.000010305637260898948,0.0009891241788864136,-0.0007459195330739021
1773790764695334700,12.540334716796876,0.0009681263472884893,-0.0007150135934352875,0.0003030654042959213
1773790764715297800,12.5602978515625,0.0002869853051379323,0.0006249872967600822,0.0004963730461895466
1773790764735261700,12.58026171875,-0.0004214024229440838,0.00024663261137902737,-0.00045462464913725853
1773790764755224800,12.600224853515625,-0.00025036849547177553,0.0005542142316699028,-0.0004349350929260254
1773790764775188700,12.620188720703124,-0.00035806657979264855,0.00003862124867737293,0.0005221758037805557
1773790764795151600,12.640151611328125,-0.00020373205188661814,0.0006124167703092098,-0.0016639940440654755
1773790764815115800,12.66011572265625,0.0010948210256174207,0.00139895873144269,-0.00024943193420767784
1773790764835078700,12.68007861328125,0.00015977694420143962,-0.00031820638105273247,-0.00006008148193359375
1773790764855041500,12.70004150390625,0.0007657813839614391,-0.0003526101354509592,-0.0009318958036601543
1773790764875005700,12.720005615234374,-0.0003913849941454828,-0.0009508172515779734,-0.0007330179214477539
1773790764894968600,12.739968505859375,-0.0006679726648144424,-0.0007113919127732515,0.000042654573917388916
1773790764914932200,12.75993212890625,0.0006197234033606946,0.0002418451476842165,0.001223988365381956
1773790764934895400,12.779895263671875,-0.0008905697613954544,0.0005590345244854689,0.0010698866099119186
1773790764954859300,12.799859375,-0.000047534325858578086,-0.000045705586671829224,0.00001507764682173729
1773790764974822400,12.819822509765626,-0.0013859366299584508,-0.0014301124028861523,-0.001423932146281004
1773790764994785300,12.839785400390625,0.0007876813760958612,-0.0016115647740662098,-0.00005019921809434891
1773790765014749200,12.859749267578126,-0.0007773973629809916,0.000009973067790269852,0.00036235805600881577
1773790765034712300,12.87971240234375,-0.0009717061184346676,-0.000698181102052331,-0.000305861234664917
1773790765054676200,12.89967626953125,-0.00009562735795043409,0.0012780546676367521,-0.00024515343829989433
1773790765074639400,12.919639404296875,-0.0006804818985983729,0.00047373794950544834,0.00077108945697546
1773790765094602200,12.939602294921874,0.00031148415291681886,-0.0006134170107543468,0.0002204645425081253
1773790765114566400,12.95956640625,0.00016054188017733395,-0.00009760446846485138,0.0014801369979977608
1773790765134529300,12.979529296875,-0.00027735813637264073,-0.000286745373159647,-0.0008190395310521126
1773790765154493400,12.999493408203126,0.0001652061619097367,-0.0006877738051116467,-0.00012889038771390915
1773790765174456300,13.019456298828125,0.0014498918317258358,0.0005633148830384016,-0.001650569960474968
1773790765194420200,13.039420166015624,0.000414002628531307,-0.0004123139660805464,-0.0009030229412019253
1773790765214383000,13.059383056640625,-0.0002828216238413006,-0.000382712809368968,-0.000018269289284944534
1773790765234346200,13.07934619140625,0.0005146144540049136,-0.0003580334596335888,-0.0001491345465183258
1773790765254310100,13.09931005859375,0.00022945499222259969,0.00022677099332213402,0.0001885867677628994
1773790765274273300,13.119273193359374,0.0010821956675499678,-0.0008752227295190096,0.00034440169110894203
1773790765294237200,13.1392373046875,-0.00040995824383571744,-0.0012708664871752262,0.0006057759746909142
1773790765314200000,13.159199951171875,-0.0010627182200551033,-0.0010146389249712229,-0.0005147038027644157
1773790765334163200,13.1791630859375,0.00016365130431950092,0.0008607003837823868,-0.00039622606709599495
1773790765354127000,13.199127197265625,0.00018915811961051077,-0.000006218673661351204,0.0005539562553167343
1773790765374090200,13.21909033203125,-0.0015021796571090817,-0.0006538396701216698,-0.000758664682507515
1773790765394054100,13.23905419921875,0.0010258962865918875,-0.0002728183753788471,0.00009559793397784233
1773790765414017300,13.259017333984374,0.00032895294134505093,-0.0005972897633910179,0.0015972391702234745
1773790765433981200,13.278981201171876,-0.0003692313330247998,0.00020052772015333176,-0.00014365185052156448
1773790765453944300,13.2989443359375,0.0003341074916534126,0.0009639777708798647,-0.00012677209451794624
1773790765473907200,13.3189072265625,-0.0003015004622284323,-0.00043166964314877987,0.0007114480249583721
1773790765493871000,13.33887109375,0.0010488496627658606,0.0003135290462523699,-0.0006118603050708771
1773790765513834200,13.358834228515626,0.0005293192225508392,-0.0005274666473269463,-0.0003259987570345402
1773790765533798100,13.378798095703125,-0.0004899513442069292,-0.00012120464816689491,-0.0011841775849461555
1773790765553761300,13.39876123046875,-0.0003899050352629274,0.0005278433673083782,-0.0003206925466656685
1773790765573724200,13.41872412109375,-0.0011577879777178168,0.00008905050344765186,0.0006510349921882153
1773790765593688300,13.438688232421875,-0.000046479719458147883,-0.00007766112685203552,-0.00021040206775069237
1773790765613651200,13.458651123046875,0.00019026611698791385,-0.000511102844029665,-0.0010723159648478031
1773790765633615400,13.478615478515625,-0.001076593529433012,0.0014718137681484222,-0.0005512307398021221
1773790765653578200,13.498578125,0.000544964277651161,0.000614796532317996,0.00015821587294340134
1773790765673542100,13.518542236328125,-0.00025336400722153485,-0.00020997924730181694,0.0006131897680461407
1773790765693505300,13.53850537109375,-0.000042937928810715675,0.000771764200180769,0.0014573629014194012
1773790765713468400,13.558468505859375,0.00047498155618086457,-0.00010556727647781372,-0.0002767625264823437
1773790765733432300,13.578432373046875,-0.0002511695784050971,0.0005783212836831808,0.0006628064438700676
1773790765753395200,13.598395263671875,-0.0005626612110063434,-0.000071339076384902,-0.0005269153043627739
1773790765773359400,13.618359375,0.00024717237101867795,0.0008932212367653847,0.0007830788381397724
1773790765793322200,13.638322265625,0.00048748828703537583,0.000652143731713295,-0.0003626658581197262
1773790765813285400,13.658285400390625,0.00005425731069408357,0.0007606439758092165,0.0012349761091172695
1773790765833249300,13.678249267578124,0.0006189260166138411,0.00005770917050540447,0.0003449157811701298
1773790765853212400,13.69821240234375,0.00031919151660986245,0.0002524671144783497,0.00017916830256581306
1773790765873176300,13.71817626953125,-0.00031909163226373494,-0.0005636299028992653,0.0007406645454466343
1773790765893139500,13.738139404296875,-0.00005890129250474274,-0.0009271244052797556,-0.0003041713498532772
1773790765913102000,13.75810205078125,-0.0009703056421130896,0.0009109586244449019,-0.00009331339970231056
1773790765933066200,13.778066162109376,0.00017256586579605937,-0.0009206626564264297,-0.0011744331568479538
1773790765953029000,13.798029052734375,0.0006406899192370474,0.00008202577009797096,-0.00005736853927373886
1773790765972993000,13.817992919921876,-0.001062670722603798,0.00025538867339491844,0.0005192412063479424
1773790765992956200,13.8379560546875,-0.0011455538915470243,0.0009552895789965987,-0.0007895734161138535
1773790766012919300,13.857919189453124,0.00009959815361071378,0.0002050190232694149,0.0005218842998147011
1773790766032883200,13.87788330078125,0.0002656953874975443,-0.00046762218698859215,-0.0002746526151895523
1773790766052846000,13.89784619140625,-0.000039058097172528505,0.0001245494931936264,-0.00010685017332434654
1773790766072810200,13.917810302734376,0.0002709206601139158,-0.00041918735951185226,0.0002378947101533413
1773790766092773000,13.937773193359375,-0.0013585947453975677,0.001044117845594883,-0.00035398639738559723
1773790766112736300,13.957736328125,0.0015525312628597021,0.0006595228333026171,-0.00020270003005862236
1773790766132700200,13.9777001953125,0.00117706716991961,-0.0009443254675716162,0.00020464835688471794
1773790766152663300,13.997663330078124,-0.001042486634105444,-0.0003761434927582741,-0.0008921888656914234
1773790766172627200,14.017627197265625,-0.001061201561242342,0.0007688046898692846,-0.0009130435064435005
1773790766192590300,14.03759033203125,0.0003243327955715358,0.0011605019681155682,-0.0005825990810990334
1773790766212553200,14.05755322265625,0.000051503549912013113,-0.0004724313039332628,-0.0009556589648127556
1773790766232517000,14.07751708984375,0.0007858109311200678,0.0002582031302154064,-0.0007184664718806744
1773790766252480300,14.097480224609376,0.0007902927463874221,-0.0003869009669870138,-0.0004053697921335697
1773790766272444200,14.117444091796875,-0.00019893987337127328,-0.0006047538481652737,0.000844491645693779
1773790766292407300,14.1374072265625,0.00006600825872737914,-0.00034171040169894695,0.00014109443873167038
1773790766312371200,14.15737109375,0.0005137589760124683,0.00005811708979308605,-0.00128563167527318
1773790766332334300,14.177334228515624,-0.00032289675436913967,-0.0018672575242817402,-0.0008433950133621693
1773790766352297200,14.197297119140625,-0.0003233819152228534,0.00009264354594051838,-0.0015625404193997383
1773790766372261400,14.217261474609375,-0.0007773955003358424,-0.00002506747841835022,-0.0018188846297562122
1773790766392224300,14.237224365234376,-0.0008517369860783219,0.00007187086157500744,-0.0001960545778274536
1773790766412187400,14.2571875,-0.0018101753666996956,-0.00030373246408998966,-0.0004358692094683647
1773790766432151300,14.2771513671875,-0.001216486911289394,-0.0009931095410138369,-0.0006666234694421291
1773790766452114400,14.297114501953125,0.0004573171027004719,-0.00001401873305439949,-0.0008580805733799934
1773790766472078300,14.317078369140624,-0.0005051426705904305,-0.0004847289528697729,0.0013110991567373276
1773790766492041500,14.33704150390625,-0.00005393031460698694,-0.001152111915871501,-0.00009681377559900284
1773790766512004000,14.357004150390624,-0.00020277620933484286,-0.0005507008172571659,-0.001801846083253622
1773790766531968300,14.37696826171875,0.0008686022483743727,-0.00011811195872724056,-0.000062545295804739
1773790766551931100,14.39693115234375,-0.0007098231581039727,-0.0000033085234463214874,-0.0011118375696241856
1773790766571895300,14.416895263671876,0.0003104025381617248,0.0009931388776749372,0.0002791048027575016
1773790766591858200,14.436858154296875,-0.0006681602098979056,0.0003875123802572489,0.0009099184535443783
1773790766611821000,14.456821044921876,-0.0012842112919315696,0.0010998076759278774,-0.0003442377783358097
1773790766631785200,14.47678515625,-0.00036809255834668875,0.0006764528807252645,-0.00002111075446009636
1773790766651748000,14.496748046875,-0.0012794302310794592,0.0009851150680333376,-0.00021424051374197006
1773790766671712300,14.516712158203125,0.0009910889202728868,0.00017323181964457035,0.0003962418995797634
1773790766691675100,14.536675048828124,-0.0007580521632917225,-0.00011757551692426205,0.000014682766050100327
1773790766711638300,14.55663818359375,0.001081950729712844,-0.0001985440030694008,-0.0016544372774660587
1773790766731602200,14.576602294921875,-0.0012399137485772371,-0.0005575371906161308,0.0007976638153195381
1773790766751565300,14.5965654296875,-0.0005332090076990426,-0.0006437338888645172,-0.0011252877302467823
1773790766771529200,14.616529296875,0.0007481224020011723,0.000699121505022049,0.0002041347324848175
1773790766791492000,14.6364921875,0.0005622317548841238,-0.0006788899190723896,0.00042362604290246964
1773790766811455200,14.656455322265625,-0.0001653653453104198,0.001061056973412633,-0.0009286063723266125
1773790766831419100,14.676419189453124,-0.0013051405549049377,-0.0010483996011316776,-0.001439437735825777
1773790766851382300,14.69638232421875,0.0012855635723099113,-0.001542543526738882,0.0005422970280051231
1773790766871346200,14.71634619140625,-0.0027728723362088203,-0.0005411503370851278,-0.00010364502668380737
1773790766891309300,14.736309326171876,0.00016389586380682886,-0.0008410301525145769,0.00014896271750330925
1773790766911272000,14.75627197265625,-0.00047122419346123934,0.00043144403025507927,-0.00016220193356275558
1773790766931235800,14.77623583984375,-0.0013619723031297326,0.00040771299973130226,0.00008013192564249039
1773790766951198700,14.79619873046875,0.0005250803660601377,-0.00047004432417452335,0.0007461453787982464
1773790766971163000,14.816162841796874,-0.00002448723535053432,-0.00031103636138141155,0.0011636186391115189
1773790766991125800,14.836125732421875,-0.00037201843224465847,-0.0015511554665863514,-0.0009189737029373646
1773790767011089000,14.8560888671875,-0.0005025544669479132,0.000514426501467824,0.00041196122765541077
1773790767031052800,14.876052734375,0.00138082483317703,0.00018618186004459858,-0.00028738752007484436
1773790767051016000,14.896015869140625,0.0024215606972575188,-0.0010076712351292372,0.0011871685273945332
1773790767070979800,14.915979736328126,-0.0004075129400007427,0.001052253064699471,0.0007190811447799206
1773790767090943000,14.93594287109375,-0.0006426305044442415,0.00077095627784729,0.00049183564260602
1773790767110905900,14.95590576171875,0.0011205538176000118,0.0006389475893229246,-0.0003123600035905838
1773790767130869800,14.975869873046875,0.0001227931643370539,0.0006652481388300657,-0.00045498181134462357
1773790767150833000,14.9958330078125,0.00006337708327919245,0.0005926191806793213,0.0005970112979412079
1773790767170796800,15.015796875,0.0006596859893761575,-0.00048592756502330303,0.001344496849924326
1773790767190760000,15.035760009765625,0.0010481448844075203,-0.0013667470775544643,-0.00025761593133211136
1773790767210722600,15.05572265625,0.0003308448940515518,-0.0007131891325116158,0.0001081656664609909
1773790767230687000,15.07568701171875,0.0005814126925542951,0.0006406793836504221,-0.00012007215991616249
1773790767250649600,15.095649658203126,0.000050831440603360534,0.0017133920919150114,0.0014197095297276974
1773790767270613800,15.11561376953125,0.0005023121484555304,-0.0006799353286623955,-0.000004673376679420471
1773790767290576600,15.13557666015625,-0.00040915439603850245,-0.000004397239536046982,0.0006855614483356476
1773790767310539800,15.155539794921875,-0.0010791143868118525,-0.0005006524734199047,0.0008178423158824444
1773790767330503700,15.175503662109374,0.00022976717445999384,-0.000542965717613697,-0.00007067853584885597
1773790767350466800,15.195466796875,0.001312838401645422,0.000330575043335557,0.000650536734610796
1773790767370430700,15.2154306640625,0.0014616965781897306,-0.0003957741428166628,0.00006920192390680313
1773790767390393900,15.235393798828126,-0.0003353588399477303,-0.0002632336691021919,-0.00022402964532375336
1773790767410356700,15.255356689453125,0.00020459039660636336,-0.0012991672847419977,0.0002345684915781021
1773790767430320600,15.275320556640626,0.00028919000760652125,-0.00039364444091916084,0.000428264494985342
1773790767450283800,15.29528369140625,0.00041137763764709234,0.0007198473904281855,-0.0004189442843198776
1773790767470247700,15.31524755859375,-0.0010145660489797592,-0.000972280977293849,-0.00007975427433848381
1773790767490210800,15.3352109375,-0.0019136276096105576,-0.00039551546797156334,0.0010328851640224457
1773790767510173700,15.355173583984374,-0.0002874591154977679,-0.0004969274159520864,-0.0007224134169518948
1773790767530137900,15.375137939453126,-0.0016577925998717546,0.0005650927778333426,-0.0007089776918292046
1773790767550100700,15.395100830078125,0.001125252339988947,-0.0003792857751250267,0.000741113442927599
1773790767570064000,15.41506396484375,0.00012425638851709664,0.0007619471289217472,-0.0009039980359375477
1773790767590027800,15.43502783203125,-0.0005764879751950502,-0.00044103595428168774,0.0005286354571580887
1773790767609991000,15.454990966796874,0.0000019533035811036825,0.0007768599316477776,-0.00037208665162324905
1773790767629954800,15.474954833984375,0.0012717917561531067,0.00035751680843532085,0.00010498473420739174
1773790767649918000,15.49491796875,0.00021106870553921908,-0.00134890410117805,0.00040463125333189964
1773790767669880800,15.514880859375,-0.00006012042285874486,-0.0012222304940223694,-0.000283761415630579
1773790767689844700,15.5348447265625,0.00018798565724864602,0.0002401422243565321,0.0009989161044359207
1773790767709807900,15.554807861328126,-0.0015767232980579138,-0.0002757105976343155,-0.0006510699167847633
1773790767729771800,15.574771728515625,-0.0017996188253164291,-0.0002981137949973345,0.0006292220205068588
1773790767749735000,15.59473486328125,-0.0008328650146722794,0.001044307486154139,-0.000016019213944673538
1773790767769697800,15.61469775390625,0.00018261764489579946,-0.00007356074638664722,-0.0011821091175079346
1773790767789662000,15.634661865234374,-0.0012663759989663959,0.00042730988934636116,-0.00085478276014328
1773790767809624600,15.65462451171875,0.0013761611189693213,-0.00019622920081019402,-0.0007464513182640076
1773790767829589000,15.674589111328125,-0.0013243507128208876,0.0005301230121403933,-0.00013384968042373657
1773790767849551600,15.694551513671875,-0.0006592330755665898,-0.0000391337089240551,0.0006856922991573811
1773790767869514800,15.7145146484375,-0.0000456125708296895,0.0012247797567397356,-0.0009363493882119656
1773790767889478700,15.734478759765626,-0.0010300723370164633,-0.00021625985391438007,-0.0007448084652423859
1773790767909442000,15.754442138671875,-0.0004470252897590399,0.000027847476303577423,0.0007350537925958633
1773790767929406000,15.774406005859374,-0.0009426253382116556,0.001889896346256137,-0.00023187370970845222
1773790767949368800,15.794368896484375,-0.000004893576260656118,0.0010878543835133314,0.0005938890390098095
1773790767969332000,15.81433203125,0.0004282265726942569,-0.0015250048600137234,0.0003780750557780266
1773790767989295900,15.8342958984375,0.00004352704854682088,-0.000929604284465313,-0.00012372341006994247
1773790768009259000,15.854259033203125,-0.0005017984658479691,-0.00018992670811712742,-0.0003190217539668083
1773790768029222000,15.874221923828125,-0.0004152639885433018,-0.00001644529402256012,0.0007587214931845665
1773790768049186000,15.89418603515625,0.00010127233690582216,0.0012929716613143682,0.00035704346373677254
1773790768069149000,15.91414892578125,0.002081555314362049,0.0012479904107749462,-0.0005267923697829247
1773790768089113000,15.934113037109375,-0.000006835965905338526,-0.0006210836581885815,0.0004011164419353008
1773790768109076000,15.954075927734374,-0.0005612274399027228,0.0003386756870895624,0.0013647559098899364
1773790768129039000,15.9740390625,0.0012501038145273924,0.0001168025191873312,0.0007810918614268303
1773790768149003000,15.9940029296875,0.001644406234845519,0.000767839839681983,0.0008410653099417686
1773790768168966100,16.013966064453125,0.0005202657775953412,-0.0004646354354918003,-0.00003886362537741661
1773790768188930000,16.033929931640625,0.00023184341262094676,0.000044549815356731415,0.00031141238287091255
1773790768208893200,16.05389306640625,0.00008090940536931157,-0.0006866853218525648,0.00004001101478934288
1773790768228856000,16.07385595703125,0.000573439639993012,0.00037664989940822124,0.00001458730548620224
1773790768248820000,16.093820068359374,0.0013503988739103079,-0.00017000013031065464,-0.00047274259850382805
1773790768268783000,16.113783203125,0.0006987593369558454,0.00015224353410303593,-0.0002507059834897518
1773790768288746000,16.13374609375,0.0010868161916732788,0.0005580151919275522,0.0014283498749136925
1773790768308710100,16.153710205078124,0.00016826106002554297,-0.0007337464485317469,0.00008346093818545341
1773790768328672800,16.1736728515625,-0.000577447353862226,-0.00027318019419908524,0.0019078936893492937
1773790768348637200,16.19363720703125,0.0009492762037552893,-0.0005205057095736265,0.0005357745103538036
1773790768368599800,16.213599853515625,0.0003830965142697096,0.0013226254377514124,0.001305077224969864
1773790768388563000,16.23356298828125,-0.0011648302897810936,0.00005772896111011505,0.00031529925763607025
1773790768408526800,16.25352685546875,-0.0002999331336468458,0.0005024909041821957,0.0013359622098505497
1773790768428490000,16.273489990234374,0.001110197976231575,0.0005333465524017811,0.0006968467496335506
1773790768448454000,16.293453857421873,-0.0009022724698297679,-0.0002589223440736532,-0.0005784346722066402
1773790768468417000,16.3134169921875,0.0011642512399703264,-0.00019660452380776405,-0.0007749809883534908
1773790768488380000,16.3333798828125,0.002602330408990383,0.00021683122031390667,0.00041219405829906464
1773790768508343800,16.35334375,0.000636243901681155,-0.0004150227177888155,0.0010103164240717888
1773790768528307000,16.373306884765626,-0.00012868479825556278,-0.001155627891421318,0.002288976451382041
1773790768548270800,16.393270751953125,0.00008837060886435211,0.0011414707405492663,0.0009798579849302769
1773790768568234000,16.41323388671875,-0.0010331268422305584,-0.00019873911514878273,0.00010264432057738304
1773790768588197000,16.433197021484375,0.0008255714783445001,0.0008339239284396172,0.0019640924874693155
1773790768608161000,16.4531611328125,-0.0014968181494623423,-0.0004685390740633011,0.0012671956792473793
1773790768628124000,16.4731240234375,-0.0011314053554087877,0.00007530231960117817,-0.00022827927023172379
1773790768648087000,16.493087158203124,0.00007642668788321316,-0.000776936300098896,0.0005067610181868076
1773790768668051000,16.513051025390624,0.00041651848005130887,-0.0010162144899368286,0.0016566631384193897
1773790768688014000,16.53301416015625,-0.0009361873380839825,-0.0005574401002377272,0.000464743934571743
1773790768707978000,16.55297802734375,-0.0006100770551711321,-0.001017305999994278,0.001123509369790554
1773790768727941000,16.572941162109377,-0.00012223486555740237,0.0006412258371710777,-0.00010893726721405983
1773790768747904000,16.592904052734376,0.0010579919908195734,0.00043075159192085266,-0.0006009186618030071
1773790768767868200,16.6128681640625,0.000019925879314541817,0.0005451603792607784,-0.00016353605315089226
1773790768787831000,16.6328310546875,-0.0016638205852359533,-0.0008227371145039797,-0.00018489407375454903
1773790768807795000,16.652794921875,0.00003496962017379701,-0.0009694998152554035,0.000456848181784153
1773790768827758000,16.672758056640625,-0.0006552654667757452,0.00016060913912951946,0.0011059334501624107
1773790768847721200,16.69272119140625,-0.00041345457429997623,-0.00033349962905049324,-0.0005496558733284473
1773790768867685000,16.71268505859375,0.00004664662992581725,0.000048400601372122765,0.00004497123882174492
1773790768887648000,16.73264794921875,0.00015536000137217343,0.00030484143644571304,0.0014899014495313168
1773790768907612200,16.752612060546873,-0.0004038243496324867,0.00047581898979842663,-0.0018160524778068066
1773790768927574800,16.77257470703125,0.00037614820757880807,-0.0002140600699931383,-0.0015185140073299408
1773790768947538000,16.792537841796875,-0.00021234748419374228,0.0010162137914448977,-0.0004449714906513691
1773790768967501800,16.812501708984374,0.0003406923497095704,-0.00011341087520122528,-0.00013197027146816254
1773790768987465000,16.83246484375,0.0011332194553688169,-0.000013619428500533104,0.0005994006060063839
1773790769007427800,16.852427734375,-0.0006154928705655038,-0.000342479906976223,0.00025236979126930237
1773790769027392000,16.87239208984375,-0.0005352991283871233,-0.0006156975869089365,-0.0002908254973590374
