time,seconds_elapsed,z,y,x
1773789985726272300,0.073272216796875,0.04766191488504409,-0.005967959360545501,-0.017302587720239532
1773789985746237200,0.0932373046875,0.037784079471230504,-0.004877497242717072,-0.003844482666859403
1773789985766203100,0.113203125,0.03658639411926269,-0.005656137481995392,-0.0054250024571083485
1773789985786168300,0.133168212890625,0.052149289432168004,-0.01193952403384028,-0.018040473540732637
1773789985806133200,0.15313330078125,0.04272036682963371,-0.004614720403973479,0.0017821889753453432
1773789985826099500,0.173099365234375,0.04212181641459465,0.00954313954975223,-0.004499412044789642
1773789985846064400,0.193064453125,0.0476572387099266,-0.01452061971835792,0.0008534841573331505
1773789985866029300,0.213029296875,0.04825520460307598,0.00231526152229635,-0.007046511844871565
1773789985885995300,0.232995361328125,0.040623686811327935,0.004205150939105078,-0.0055638629385270175
1773789985905960400,0.25296044921875,0.040324411603808404,-0.011037604474765247,-0.005548363975295797
1773789985925925400,0.27292529296875,0.037331075006723405,-0.008633219347312114,-0.0009899882848840207
1773789985945891300,0.292891357421875,0.040623102289438245,-0.007578002072800882,-0.010580385059444234
1773789985965856300,0.312856201171875,0.03254208716452121,-0.012120915332599543,-0.012953954923525452
1773789985985822200,0.332822265625,0.032092005309462546,0.0005743178727920167,-0.0152257814461831
1773789986005787400,0.352787353515625,0.040621348723769185,-0.007661001897847745,-0.009399020654615014
1773789986025752300,0.37275244140625,0.047805122748017306,0.004755674661067314,-0.004246697659045458
1773789986045718300,0.39271826171875,0.045110476836562156,-0.0074122718507656825,-0.014197260382352396
1773789986065683500,0.412683349609375,0.04870236384868622,-0.0014328001489397138,-0.016628506117267534
1773789986085648400,0.4326484375,0.038975335082411765,0.0026154911444638855,-0.0054771345031447705
1773789986105614000,0.452614013671875,0.03673018650412559,-0.0012980838363873771,0.00025108868423849345
1773789986125579300,0.472579345703125,0.04361293175518512,0.002463296257436741,0.0019543854707852006
1773789986145544200,0.492544189453125,0.04765256253480911,0.003588768039853312,-0.008621725272340699
1773789986165509400,0.51250927734375,0.04376198483705521,-0.0022447421529097483,-0.0044572260040324175
1773789986185474300,0.532474365234375,0.03747662095725536,-0.014600744883017614,-0.009047403338504954
1773789986205439500,0.552439453125,0.045558220604062075,0.007358660233695991,-0.00672901599407196
1773789986225405400,0.572405517578125,0.033436990177631375,-0.010298090669477823,-0.003686871819198131
1773789986245370400,0.592370361328125,0.043462709629535676,-0.006873185121559072,-0.0018676570354029536
1773789986265335600,0.61233544921875,0.037626258561015126,-0.006630295726796612,-0.015607154579740016
1773789986285301500,0.632301513671875,0.041966333591938014,0.003454104242939502,-0.008788825467554853
1773789986305266400,0.652266357421875,0.05034487035870552,-0.00022266174077522008,-0.006135150887304917
1773789986325231600,0.672231689453125,0.031191257077455518,-0.003766636224254034,0.003456460596807301
1773789986345197300,0.692197265625,0.04929799165427685,-0.013445699946244713,-0.008537015264108777
1773789986365162500,0.71216259765625,0.050045595151185986,-0.00463666052443441,-0.015665862497035412
1773789986385127400,0.73212744140625,0.032985739278793336,-0.005692450904392171,-0.00017980441316030918
1773789986405093400,0.75209326171875,0.03717559218406677,-0.010813253100402653,-0.011692191359400748
1773789986425058600,0.77205859375,0.04465688785016537,-0.0068351752157090225,-0.002521517834253609
1773789986445023500,0.7920234375,0.04854863459169864,0.005306718972837552,-0.011123716422216967
1773789986464989400,0.811989501953125,0.04226268619000911,-0.012449647246755194,-0.0048832693963777275
1773789986484954600,0.83195458984375,0.04360884010195732,-0.002603239017666783,-0.000788045105151832
1773789986504919600,0.85191943359375,0.033431729480624194,-0.006938475759979337,-0.0021494787846226245
1773789986524885500,0.871885498046875,0.04465396524071693,0.00025262305419892074,-0.009566778436955064
1773789986544850700,0.8918505859375,0.04390460817813873,-0.012165900685219094,-0.008872549095097928
1773789986564815600,0.911815673828125,0.04525134661197662,-0.008656136715307365,-0.012149269210826605
1773789986584781300,0.93178125,0.04031389020979404,-0.0025676174317253754,-0.014725330243911594
1773789986604746500,0.95174658203125,0.03776888190209866,-0.00445387870289851,-0.008469941377267242
1773789986624711400,0.97171142578125,0.04555062181949615,-0.017804486527503466,-0.007765875627985224
1773789986644677400,0.991677490234375,0.04121113131046295,-0.009811793573433533,0.0022317137079779057
1773789986664642600,1.011642578125,0.03432604797184467,0.004784724942327011,-0.010362970315944403
1773789986684607500,1.031607421875,0.04390227009057998,-0.0010528951699729076,-0.007171298135165124
1773789986704573400,1.051573486328125,0.04300327542424202,-0.0031575187494279817,-0.010463599412515758
1773789986724538600,1.07153857421875,0.051530865272879596,-0.00045686093900585545,-0.007366190519602969
1773789986744503600,1.091503662109375,0.045694998726248735,0.0048228444460313765,-0.010248340093484147
1773789986764469500,1.111469482421875,0.04389934748113155,0.0007503525764215737,-0.015319295815378426
1773789986784434400,1.131434326171875,0.034172903236746786,-0.005507536491274368,-0.010098839487042278
1773789986804399600,1.151399658203125,0.04314999041855335,0.0009837526236311533,-0.005192527141794562
1773789986824365300,1.171365234375,0.041053894922137256,0.0028987308159237725,-0.013784021672653033
1773789986844330500,1.19133056640625,0.041351416563987727,0.0005920476090162993,-0.01129299030820839
1773789986864295400,1.21129541015625,0.03850888661444187,0.010027639697643462,-0.003375358184613287
1773789986884261400,1.231261474609375,0.045240825217962265,-0.0067422202522284345,-0.0047749775831587606
1773789986904226600,1.2512265625,0.026684593307971953,-0.010047415260481647,-0.00853507903534919
1773789986924191500,1.27119140625,0.02997603606879711,-0.012367355241184121,0.0006117843559477478
1773789986944157700,1.29115771484375,0.03431435753405094,-0.00746921250266023,-0.00019723047199659047
1773789986964122600,1.31112255859375,0.04299216950833797,0.003289890124555677,-0.007622247639903798
1773789986984087600,1.331087646484375,0.05152034387886524,0.0010735634986660443,0.00014156389515846966
1773789987004053500,1.351053466796875,0.042542087653279305,-0.00825314312169794,-0.015261492080381139
1773789987024018400,1.371018310546875,0.04807926351428032,-0.0035701615207944996,-0.018438140221964567
1773789987043983400,1.3909833984375,0.04179448415637016,-0.0054838222555466925,-0.02097704758243635
1773789987063949600,1.410949462890625,0.05570961226224899,-0.007333178732567466,-0.009408062477596103
1773789987083914500,1.43091455078125,0.04493512026965618,-0.009377751821011769,-0.002045369956176728
1773789987103879400,1.45087939453125,0.040296354553103444,0.004396636656904593,-0.0007049242658074945
1773789987123845600,1.470845703125,0.0435877973139286,-0.003027259416284505,-0.006350318874791264
1773789987143810600,1.490810546875,0.03805179049670696,0.005623143961268943,-0.0020408581778407096
1773789987163775700,1.510775634765625,0.051370121753215786,-0.004860183065023739,0.0047753520424943414
1773789987183741700,1.53074169921875,0.02308919916450977,-0.0020354308007634243,-0.01670682291733101
1773789987203706600,1.55070654296875,0.04433832342028617,-0.002910117576329503,-0.0017503781981300561
1773789987223671600,1.570671630859375,0.03610767069160938,-0.0029222190060769204,-0.0034031321075279264
1773789987243637800,1.5906376953125,0.04897592009305954,0.0027869181716348975,0.0029221801901701838
1773789987263602700,1.610602783203125,0.038650340911746024,-0.010374950731394347,0.0015741905141621827
1773789987283567600,1.630567626953125,0.048826867011189455,-0.00501687374736648,-0.0168897052035667
1773789987303533800,1.650533935546875,0.04927753338813781,-0.004988305240008048,-0.006681971115106717
1773789987323498800,1.670498779296875,0.04598609062731266,-0.012659976945631205,0.0073404350238386535
1773789987343463700,1.690463623046875,0.03790682906806469,-0.00637381848138757,-0.0026391163319349287
1773789987363430000,1.710429931640625,0.04374269561469555,-0.002035649996472057,-0.012646377678541466
1773789987383394800,1.730394775390625,0.03685878131985664,-0.006628026137896813,-0.004242450742190704
1773789987403359700,1.75035986328125,0.027581249886751175,-0.003114471908856649,-0.017276594762457534
1773789987423325700,1.77032568359375,0.048830958664417265,-0.00621494497511303,-0.006863355564000084
1773789987443290600,1.79029052734375,0.03850537948310375,-0.0063907262337044805,-0.005652929461468011
1773789987463255600,1.810255615234375,0.041646015596389765,-0.009282342322252224,0.006437503967899829
1773789987483221800,1.8302216796875,0.03386310663521289,-0.005931228096329141,-0.000470320925489068
1773789987503186700,1.850186767578125,0.04254091860949993,-0.0023033336224849332,-0.010985869720950722
1773789987523151600,1.870151611328125,0.04673077151477337,-0.007845900327945127,-0.0037928164117038247
1773789987543116800,1.89011669921875,0.04568447733223438,-0.008317397147079464,-0.0020878847904969005
1773789987563082800,1.910082763671875,0.03536006719470024,-0.0049985868887160905,-0.009309935865364969
1773789987583047700,1.930047607421875,0.04538637116849422,-0.0010382592898444272,-0.0006343889134004712
1773789987603012900,1.950012939453125,0.04209317484200001,0.002043308146542404,-0.009115317475562915
1773789987622978600,1.969978515625,0.05361527033150196,-0.005167127839056774,0.004079981056321412
1773789987642943700,1.98994384765625,0.0443371543765068,-0.0005188545086421072,0.004841192953474819
1773789987662908700,2.00990869140625,0.025333178699016568,-0.0041587248313589955,-0.009625522886868566
1773789987682874600,2.02987451171875,0.05062134921252727,-0.010400514430913608,0.002819130807649344
1773789987702839800,2.04983984375,0.03131692928373814,-0.014299980971310288,-0.002334936620434746
1773789987722804700,2.0698046875,0.03281155175566673,-0.0077185430546524,0.0006444353833794593
1773789987742770700,2.089770751953125,0.03520575341582298,0.000037790710141416634,-0.00009451901619322598
1773789987762735900,2.10973583984375,0.03460661847889423,-0.0031284228023956526,-0.00034608262446708974
1773789987782700800,2.12970068359375,0.03400982162952423,-0.008235392835875972,0.0002994396043010056
1773789987802666800,2.149666748046875,0.04134264873564243,-0.01215860557804117,0.00426244321744889
1773789987822632000,2.1696318359375,0.031017654076218603,-0.012007374238816555,-0.002310121839586645
1773789987842596900,2.189596923828125,0.04897475104928017,-0.004675286918214987,-0.0055108632428105915
1773789987862562600,2.2095625,0.04673018699288368,0.0007698130454286002,-0.015221379265701397
1773789987882527700,2.22952783203125,0.0564542931497097,0.006241513321630191,-0.009819958613580091
1773789987902492700,2.24949267578125,0.042538580521941184,-0.006753314751689322,-0.0034255996676627546
1773789987922458600,2.269458740234375,0.03295943579375744,0.0021416265550185925,-0.0005721829979214817
1773789987942423800,2.289423828125,0.0393920991897583,-0.008400881029316224,-0.01675202289908193
1773789987962388700,2.309388671875,0.05046528186798095,-0.006176768389192875,-0.006435202412959188
1773789987982353700,2.329353759765625,0.051513329616189,0.0003362005512695759,-0.007264849036978558
1773789988002320000,2.34931982421875,0.039244215151667594,-0.0009945936780539342,-0.007496027444349601
1773789988022284800,2.369284912109375,0.040590369063615794,-0.011434972045186441,-0.0043254071847535665
1773789988042249700,2.389249755859375,0.04029109385609626,0.0015997656301246024,0.00033820984526537355
1773789988062215700,2.409215576171875,0.03400456093251705,0.0002332790329121053,-0.0004673069844953716
1773789988082180900,2.429180908203125,0.05330547372996807,-0.007749276119633578,-0.0034253348061814904
1773789988102145800,2.449145751953125,0.03385316976308823,0.010934575641842092,-0.004203004647791385
1773789988122111700,2.46911181640625,0.03908931685090065,-0.0006733098514145239,-0.00005949336858466267
1773789988142076700,2.48907666015625,0.04163257159292698,0.0069250774222891776,-0.004763752936245873
1773789988162042400,2.50904248046875,0.04612053066194057,-0.01698710573001299,-0.009447609036695212
1773789988182008600,2.529008544921875,0.03968669822216034,-0.00025415742415934797,0.0021699735833797603
1773789988201973500,2.548973388671875,0.03968669822216034,-0.010704493213014211,0.0032193091063760218
1773789988221938400,2.5689384765625,0.04671966559886932,-0.003188477859983686,-0.0026527612647973
1773789988241903400,2.5889033203125,0.042677112209796905,-0.00548801665676292,-0.010677068633260204
1773789988261869300,2.608869384765625,0.03384907810986042,-0.01009273168995278,-0.00983438899773173
1773789988281834200,2.628834228515625,0.048365094718337054,-0.0023796365619753487,-0.006759319800790399
1773789988301799400,2.64879931640625,0.03310205913484096,-0.00596811690746108,-0.006350236676400527
1773789988321765400,2.668765380859375,0.039088147807121276,-0.012519020405248738,-0.0027870460357982663
1773789988341730300,2.688730224609375,0.04462415462434292,-0.002282564829092007,-0.007947424473660066
1773789988361695200,2.7086953125,0.03968552917838097,-0.004904339583870023,-0.015254066825751214
1773789988381661400,2.728661376953125,0.041032267612218856,-0.0021554678507032803,-0.00862057449487038
1773789988401626400,2.74862646484375,0.04746726909577846,-0.009052328392083291,-0.003138325425190851
1773789988421591600,2.768591552734375,0.043425884750485415,-0.016194446098536718,0.00043046383913606404
1773789988441557500,2.7885576171875,0.0401326884239912,-0.007125166571652517,-0.010267446652753278
1773789988461522400,2.8085224609375,0.03863572786450386,-0.004356626590213272,-0.003622446547169238
1773789988481487600,2.828487548828125,0.04013093485832214,-0.002874902415764518,0.00768176840795204
1773789988501452500,2.84845263671875,0.03384732454419136,-0.004319803994451649,0.005812586135743186
1773789988521418200,2.868418212890625,0.03609247312247753,-0.0017672836671583354,-0.001089019079413265
1773789988541383400,2.888383544921875,0.0431260250210762,-0.007870826989936176,0.0012647409725002944
1773789988561348400,2.908348388671875,0.04058218575716018,-0.0007977216823725029,-0.007412130286870524
1773789988581314300,2.928314208984375,0.04492342983186245,0.0001557659504469484,-0.0027487233194056896
1773789988601279500,2.948279541015625,0.03205401138663292,-0.008878711691114585,-0.003441509622847661
1773789988621244400,2.968244384765625,0.042678865775465966,0.00240981478781905,-0.012461385633610189
1773789988641209300,2.988209228515625,0.04671732751131057,-0.0054818814602098425,-0.014881881645647807
1773789988661175600,3.008175537109375,0.042974633851647376,-0.0026636023192200806,-0.006199932352360338
1773789988681140500,3.028140380859375,0.0345949280411005,-0.008071765522670466,-0.009156800263421609
1773789988701105400,3.04810546875,0.03698971422314644,0.0053406417920370585,-0.011151718673994764
1773789988721071400,3.0680712890625,0.048211365461349485,-0.007820590073463972,-0.006865227860677987
1773789988741036300,3.088036376953125,0.04252572104036808,-0.011356296768807806,0.00016929215230047703
1773789988761001500,3.10800146484375,0.04013093485832214,-0.008680419489904306,-0.013504738940391689
1773789988780967400,3.127967529296875,0.035492753663659095,-0.00107107014748035,-0.010403539788350463
1773789988800932400,3.147932373046875,0.04058043219149112,-0.007904466681345366,0.0002304112223908305
1773789988822145500,3.1691455078125,0.023521160840988157,0.00022137396598700433,-0.0016312727299518882
1773789988842110500,3.1891103515625,0.03459317447543144,-0.004916189851867966,0.006060268153343349
1773789988862076400,3.209076416015625,0.0452174443423748,-0.012361334209062625,-0.005146340779354795
1773789988882041300,3.229041259765625,0.03623860359489917,-0.004972826826374512,-0.00898293240070343
1773789988902006300,3.24900634765625,0.05464402885735035,-0.004661030063999351,-0.0031444172392599283
1773789988921972500,3.268972412109375,0.036089550513029096,0.0027144671400659718,0.0023780816424172372
1773789988941937400,3.2889375,0.05269757096469402,-0.0038779944941052234,-0.006454783896263689
1773789988961902300,3.30890234375,0.03922843306064606,-0.005769315532885957,-0.0022730138327460734
1773789988981867300,3.3288671875,0.04416705850660801,0.00115911147382576,-0.0008151431746315211
1773789989001833500,3.34883349609375,0.03503858015537262,-0.008474046730226836,-0.008256316892895847
1773789989021798400,3.36879833984375,0.0402764808088541,0.004936625285120681,-0.014587620539963245
1773789989041763300,3.388763427734375,0.04147358163893223,0.00270286346724024,-0.0058745271897409105
1773789989061729500,3.4087294921875,0.04476385535597801,0.002259304967802018,-0.0023254564060363916
1773789989081694500,3.428694580078125,0.036086627903580665,-0.003302786138746887,-0.010352266258839516
1773789989101659400,3.448659423828125,0.04611234735548496,-0.005745402651047333,-0.007388128356775268
1773789989121624600,3.46862451171875,0.04312076432406902,-0.004581089845718815,-0.0013319792561233043
1773789989141590300,3.48859033203125,0.04147358163893223,-0.000980071962357033,-0.005433541956590488
1773789989161555500,3.508555419921875,0.034139000967144964,-0.006996169897122308,-0.006320069866999983
1773789989181520400,3.528520263671875,0.03518587967157364,-0.0016360790525213815,-0.009250469896243885
1773789989201485300,3.5484853515625,0.03877601311802864,0.004574854184465948,-0.00003942782809026539
1773789989221451500,3.568451416015625,0.04431143541336059,-0.0038506338464329016,-0.009551553468359633
1773789989241416400,3.58841650390625,0.05224164389073849,0.00730027654338628,-0.016251315968483684
1773789989261381400,3.60838134765625,0.047153965362906454,-0.008481773378956132,-0.009098192810826003
1773789989281347600,3.62834765625,0.033087446087598796,-0.0061026368571911,0.005922348386840894
1773789989301312500,3.6483125,0.0366775795340538,0.0035909828298259523,-0.00205220155576244
1773789989321277400,3.66827734375,0.04670154542028904,0.005406304606504272,-0.006245936051709577
1773789989341242600,3.68824267578125,0.03532733396887779,-0.0019673203008831477,-0.0004324092010501772
1773789989361208300,3.708208251953125,0.03487900567948818,0.011353506590100005,-0.003758220022358
1773789989381173200,3.72817333984375,0.028593641799688336,-0.002166708480636589,0.0006074643738567829
1773789989401138400,3.748138427734375,0.044455812320113176,0.00312345893291058,0.008626118319667876
1773789989421104400,3.7681044921875,0.04026595941483974,-0.006304949929681606,0.006709041785122826
1773789989441069600,3.788069580078125,0.04310907388627529,-0.007454677087231539,-0.002132153190486133
1773789989461034500,3.808034423828125,0.03981763112545013,-0.01207240458233282,-0.006197484666947275
1773789989480999400,3.82799951171875,0.030988427981734273,-0.004731209223379846,-0.004678924197005108
1773789989500965600,3.847965576171875,0.0344295083463192,0.0014240300373057834,-0.0014854436516296117
1773789989520930600,3.8679306640625,0.046399932125210756,-0.004033933974488172,-0.011804912752564995
1773789989540895500,3.8878955078125,0.03802022631466388,0.01026523414606927,-0.01476936118188314
1773789989560860400,3.9078603515625,0.04265782298743725,0.00790737559106201,-0.01260832895678468
1773789989580826600,3.92782666015625,0.045649406018853186,-0.00985339280901244,-0.016775504239369184
1773789989600791600,3.94779150390625,0.03652209671139717,0.002311021455307491,-0.005720916663762182
1773789989620756500,3.967756591796875,0.036221067938208576,0.005383503686229233,0.005056580136669799
1773789989640722400,3.987722412109375,0.04953823015093803,-0.001950207052589394,-0.0011945892125833778
1773789989660687400,4.007687255859375,0.04026011419594288,-0.004993696084467228,-0.0018768632551655173
1773789989680652300,4.02765234375,0.040109307548403736,0.005125103911792393,-0.003890057107945904
1773789989700617500,4.047617431640625,0.0425029246866703,0.0006528607184300199,-0.007482930500758812
1773789989720583400,4.06758349609375,0.0351700975805521,0.0044862603022716935,-0.007002654436836018
1773789989740548400,4.08754833984375,0.038461540341377255,-0.01598052935322048,-0.00233820628975518
1773789989760513500,4.107513427734375,0.038162265133857724,-0.005610373527952469,-0.005480020579975098
1773789989780478500,4.127478515625,0.04190203618407249,-0.005270252570102457,0.0034744163786061106
1773789989800444700,4.147444580078125,0.02828501424193382,-0.015971855139709078,-0.0013497797742951661
1773789989820409600,4.16740966796875,0.044594928529858587,0.0065366808929014945,-0.009859167245961725
1773789989840374500,4.18737451171875,0.03831014917194843,-0.012233337614953052,-0.0040202502257190645
1773789989860340500,4.207340576171875,0.04145253885090351,0.0001115911652916111,-0.009524528464116156
1773789989880305400,4.227305419921875,0.03472001572549343,0.003201903597137425,-0.001250648515066132
1773789989900270300,4.247270263671875,0.04160393002033234,-0.0064594418050721285,-0.006209631762467325
1773789989920235500,4.267235595703125,0.03711421738564968,0.005582608738192356,-0.014417296341201289
1773789989940201500,4.287201416015625,0.02768646382689476,-0.009763367304846178,0.004913372273696586
1773789989960166400,4.30716650390625,0.038760231027007104,-0.0014808770743664353,0.0012692436176817863
1773789989980131300,4.32713134765625,0.05103168357908725,-0.00918385951699456,0.0009182656223885715
1773789990000096500,4.347096435546875,0.050283495560288424,0.001070620339619927,-0.007951351730106398
1773789990020062500,4.3670625,0.04354921886920929,-0.007767665726272389,0.003641260845493525
1773789990040027400,4.38702734375,0.03801145848631859,0.0027909618758014403,-0.003314558774931356
1773789990059992600,4.40699267578125,0.040405075624585146,0.0006371950751286931,-0.006727828683983534
1773789990079957500,4.42695751953125,0.04743921204507351,-0.009156377855024765,0.0017310067773796617
1773789990099923500,4.44692333984375,0.03262450475096702,0.008554633119190112,-0.01200531242918223
1773789990119888600,4.466888671875,0.058362757119536396,-0.003001869246701244,-0.006635392027022317
1773789990139853600,4.486853515625,0.038161680611968035,-0.004563510806544218,0.0014618801129516214
1773789990159819000,4.506819091796875,0.04414660024046898,-0.007289750582794658,-0.003440258380677551
1773789990179784000,4.526783935546875,0.052824412214756006,-0.002637700692983344,0.003351748980162665
1773789990199749000,4.5467490234375,0.045045010384917254,-0.0007598305075312965,-0.0006529840160161256
1773789990219714000,4.566714111328125,0.033524668461084366,0.0041544162657111885,-0.001064998883008957
1773789990239680000,4.586679931640625,0.034572131687402724,-0.002094392163096927,0.004004623398324475
1773789990259645000,4.60664501953125,0.04026069871783256,0.004290662381646689,0.001314553197287023
1773789990279609900,4.62660986328125,0.04879062665402889,-0.004871727372345049,0.011882526299729943
1773789990299575000,4.646574951171875,0.04026303680539131,-0.0066343439975404175,-0.01054748743684031
1773789990319541000,4.666541015625,0.04460369635820389,-0.008743999945139512,0.00015434117834083736
1773789990339506000,4.686505859375,0.04969020584225654,0.004080880672042258,-0.011288314133090898
1773789990359471000,4.70647119140625,0.03966390186846256,-0.0023169465893064624,-0.006050057286582887
1773789990379436000,4.72643603515625,0.028739772272109984,-0.012439774306712205,-0.00926573139745742
1773789990399402000,4.746402099609375,0.0327782340079546,-0.0055638629385270175,-0.0013504464945755898
1773789990419367200,4.7663671875,0.03532148874998092,-0.0011091531185666097,-0.00009401669269427656
1773789990439332000,4.78633203125,0.04774140986204147,-0.0007876067137345672,-0.005640617969166487
1773789990459297000,4.806297119140625,0.034871406894922255,0.0038865591097623107,-0.004199707579007372
1773789990479263000,4.826262939453125,0.040109307548403736,-0.0015822025739704259,0.0005316226586699486
1773789990499228000,4.846227783203125,0.041754736667871474,-0.007289227709698025,-0.0019786887949798256
1773789990519192800,4.86619287109375,0.03382335914671421,-0.00017887968126451594,0.004495037263771519
1773789990539158000,4.886157958984375,0.03965922569334507,-0.005909390723856631,0.002697696385066956
1773789990559124000,4.9061240234375,0.052826750302314755,0.0010509909072541632,-0.0034312165576964614
1773789990579089000,4.9260888671875,0.03995791637897491,-0.002954826651024632,-0.01089985367162153
1773789990599054000,4.94605419921875,0.047288989919424054,-0.005392296630749478,0.010424920503096654
1773789990619019000,4.96601904296875,0.025143209084868428,0.0032603124036220833,0.006042522434098646
1773789990638985000,4.98598486328125,0.043398996743559834,-0.004566622928949072,-0.004327051152568311
1773789990658950100,5.0059501953125,0.0435486343473196,0.005797217319963965,0.0032755145393311975
1773789990678915000,5.0259150390625,0.04324877461791038,-0.014667597290861886,-0.0028124910043086856
1773789990698880000,5.0458798828125,0.037113048341870306,-0.0026659586730878797,0.0014350834375713019
1773789990718846200,5.06584619140625,0.044295653322339056,-0.0023955419505829923,0.002643582444498315
1773789990738811100,5.08581103515625,0.056716743478178976,-0.01117641015725676,-0.01256225219219923
1773789990758776000,5.105776123046875,0.031578210568428036,-0.007946111582696903,-0.0007996259450912475
1773789990778741000,5.125740966796875,0.03726268594563007,-0.005240926010918337,-0.002304934207815677
1773789990798707000,5.14570703125,0.04504384134113788,-0.0028462083275313486,0.00589629149697721
1773789990818671900,5.165671875,0.053422378107905386,-0.009502604326675646,-0.004349253851221874
1773789990838636800,5.18563671875,0.03890694602131843,0.0014696295945672317,-0.00013004698730073868
1773789990858602000,5.20560205078125,0.03785948279500007,-0.004518920462857932,-0.0028532066071871665
1773789990878568000,5.22556787109375,0.04219663521647453,-0.006916588155156932,-0.006728586735809222
1773789990898533000,5.245533203125,0.053418286454677576,-0.00685380228436552,-0.004082693603215739
1773789990918498000,5.265498046875,0.037706338059902186,-0.006054628430423327,-0.003208267122553661
1773789990938463000,5.285462890625,0.029924013620615003,0.00151635024654679,-0.004487264949269592
1773789990958429200,5.30542919921875,0.04114508033692837,-0.009910433925606775,-0.000959300885675475
1773789990978394000,5.32539404296875,0.03186813342571258,0.005348423239693511,0.001899321682145819
1773789990998359000,5.345359130859375,0.033813422274589534,-0.0010244248440256342,0.006227660609502345
1773789991018324000,5.365323974609375,0.034711832419037816,-0.004196816935599782,0.0005050269126892089
1773789991038289200,5.3852890625,0.04384031077027321,0.005618853661930188,-0.0017822437742725013
1773789991058254800,5.4052548828125,0.03949965121746063,0.0021693867782014422,0.0005000036776997149
1773789991078219800,5.4252197265625,0.034410219123959536,-0.0006375535514438524,-0.001612659361027181
1773789991098185000,5.44518505859375,0.03979658833742142,-0.00708148269355297,-0.0018906360521912574
1773789991118150000,5.46514990234375,0.040992520123720164,-0.01504531487931963,0.009547744942922145
1773789991138115800,5.48511572265625,0.04233867403566837,0.0046992751485784535,-0.014332330604642628
1773789991158081000,5.5050810546875,0.034705402678251264,-0.007250790828873869,0.007636961151845752
1773789991178046000,5.5250458984375,0.03964285908043384,-0.00284820848837262,-0.0034072054944466797
1773789991198011000,5.545010986328125,0.044431262400746345,-0.006746802812512032,-0.007850384706817566
1773789991217977000,5.56497705078125,0.052960605815052984,-0.007793428071902599,-0.005176160528883337
1773789991237942000,5.58494189453125,0.0412871191561222,-0.003133279357315041,0.002985025426466018
1773789991257907000,5.604906982421875,0.04861819269657135,-0.003896904690552037,-0.0021387929938267917
1773789991277872000,5.6248720703125,0.03978898955285549,-0.009079431028140243,-0.0058341403804253785
1773789991297838000,5.644838134765625,0.052957098683714864,-0.003364329900522716,-0.007353687231056392
1773789991317803000,5.664802978515625,0.03889057940840721,-0.004294980080449022,-0.00521441931319423
1773789991337768200,5.684768310546875,0.05220832614302635,0.002830216173955705,-0.00550761183979921
1773789991357733000,5.704733154296875,0.03021042934656143,-0.01246174639321398,-0.0013828235273715109
1773789991377698000,5.724697998046875,0.03844166659712791,0.007881473964825272,0.0066194455392193045
1773789991397664000,5.7446640625,0.02871463783085346,-0.004934903685492463,-0.00826602543615736
1773789991417629000,5.76462890625,0.04607259986698627,-0.005755414871696848,0.0006897632292937487
1773789991437593900,5.78459375,0.03709434364140034,-0.0012288568083662539,-0.003061305533070117
1773789991457558800,5.804558837890625,0.048912791728973386,-0.011853275089070666,-0.006586383519833907
1773789991477525000,5.82452490234375,0.04352525347173214,-0.0207912335535977,0.010508479733858257
1773789991497490000,5.844489990234375,0.03394786230921745,-0.0004972614480531774,0.0117323772393167
1773789991517455000,5.864455078125,0.04292728757858276,0.0002207026791293174,0.0013336688897106796
1773789991537420000,5.884419921875,0.027213585618138313,-0.0005799119299394078,-0.007368199813598766
1773789991557385000,5.904385009765625,0.03798807761073112,-0.008062762515596114,0.002930555292870849
1773789991577351200,5.92435107421875,0.036192426365613935,0.0029995539920288136,-0.0032161125022917986
1773789991597316000,5.944316162109375,0.04651800554692745,-0.007866589206235949,0.0039256855437532065
1773789991617281000,5.964281005859375,0.02526829676926136,0.005309961242694407,0.003961195248551667
1773789991637246000,5.984245849609375,0.03873685015141964,-0.006002505517541431,-0.004645067593175917
1773789991657212000,6.0042119140625,0.03245207079350948,-0.0009116555018001235,0.005975192818930372
1773789991677176800,6.0241767578125,0.045620179924368856,-0.017713250880362463,-0.0015081669400911777
1773789991697141800,6.044141845703125,0.033949031352996824,0.0012207420005695894,-0.007978376734349877
1773789991717107000,6.06410693359375,0.038739188238978386,-0.003591608450911008,-0.008397844255436212
1773789991737071900,6.08407177734375,0.053552726489305494,-0.006862392016197555,0.007203026713989674
1773789991757037800,6.104037841796875,0.04681844979822635,0.005420054570643697,0.004815939781209454
1773789991777003000,6.1240029296875,0.04846504796147346,-0.01105458529231837,0.007783621347229927
1773789991796968000,6.143968017578125,0.04292962566614151,-0.007401971935748588,-0.0006913706644903868
1773789991816932900,6.163932861328125,0.04158405627608299,-0.004152870479307603,0.003430458505870774
1773789991836899000,6.183899169921875,0.03335398806929588,-0.014416771184816024,-0.004481392330909148
1773789991856864000,6.203864013671875,0.03904021701216698,-0.007960484884632751,0.00012584573621861637
1773789991876829000,6.223828857421875,0.04188333148360252,-0.0005469640749855898,-0.003478645029151812
1773789991896794000,6.243794189453125,0.04562485609948635,-0.006800818571669515,-0.0030643742729909718
1773789991916759000,6.263759033203125,0.04352876060307025,-0.007489396774163469,-0.005978380289860069
1773789991936725000,6.28372509765625,0.036347909188270563,-0.009211480459570884,-0.008336798250582068
1773789991956690200,6.303690185546875,0.04757248303592205,0.00016902044095331803,-0.00996127591356635
1773789991976655000,6.323655029296875,0.03739829502403736,-0.008459248736605514,0.0068466053585987535
1773789991996620000,6.3436201171875,0.0466769955009222,-0.004553341038979124,-0.008925311328796669
1773789992016585000,6.3635849609375,0.038894671061635015,0.0005276543030282482,0.007292467696266248
1773789992036551000,6.383551025390625,0.040838790866732595,-0.0031209062162204644,-0.008619149722764268
1773789992056515800,6.403515869140625,0.03245966957807541,-0.006118679243116639,-0.009847851267503574
1773789992076481000,6.42348095703125,0.033656770408153534,-0.0058600191737757995,0.006434042502334341
1773789992096446000,6.443446044921875,0.025426702201366422,0.006945380424801259,-0.003876622237637639
1773789992116411000,6.463410888671875,0.041437925803661346,-0.00035017199440626423,0.0043532541729044165
1773789992136377000,6.483377197265625,0.05116378552615642,0.0021158436597906983,-0.0029500271783210338
1773789992156342000,6.503342041015625,0.051014147922396655,-0.011686686350509989,0.007528176148282364
1773789992176307500,6.523307373046875,0.04068973778486252,-0.006353622793441173,0.0018100176971871404
1773789992196272400,6.5432724609375,0.04951835640668869,-0.0062499272402375934,0.0007456033360678702
1773789992216238600,6.563238525390625,0.044133156237006185,-0.01383094097074354,-0.003565428263461217
1773789992236203500,6.58320361328125,0.03919569983482361,-0.004277375925099477,-0.0061387493501883
1773789992256168700,6.603168701171875,0.0462280826896429,-0.007627841697051189,-0.007577641313197091
1773789992276133600,6.623133544921875,0.05011807586550712,-0.004630472812242806,-0.004722964268131181
1773789992296098600,6.6430986328125,0.043833296507596965,-0.002225553395249881,-0.004722900336049497
1773789992316064500,6.663064453125,0.03575345042645931,0.005644574908365029,0.007394567230716347
1773789992336029400,6.683029541015625,0.04353460582196712,-0.006836951614264398,0.003967570190411061
1773789992355994400,6.702994384765625,0.0462280826896429,-0.00018496007889043538,-0.0036733912831172343
1773789992375959300,6.722959228515625,0.04413432528078556,-0.00821550767518347,0.0015019929276313632
1773789992395924500,6.742924560546875,0.04263911828696727,-0.00814497460606508,-0.011474986678455024
1773789992415890400,6.762890380859375,0.04952420162558555,-0.012428545093222054,-0.0061914659181144084
1773789992435855400,6.78285546875,0.04278875589072704,-0.00976677853806177,0.011590374952740966
1773789992455820500,6.802820556640625,0.03336100233197212,-0.003681145331310108,-0.0021289748527109622
1773789992475785500,6.822785400390625,0.036055648243427274,-0.016016694361856206,0.0009310155061073601
1773789992495750400,6.84275048828125,0.045482817280292506,-0.00711387114279205,-0.00029355785278603434
1773789992515715600,6.862715576171875,0.02737666722536087,0.001079143856081646,-0.007760030409088358
1773789992535681500,6.882681640625,0.031117022797465324,-0.002876898010028526,0.0014055742152966559
1773789992555646500,6.902646484375,0.052065118280053134,-0.006728737432858906,0.0010784702859353273
1773789992575611600,6.922611572265625,0.03904723127484321,-0.0031679396787425503,0.0004296509883832186
1773789992595576600,6.94257666015625,0.03605272563397884,-0.006468880920275114,-0.00048464171178638933
1773789992615541500,6.96254150390625,0.042485389029979705,-0.005250095698062796,-0.0022913440738804637
1773789992635507500,6.982507568359375,0.04233633594810962,-0.009004377047531306,0.007834273822233081
1773789992655472600,7.00247265625,0.04533025706708431,-0.006355077248299494,0.0038466472244821485
1773789992675437600,7.0224375,0.041589901494979854,-0.003242947993578855,-0.003527388674858957
1773789992695402500,7.042402587890625,0.030814824980497358,0.006150060762069188,0.007058914668718353
1773789992715367700,7.06236767578125,0.05056874224245548,-0.009199289981566834,0.00843385628373362
1773789992735333400,7.08233349609375,0.04128945724368095,-0.007232700333045795,-0.009278700476884841
1773789992755298300,7.10229833984375,0.027971125987172125,0.0005352393878623843,0.005015270878747105
1773789992775263500,7.122263427734375,0.04832008653283119,-0.009291977800277526,0.008546285415953024
1773789992795228400,7.142228515625,0.04233399786055088,-0.004913721616857219,-0.004125619429489597
1773789992815193300,7.162193359375,0.03589899637699127,-0.0032193890214781275,-0.0018111684746574608
1773789992836407300,7.1834072265625,0.04742284543216228,0.00028643399225547906,0.006996927948947996
1773789992856372500,7.20337255859375,0.03455401150882244,-0.007567916786915156,0.0005803937038406729
1773789992876337400,7.22333740234375,0.03215864080488682,-0.006908071488561108,-0.0006763466252945363
1773789992896302300,7.24330224609375,0.024976035824418066,-0.0003991645185742527,0.002726529753906652
1773789992916267500,7.263267578125,0.04068798421919346,-0.005743564603698906,-0.0014315306404605508
1773789992936232400,7.283232421875,0.04158697888553142,0.005097387071093544,-0.006281646685907617
1773789992956198400,7.303198486328125,0.030962709018588063,-0.0021324043522356075,0.0037310123550239947
1773789992976163300,7.323163330078125,0.03739595693647861,-0.007121835253539029,-0.004754638048028573
1773789992996128500,7.34312841796875,0.039490883389115335,-0.010063829822454136,-0.0018704700469970702
1773789993016093400,7.363093505859375,0.04682371049523353,-0.007405058941978495,0.0027102270730771125
1773789993036058400,7.383058349609375,0.051012978878617284,0.0039916040865471585,-0.009208977975230664
1773789993056024600,7.403024658203125,0.053256373891234395,-0.010055607700091786,-0.0066143492389935995
1773789993075989500,7.422989501953125,0.030661680245399472,-0.0008729720258037559,-0.010687489562574773
1773789993095954400,7.442954345703125,0.046672903847694396,-0.009407331825233995,0.008594060947280376
1773789993115919600,7.462919677734375,0.05041150585412979,-0.005198303862032481,-0.00007871865886263548
1773789993135884500,7.482884521484375,0.044725861433148384,0.0005344174039550125,0.007956749424431473
1773789993155849500,7.502849365234375,0.032304771277308464,-0.009489731145370751,0.002778159476444125
1773789993175814700,7.522814697265625,0.02153027928471565,-0.012003741526603698,0.0023511845023371277
1773789993195779600,7.542779541015625,0.03664543083012104,0.00005804348030360415,-0.005432555575901642
1773789993215744500,7.56274462890625,0.04322948539555072,-0.014384661296789999,-0.009744610088737681
1773789993235709400,7.58270947265625,0.04891396077275276,-0.008211071245372296,0.000827253737533465
1773789993255674600,7.602674560546875,0.0396358448177576,-0.005720179161534179,-0.004663397834310308
1773789993275639600,7.6226396484375,0.042328152641654015,0.0013551614855998196,-0.0053245560236275195
1773789993295605500,7.64260546875,0.03155424517095089,-0.013622928809828589,0.010832478390680625
1773789993315570700,7.66257080078125,0.03739011171758175,-0.00449869052558206,0.00006122866794466973
1773789993335535600,7.68253564453125,0.036789223214983936,-0.0026390569664305075,0.0006591762947849929
1773789993355500500,7.70250048828125,0.05294949989914894,-0.004702722914412151,0.008899857227131724
1773789993375465700,7.7224658203125,0.036489948007464405,-0.012185194474156015,-0.0013346552703995256
1773789993395430700,7.7424306640625,0.041429742497205733,-0.0013831683039548805,-0.0039841285995673385
1773789993415396400,7.762396240234375,0.024821137523651123,-0.0069604181637289,-0.009293066928954794
1773789993435361500,7.782361572265625,0.05040858324468136,-0.011560023196961264,0.006591105360724031
1773789993455326500,7.802326416015625,0.03933773865401745,-0.008190323001577052,0.0015168343037366865
1773789993475291400,7.82229150390625,0.041732524836063385,-0.0053994593071867705,-0.002720702801318839
1773789993495256300,7.84225634765625,0.040833530169725414,-0.0004522372795268893,0.006941069575864821
1773789993515221500,7.862221435546875,0.015993103423714638,-0.009022289446846115,-0.0013834445818793027
1773789993535187500,7.8821875,0.05400163930058479,-0.007643219645984936,0.005314135094312951
1773789993555152400,7.90215234375,0.03245440888106823,-0.014974580880801659,0.009763351321825757
1773789993575117600,7.92211767578125,0.04487432999312877,0.0028692763925762844,0.001849993514548987
1773789993595082500,7.94208251953125,0.0456225180119276,-0.006104968094883952,-0.004451280320435762
1773789993615047400,7.96204736328125,0.03844108207523823,0.0008912908504949882,-0.00858213304746896
1773789993635012600,7.9820126953125,0.045025136640667915,-0.0009758113457704893,-0.006324901305744424
1773789993654978600,8.001978515625,0.042779988062381744,-0.002930737955961376,0.0009034607789013534
1773789993674943500,8.021943603515625,0.03679273034632206,-0.004152279107552021,0.004469546629488468
1773789993694908700,8.04190869140625,0.04128185845911503,-0.00924313140658196,0.0034278738231398164
1773789993714873600,8.06187353515625,0.04128185845911503,-0.007902436837751884,-0.00214252845402807
1773789993734838500,8.081838623046876,0.026765841850638388,-0.0005724638424231671,0.003780915911355987
1773789993754803500,8.101803466796875,0.04606909273564815,0.007805266923457383,0.00689424389260821
1773789993774768600,8.1217685546875,0.03828793734014034,-0.008051334655995014,0.002860248269326985
1773789993794734600,8.141734619140625,0.04202946195602417,-0.010519286538951563,0.01047221197723411
1773789993814699500,8.161699462890626,0.034250644648075104,0.004116534224024508,-0.0039182420228142285
1773789993834664700,8.181664794921875,0.046073768910765645,-0.008134188350569456,0.004147539000352844
1773789993854629600,8.201629638671875,0.03769406310021877,-0.003184463838569354,0.008181671620951965
1773789993874594600,8.221594482421875,0.041136897030472755,-0.010427489202807191,-0.018818636572686953
1773789993894559700,8.241559814453124,0.048321255576610565,-0.010429194819414988,0.0066449361735023554
1773789993914525400,8.261525390625,0.03215980984866619,-0.006231791078636888,-0.0011186652990058065
1773789993934490400,8.281490478515625,0.04592705391645431,-0.006581321468937676,0.0030192108238581566
1773789993954455600,8.30145556640625,0.049367549759149545,-0.004461520869948435,0.00007820720220915973
1773789993974420500,8.32142041015625,0.047721536117792125,-0.009453095779276917,0.006797432454628869
1773789993994385400,8.341385498046876,0.04009118736982345,-0.008433954465144779,0.00974629058917053
1773789994014350300,8.361350341796875,0.04098901299238205,-0.016992546806822065,-0.0004251392100472003
1773789994034315500,8.3813154296875,0.038593642288446424,-0.004828984209161717,0.002157908686250448
1773789994054281500,8.401281494140624,0.020339023673534393,-0.012895043793541843,-0.0024169432149268684
1773789994074246700,8.42124658203125,0.023332944792509077,-0.006001347890205216,-0.013389606394432485
1773789994094211600,8.441211669921875,0.051314007651805875,-0.0130578217233764,0.012142565475404262
1773789994114176500,8.461176513671875,0.03320785759687424,-0.0012337704455014317,-0.0076193341636098914
1773789994134141400,8.481141357421874,0.03604863398075103,-0.002179424115025904,0.008105574177438393
1773789994154106600,8.501106689453126,0.04113748155236244,-0.0059988773719058365,-0.00002944529019296169
1773789994174071800,8.52107177734375,0.041138066074252126,-0.0016132233333191832,-0.0037700565906241532
1773789994194038000,8.5410380859375,0.03664835343956947,-0.001982912878948264,-0.0006341697176918388
1773789994214003000,8.5610029296875,0.046076691520214076,-0.006091133649065159,-0.006100737161049619
1773789994233967900,8.5809677734375,0.046077276042103765,-0.004741013664763886,0.00689231679700315
1773789994253933000,8.60093310546875,0.04697451714277267,-0.007250795395451132,0.0019439645414706319
1773789994273898000,8.62089794921875,0.022135259440541268,-0.0061867395106470205,-0.007851444152742623
1773789994293863000,8.64086279296875,0.053259296500682826,-0.0026081480882246977,0.001039690911816433
1773789994313827800,8.660827880859374,0.03156184395551681,-0.009779950830177403,-0.001046422046702355
1773789994333793800,8.680793701171876,0.03949322147667408,-0.010369765382912009,-0.004975934382202104
1773789994353758700,8.7007587890625,0.04203764526247978,-0.005269989991909824,-0.005453443100303411
1773789994373723600,8.7207236328125,0.0553559765189886,-0.010175073927873745,0.0054477257455699145
1773789994393688800,8.740688720703124,0.0396446126461029,-0.008357612709747627,-0.010638289259141311
1773789994413653800,8.76065380859375,0.029470424634218215,-0.010648246680863666,-0.002314770615240559
1773789994433618700,8.78061865234375,0.03844868085980415,-0.004688153249653987,-0.001272860346874222
1773789994453584000,8.800583984375,0.038299043256044385,0.00474172376752831,0.0006580346504691987
1773789994473549800,8.8205498046875,0.04174246170818805,-0.010827715450595132,-0.005299741242779418
1773789994493514800,8.8405146484375,0.04368891960084438,-0.021743374046124517,-0.01000407387567684
1773789994513480000,8.86047998046875,0.039946810463070866,-0.002473655537958257,-0.004237016515247523
1773789994533444900,8.88044482421875,0.04368716603517532,-0.00666212248703232,0.0003096322047524154
1773789994553409800,8.900409912109374,0.03396130631268024,-0.0031759631549939512,-0.012576280717551708
1773789994573374700,8.920374755859376,0.04698094688355922,-0.00601033948083641,0.007997766421409324
1773789994593340000,8.94033984375,0.04159633123576641,0.009947347852913662,-0.0056038935548160225
1773789994613304800,8.960304931640625,0.04997428348064422,-0.008375655256514437,0.001559495268529281
1773789994633271000,8.98027099609375,0.040247254714369775,-0.0013228461015969515,0.007741334841772913
1773789994653236000,9.000236083984374,0.03979834190309047,-0.006682402656658087,-0.0031846944507211445
1773789994673201000,9.020200927734376,0.051021162185072896,0.00012321310442639513,-0.009158891755808144
1773789994693165800,9.040165771484375,0.038302550387382506,-0.009871417089470196,-0.010969640105357392
1773789994713131000,9.060131103515625,0.04384031077027321,-0.01354145650487626,-0.007898680827952921
1773789994733096000,9.080095947265624,0.03127016753256321,0.002282758908625692,0.004679189058486372
1773789994753060900,9.100060791015625,0.040697921091318125,0.00031302973823621867,-0.011476055257534607
1773789994773026800,9.12002685546875,0.04907645785808563,-0.013624330749048385,0.0019135785363614559
1773789994792992000,9.139991943359375,0.0483282698392868,-0.007087674972321838,0.00895576126598753
1773789994812957000,9.15995703125,0.036057986330986024,-0.0034913675134070218,-0.004042736052162945
1773789994832921900,9.179921875,0.04473696734905243,-0.008213345400849358,0.006136402129475027
1773789994852887000,9.199886962890625,0.044586160701513285,-0.007834739613113925,-0.010511685471097007
1773789994872852000,9.21985205078125,0.03455985672771931,0.0012474450611160135,-0.004346787899499759
1773789994892817000,9.23981689453125,0.04009586354494095,-0.010752371492329984,0.003947057125344872
1773789994912782000,9.259781982421876,0.031118191841244695,0.005974656246101949,-0.0014968144290149212
1773789994932747800,9.279747802734375,0.042191374519467355,-0.003117081707762554,-0.004301861912384629
1773789994952712700,9.299712646484375,0.039946225941181183,-0.013049010512547102,0.0041277200550306585
1773789994972678000,9.319677978515625,0.03470774076581001,-0.013111556638032196,-0.0003960592460352927
1773789994992642800,9.339642822265626,0.0397971728593111,-0.0009751674583763815,0.013998121081059798
1773789995012607700,9.359607666015625,0.03351063993573188,0.006140053107996936,0.009449481333373115
1773789995032572700,9.37957275390625,0.055357730084657664,0.00014822881467407568,0.0014229180757421999
1773789995052537900,9.399537841796874,0.047425768041610715,-0.009051526957773602,0.010028852123906836
1773789995072502800,9.419502685546876,0.03111410018801689,-0.010327611308195627,0.004161156533751637
1773789995092467700,9.4394677734375,0.038894671061635015,-0.0038226384445209987,0.00152556559946388
1773789995112434000,9.459433837890625,0.04592588487267494,-0.015017175630223936,-0.0010736023145727813
1773789995132398800,9.47939892578125,0.04637596672773361,0.0036073562926030715,0.0023099483096506446
1773789995152363800,9.49936376953125,0.03679799104332924,-0.000987734679004643,-0.0023902561374008653
1773789995172329500,9.51932958984375,0.018092706051468847,0.0023996518701198508,0.004370013511460274
1773789995192294700,9.539294677734375,0.03604804945886135,-0.0013687698858440853,0.008241475516790523
1773789995212259600,9.559259521484375,0.04532324280440807,0.0041653418018133374,-0.003411644207546487
1773789995232224500,9.579224609375,0.0508598341435194,-0.0015887350627453998,-0.004906093149539083
1773789995252189700,9.599189697265626,0.03664484630823135,-0.01226665992924245,-0.0058168695852160454
1773789995272155600,9.61915576171875,0.04083236112594604,-0.005494215785397682,0.0036249581646639853
1773789995292120600,9.63912060546875,0.04412321936488151,0.013063059587497263,-0.0028395342748612166
1773789995312085500,9.65908544921875,0.046667058628797525,-0.0008040555250365287,0.0008831212437711655
1773789995332050700,9.67905078125,0.03364800257980823,0.0015635640888707711,-0.006674070936441421
1773789995352015600,9.699015625,0.044271687924861906,0.007567492095229681,-0.0020065814489033072
1773789995371980500,9.71898046875,0.04187514817714691,-0.011419087206176482,0.003867470816802233
1773789995391945700,9.73894580078125,0.03259644770026207,-0.008589524052769412,0.0035129217580892142
1773789995411910700,9.75891064453125,0.04815758944749832,0.005696921583532821,0.003618537557031959
1773789995431875600,9.77887548828125,0.042620413586497305,-0.004198835362750106,0.004276882734755054
1773789995451841500,9.798841552734375,0.046959904095530504,-0.012931514762854203,0.01012275008559227
1773789995471806500,9.818806396484375,0.039028526574373244,-0.00045809619815554467,-0.015546391702676191
1773789995491771400,9.838771484375,0.03768237266242504,-0.00701550935183186,0.007294330859789624
1773789995511736600,9.858736572265625,0.05578852271735668,-0.0027640693022985942,-0.0036127745365258303
1773789995531701500,9.878701416015625,0.04441548030972481,0.0026784710947889835,0.003018653701432049
1773789995551666400,9.89866650390625,0.03977437650561332,-0.003060766676953062,0.0009462222083937376
1773789995571631400,9.91863134765625,0.03034603842496872,-0.012027702357503585,-0.008111684257816523
1773789995591596500,9.938596435546875,0.043213703304529186,-0.00236562173635466,0.006667832991899922
1773789995611561500,9.9585615234375,0.04665653723478317,0.0025358660200145095,-0.0018024645783938466
1773789995631526400,9.9785263671875,0.04441197317838669,-0.001720231938327197,0.0062377892778720705
1773789995651492600,9.99849267578125,0.028400749576091764,-0.010702755630365572,-0.009344148662220686
1773789995671457500,10.01845751953125,0.04111936137378216,-0.0020752467879210598,0.010007188281370327
1773789995691422500,10.03842236328125,0.05518471160531044,-0.01089400160285877,0.007067664230754598
1773789995711387600,10.0583876953125,0.043811669197678565,0.0020546423913096077,-0.00995456304498948
1773789995731352600,10.0783525390625,0.04605447968840599,-0.01025738419975387,0.007983308637794107
1773789995751317500,10.0983173828125,0.04859948799610138,-0.0073573267931351435,0.0014736070833634583
1773789995771282400,10.118282470703125,0.039621816292405125,-0.0054716157945222214,0.0023459512047935274
1773789995791247600,10.13824755859375,0.032439211311936375,-0.0011713613173342308,0.00952138665895909
1773789995811212500,10.158212646484374,0.0424637617200613,0.00023879317495739086,0.003806123417848721
1773789995831178500,10.178178466796876,0.04366027802824974,-0.008835989077528939,-0.002418039193470031
1773789995851143700,10.198143798828125,0.045754035437107085,-0.002721817046171054,0.0006506002626847475
1773789995871108600,10.218108642578125,0.04156301348805427,-0.008813446168869268,0.002378730096388608
1773789995891073500,10.238073486328124,0.03437923946380615,-0.0014359031381900422,0.0018818408243823795
1773789995911038700,10.258038818359376,0.05173661697804927,0.0018808338940958492,0.005272396578127518
1773789995931003600,10.278003662109375,0.04021335244476795,-0.007296990891045425,0.0014249913018196821
1773789995950968600,10.297968505859375,0.03512567391693592,-0.005148742798995226,-0.007508567265514284
1773789995970933500,10.31793359375,0.0366208809107542,0.002022438888449687,-0.005963109655492007
1773789995990898700,10.337898681640626,0.044851533639431,-0.010747156461095437,0.0037391317293979224
1773789996010863600,10.357863525390625,0.03602233049571514,-0.004990526879846584,0.00815318531198427
1773789996030828500,10.37782861328125,0.041109424501657485,-0.013243571820133365,0.01596564916120842
1773789996050794500,10.39779443359375,0.03736848440766334,0.0014372868111007847,-0.007394174505071714
1773789996070759400,10.417759521484374,0.03871522284150123,-0.0020265853406046517,0.00922528978921473
1773789996090724400,10.437724365234375,0.04395312349498272,-0.0008126452568685635,0.0005144979939330369
1773789996110689500,10.457689453125,0.04709492865204811,-0.0044238740069908085,0.0004344276282005012
1773789996130654500,10.477654541015625,0.04155950635671615,-0.0055920980857452375,0.005134138884907588
1773789996150619400,10.497619384765626,0.042757191708683966,0.00568806470693089,0.0007773227817378938
1773789996170584000,10.517583984375,0.033329438149929044,0.0020955155411036684,0.0027625600485131144
1773789996190549000,10.537549072265625,0.0343769013762474,0.005853998141654301,-0.001718695285078138
1773789996210514000,10.557513916015624,0.03931435777842998,-0.0022037959378794765,-0.004049430654430762
1773789996230479000,10.57747900390625,0.046347325155138966,-0.0013494327144231647,0.006547841607732698
1773789996250444800,10.59744482421875,0.02869067243337631,-0.0021572762152994984,0.0026228775831870733
1773789996270409700,10.61740966796875,0.04649754728078842,0.007483782167418394,0.008432815104117617
1773789996290375000,10.637375,0.04021335244476795,-0.005825016359053552,-0.004165193388052284
1773789996310339800,10.65733984375,0.055175943776965136,-0.0035976408994756637,-0.010075221149437128
1773789996330304800,10.6773046875,0.024801848301291465,-0.006550686585367657,0.007290093076089397
1773789996350269700,10.697269775390625,0.030486908200383186,-0.005820655277767218,0.013183525895699858
1773789996370235000,10.71723486328125,0.04784662380218505,-0.001061583083216101,-0.002605451524350792
1773789996390199800,10.73719970703125,0.04964285956919193,0.010957744171586818,0.0016772033640649168
1773789996410164700,10.757164794921875,0.03318389219939708,-0.0061307281572255306,0.004291176121588796
1773789996430130000,10.7771298828125,0.04410685275197029,0.0035978418288752432,-0.011068031579069793
1773789996450094800,10.7970947265625,0.041863457739353176,0.0020413148355670273,0.0039700452752877025
1773789996470060800,10.817060791015624,0.04066694143116474,0.0007915225537377409,0.006901102891657501
1773789996490026000,10.83702587890625,0.041567689663171765,-0.007168576455116271,0.007151013398962095
1773789996509991000,10.856990966796875,0.04500877002775669,-0.002199167711823247,-0.0037385654738172885
1773789996529955800,10.876955810546875,0.027951836764812468,-0.005253219236910809,0.014254315198678523
1773789996549920800,10.896920654296874,0.04800561375617981,-0.0005195646114065311,0.004549315601121634
1773789996569886000,10.916885986328126,0.04710661908984184,0.0006200955265667289,-0.0007434296452905982
1773789996589851000,10.936850830078125,0.035734161204099654,-0.0033034848250681533,-0.005419339901302009
1773789996609815800,10.95681591796875,0.04007423623502254,-0.0009988794108154251,0.002159817515546456
1773789996629781000,10.976781005859374,0.040973230901360506,-0.00038721150258788834,-0.0007498502529226243
1773789996649746000,10.996745849609376,0.03633446518480778,-0.0031173054700484497,0.0001441394447349012
1773789996669710800,11.0167109375,0.032442718443274496,-0.003762560554046649,0.0087796923130285
1773789996689675800,11.03667578125,0.035732407638430594,0.00022852180104819124,0.00837744078822434
1773789996709642000,11.05664208984375,0.037377836757898325,0.004369010006106691,0.003178602636652067
1773789996729607000,11.07660693359375,0.037675942921638485,-0.007220096579799429,0.0031114739508833734
1773789996749571800,11.09657177734375,0.040517303827404975,-0.003275523672485724,0.008002762256935239
1773789996769537000,11.116537109375,0.03887187470793724,-0.013679227857617661,0.003443263188516721
1773789996789502000,11.136501953125,0.04261339932382106,0.006108130449638702,0.000575114740524441
1773789996809467000,11.156466796875,0.05054536136686802,0.004144232798414305,-0.0002401836977340281
1773789996830679800,11.1776796875,0.01837152299284935,-0.013689459273975807,0.005100830270349979
1773789996850644700,11.197644775390625,0.04381050015389919,-0.007008469972980674,-0.0013871526426170021
1773789996870610000,11.21760986328125,0.042165071034431456,0.006387904088955838,0.003974602719396352
1773789996890574800,11.237574951171876,0.045156654065847394,-0.006326880916988011,0.0028427217457909137
1773789996910539800,11.257539794921875,0.03498188153207302,-0.005536844784149434,0.005199075613589957
1773789996930504700,11.277504638671875,0.046055064210295676,0.0028396187565405853,0.018234808802744373
1773789996950470000,11.297469970703125,0.03976911580860615,-0.0062871585446642704,-0.0043022637711837885
1773789996970435800,11.317435791015624,0.05054302327930927,-0.0005545628595515154,0.0004716817655134946
1773789996990400800,11.33740087890625,0.047098435783386225,0.0014030374816269614,0.006650169471045956
1773789997010366000,11.357365966796875,0.02854161935150623,-0.00689736286487896,0.0028871636757161465
1773789997030331000,11.377330810546875,0.055474634462594985,-0.014721658715791999,0.004940178082231432
1773789997050295800,11.3972958984375,0.04140986875295639,-0.007812091673177201,0.008011457020044327
1773789997070261000,11.417260986328126,0.03153261786103249,-0.009181617327558341,-0.010758901697816327
1773789997090226000,11.437225830078125,0.0369172335088253,-0.0017687198557076044,0.012883136443328112
1773789997110190800,11.45719091796875,0.042154549640417094,-0.004195709540613461,0.0007463065889663994
1773789997130155800,11.47715576171875,0.041706805872917176,0.004081277964264154,-0.0004176408901810646
1773789997150121000,11.497120849609376,0.044399698218703265,-0.0022280261968378907,0.004410564717557281
1773789997170086400,11.51708642578125,0.03961246394217014,-0.007577248587552457,-0.007796142902085557
1773789997190051300,11.53705126953125,0.05382920534312725,0.006656880056334194,0.009483694130228832
1773789997210016300,11.557016357421874,0.033329438149929044,-0.00393054894853849,-0.002240435870550573
1773789997229982500,11.576982421875,0.03213233731985092,-0.008742769252567086,0.006732358728628605
1773789997249947400,11.596947509765625,0.04185702799856662,-0.0022584601510083303,-0.0007994706814642995
1773789997269912300,11.616912353515625,0.031084289571642873,0.0003764138306491077,0.0025730288257822392
1773789997289877500,11.63687744140625,0.03138414930105209,-0.0008093801541253924,0.0068528250368311994
1773789997309842400,11.656842529296876,0.04634674063324928,-0.002426201950327959,-0.0059784716214053325
1773789997329807400,11.676807373046875,0.03991290819346904,0.0017694345250492914,-0.006138831548579037
1773789997349772500,11.6967724609375,0.04754442598521709,-0.004131829974567517,0.005360778114479035
1773789997369737500,11.716737548828124,0.055775663235783576,0.006188906351558398,0.0036333515336737033
1773789997389702400,11.736702392578126,0.041859950608015055,0.00652721437823493,0.006731491078948602
1773789997409667300,11.756667236328125,0.04949263744354248,-0.0120622256816132,0.008601267006201669
1773789997429632500,11.776632568359375,0.02689735927581787,-0.008582212962571065,0.0038320981093216684
1773789997449597400,11.796597412109374,0.04335808021128178,-0.007757872701331507,0.006328298839228227
1773789997469562400,11.816562255859376,0.052635027122497555,-0.004353267872636206,0.00453399930098094
1773789997489527600,11.836527587890625,0.036323943790793414,0.003020857074961532,-0.0027494448386132715
1773789997509492500,11.856492431640625,0.031085458615422248,0.003221763641654979,0.013778249518992378
1773789997529458200,11.876458251953125,0.04081424094736576,-0.013234461498493328,-0.007810070962738246
1773789997549423400,11.89642333984375,0.04859598086476326,-0.014962257972056976,0.005614707209775224
1773789997569388300,11.91638818359375,0.037521044620871545,-0.010003473370766732,0.007652578846085816
1773789997589353200,11.936353271484375,0.036623803520202634,-0.00673663532823557,-0.005990618716925382
1773789997609318100,11.956318115234374,0.04096387855112552,0.002521369420492556,0.008605760518228634
1773789997629283300,11.976283447265626,0.04171206656992435,0.0025761432314757257,0.010594979840377345
1773789997649248300,11.996248291015625,0.04305822048187256,-0.009829979967384134,0.005517649176623672
1773789997669213200,12.016213134765625,0.04589958138763904,0.0025865710106561892,0.0020645039149094374
1773789997689178400,12.036178466796875,0.04230886341929435,0.008608806425263174,0.007425008034752681
1773789997709143300,12.056143310546876,0.04186111965179443,0.010623683061765041,-0.002090770867327228
1773789997729108200,12.076108154296875,0.03901858970224857,-0.009624805934238248,0.00010134148262441158
1773789997749073200,12.0960732421875,0.0328828634262085,0.0032702515590353866,0.009414994541881605
1773789997769038300,12.116038330078124,0.038269817161560055,-0.010938703827688004,0.0013486746625974773
1773789997789003300,12.136003173828126,0.04635083228647709,-0.004607288299477659,0.0002378364770207554
1773789997808968200,12.15596826171875,0.03796937291026115,0.0028480692077660933,-0.005929554445762187
1773789997828933400,12.175933349609375,0.04335632664561272,-0.014378975908097344,0.010809937765309587
1773789997848899300,12.1958994140625,0.038567923325300214,-0.003697242516162805,-0.0021927060049958527
1773789997868864300,12.2158642578125,0.03243102800548076,-0.0069788077703677115,-0.0002732091845013201
1773789997888829400,12.235829345703126,0.02794131537079811,-0.006335612212715205,0.001121633574226871
1773789997908794400,12.25579443359375,0.039764439633488656,0.005255089250300079,0.0011645594005007297
1773789997928759300,12.27575927734375,0.03572305528819561,-0.0006766822687233798,0.003942417482845485
1773789997948724200,12.29572412109375,0.04140811518728733,-0.005742039366893005,0.0035698213107883928
1773789997968689400,12.315689453125,0.03841711667776108,-0.008606180643336847,0.011991822759946808
1773789997988654300,12.335654296875,0.04455284295380115,-0.005123507893038913,-0.00540817005331628
1773789998008619300,12.355619384765625,0.02749474064707756,-0.00738843203416327,0.0013128361642360687
1773789998028584400,12.37558447265625,0.03377952000498771,0.0017488141454174181,-0.01260877648135647
1773789998048549400,12.39554931640625,0.04515373145639896,-0.0012933345960336737,0.00537624054509215
1773789998068514300,12.415514404296875,0.047100189349055285,-0.007075078068941366,0.013217729559401049
1773789998088479200,12.435479248046875,0.0375227981865406,-0.018344004798261447,-0.00468109788778238
1773789998108444400,12.4554443359375,0.047699324285984036,-0.007255964760913047,0.005857429924467578
1773789998128409300,12.475409423828125,0.03483224392831325,-0.002822619672678411,-0.00892731148963794
1773789998148374300,12.495374267578125,0.038275077858567236,0.002993446194939315,-0.0022345541190356014
1773789998168339000,12.5153388671875,0.02211363213062286,0.001371089707093779,0.001258804422058165
1773789998188304000,12.535303955078126,0.02899754642546177,-0.006994151469971985,-0.005061055382387713
1773789998208269800,12.555269775390625,0.04411035988330841,-0.006136765172367449,-0.0016043573235627264
1773789998228235000,12.575235107421875,0.04725158051848411,-0.0009036457252805121,0.006395847650105133
1773789998248200000,12.595199951171875,0.032738486519455906,0.0012631792030762881,0.000773084998037666
1773789998268164900,12.615164794921874,0.03588146072030067,0.004903768761712126,0.0014833430260885506
1773789998288129800,12.6351298828125,0.04770341593921184,-0.003927222197002265,0.005652427137969061
1773789998308095000,12.655094970703125,0.044411388656497,0.0035692071061464957,0.006676920480653643
1773789998328060000,12.675059814453125,0.0421674091219902,-0.00035642592196818436,0.0036313331065233796
1773789998348024800,12.69502490234375,0.04216916268765926,-0.004760917091765441,0.00037465113182552157
1773789998367990000,12.714989990234375,0.03693184655606747,-0.004168177646293771,0.006781412901589646
1773789998387955000,12.734954833984375,0.04202186317145824,-0.009312760293402243,-0.0005511767425108701
1773789998407919900,12.754919921875,0.04082593138515949,0.0018539276208612136,-0.0021185539233963937
1773789998427884800,12.774884765625,0.04711071074306965,-0.004298583109909668,0.006092060664249584
1773789998447850000,12.79485009765625,0.0340939927816391,-0.00016429631677456199,-0.0019494353010319173
1773789998467815000,12.81481494140625,0.039031449183821676,0.003783256282203365,-0.0011269947359338402
1773789998487779800,12.83477978515625,0.04711246430873871,-0.010604724916256964,0.008812361606769263
1773789998507744800,12.854744873046876,0.04082943851649761,-0.0110581221064087,0.007342307320516556
1773789998527710000,12.8747099609375,0.044723523345589634,0.008945614331308752,0.004696395921614021
1773789998547675000,12.8946748046875,0.05130757791101932,-0.009112655161018482,0.0029222258559428154
1773789998567639800,12.914639892578125,0.03439911320805549,-0.003811546228348743,-0.011647804228402673
1773789998587606000,12.93460595703125,0.03589548924565315,0.0049181511968025005,0.0006285802271217108
1773789998607571000,12.954571044921876,0.03499707910120487,-0.005278593423473648,0.006230510153714567
1773789998627536000,12.974535888671875,0.04412497293055057,0.00023401196856284511,0.0021796821266412735
1773789998647501000,12.9945009765625,0.03709259007573128,-0.0077339392698951995,-0.004078401020588353
1773789998667466000,13.014466064453124,0.03933832317590713,0.0005987696107476949,0.00047880562604404983
1773789998687431000,13.034430908203126,0.040535424005985254,-0.0069936902456684035,-0.00427554016103968
1773789998707395800,13.054395751953125,0.036196518018841745,-0.010662451019440777,0.003445035020494833
1773789998727361000,13.074361083984375,0.054601358759403223,-0.001584890004689805,0.009439069537213072
1773789998747326000,13.094325927734374,0.034551088899374006,-0.007711590440769214,0.005022787464922294
1773789998767291000,13.114290771484375,0.03515080835819244,0.00504229131641332,0.004227289705676957
1773789998787256000,13.134256103515625,0.03305588190555572,-0.0034245242387172764,0.00648422918645665
1773789998807221000,13.154220947265625,0.040835868257284164,-0.005955225459847133,-0.0022670864154584703
1773789998827186000,13.17418603515625,0.04008884928226471,-0.0000617561076185666,-0.005797689960710704
1773789998847150800,13.19415087890625,0.0354489145219326,0.001699858153867535,0.01437925675259903
1773789998867116000,13.214115966796875,0.05385433978438377,0.001788468019082211,-0.0062550600730814036
1773789998887081000,13.2340810546875,0.04727086974084377,-0.004666654945543269,0.007158968376554548
1773789998907046000,13.2540458984375,0.05954115324914455,0.0004895085415046196,0.007616338488925248
1773789998927011000,13.274010986328125,0.027968203377723693,-0.0020939081059070303,0.005354165710601955
1773789998946976000,13.29397607421875,0.03829319803714752,-0.002176069964026101,-0.0016600878324825317
1773789998966941000,13.31394091796875,0.03604863398075103,0.005381766103580593,-0.0061447954984847454
1773789998986905900,13.33390576171875,0.05789513960778713,-0.001665292588918237,-0.007174558671331033
1773789999006871000,13.35387109375,0.03709434364140034,0.0020114585534203797,0.0005043967250268906
1773789999026836000,13.3738359375,0.05445055211186409,0.0067403022897779006,0.00963535016113892
1773789999046801000,13.39380078125,0.03185527394413948,-0.005139611927757505,-0.0008401497517246752
1773789999066765800,13.413765869140626,0.05295359155237674,-0.009005316620803205,0.005646417522290721
1773789999086731000,13.43373095703125,0.04263035045862198,0.010715860565466574,0.008978603285457938
1773789999106696000,13.453696044921875,0.027218261793255805,-0.007098627907887566,0.004580167397111654
1773789999126662000,13.473661865234375,0.040835868257284164,-0.004399940575554501,0.006323595264647155
1773789999146627000,13.493626953125,0.030810148805379866,-0.004804723125806777,-0.003678377985488623
1773789999166592300,13.51359228515625,0.04292962566614151,0.0077845460791257206,0.014344559898553415
1773789999186557200,13.53355712890625,0.04292962566614151,-0.0005881214942142833,0.0014729494962375611
1773789999206522000,13.553522216796875,0.042479543811082834,0.005945306854031514,0.006023123613884672
1773789999226487000,13.573487060546874,0.038439913031458856,-0.00994163506475743,-0.005245855631073937
1773789999246452200,13.5934521484375,0.04233049072921276,0.002010602320183534,-0.003615094357775524
1773789999266417200,13.613417236328125,0.03858955063521862,0.008922215189412235,0.004926140423724428
1773789999286382000,13.633382080078125,0.03739361884891987,-0.001897520167415496,0.005583398756058886
1773789999306347300,13.65334716796875,0.03275660669803619,0.005429287048225524,0.0026397282532881943
1773789999326312200,13.673312255859376,0.04428104027509689,-0.011347638538316824,0.008309937643120064
1773789999346277000,13.693277099609375,0.05146422977745533,-0.00432638899886515,-0.008496208329685033
1773789999366242000,13.713241943359375,0.04158756340742111,0.0027255193986871745,-0.00008249065168201923
1773789999386207200,13.733207275390624,0.036949382212758064,0.00023079024830367415,0.007803157164761796
1773789999406172200,13.753172119140626,0.038893502017855644,0.0030147378614288753,-0.014319799916632472
1773789999426137000,13.77313720703125,0.04861760817468166,0.0013180922946659846,0.005636489783320576
1773789999446102300,13.793102294921875,0.04756956042647362,-0.010151900831551756,0.00222218782780692
1773789999466067200,13.813067138671874,0.0457750782251358,0.0010009457870270124,0.005587974466476589
1773789999486032100,13.8330322265625,0.0432306544393301,-0.012373513270623516,0.002355495351273566
1773789999505997000,13.8529970703125,0.03709668172895908,0.0021727043965831397,0.0032922830110415813
1773789999525962200,13.872962158203125,0.042184944778680795,0.0013003671250189654,0.0034157632602378725
1773789999545927200,13.89292724609375,0.0492173276335001,-0.00172538303748006,-0.0068850376728456465
1773789999565892000,13.91289208984375,0.05221124875247478,0.007576757680496666,0.00963993500471115
1773789999585857300,13.932857177734375,0.04368132081627846,0.0039633278401335695,0.001755985955009237
1773789999605822200,13.952822265625,0.03290741334557533,-0.0024067917136708274,0.0034201197749469427
1773789999625787100,13.972787109375,0.03679682199954987,-0.0037518701966735533,-0.00506384099451825
1773789999645752000,13.992751953125,0.044427170747518535,0.003995816754072438,-0.008728044324181974
1773789999665717200,14.01271728515625,0.04547580301761627,-0.010551293678989168,0.004082273478107527
1773789999685682200,14.03268212890625,0.04517477424442768,0.0005350521581945941,-0.0029673619056120515
1773789999705647000,14.052647216796874,0.043079263269901275,-0.00028675136937526987,0.007843936699721962
1773789999725612300,14.0726123046875,0.05175649072229862,0.0034719207441317847,0.0011064634045585989
1773789999745577200,14.0925771484375,0.032303602233529086,0.007937371153815183,-0.005639403259614482
1773789999765542100,14.112542236328125,0.030507366466522214,0.006110479953640606,-0.003036609483230859
1773789999785507300,14.13250732421875,0.03694061438441276,-0.005349167591787408,0.01171204683734104
1773789999805472300,14.15247216796875,0.052951253464818,-0.006770393750653602,0.010693042520526795
1773789999825437200,14.172437255859375,0.04187865530848503,0.0027620919743436387,0.0018111776078119873
1773789999845402400,14.19240234375,0.05130640886723995,-0.0066861746494774705,-0.004659543643100187
1773789999865367300,14.2123671875,0.03335048093795776,0.0036307348849019035,-0.0027656470547430217
1773789999885332200,14.232332275390625,0.03739186528325081,-0.006687998997094109,0.0015114822751842439
1773789999905297200,14.252297119140625,0.041731940314173696,-0.001326590694952756,-0.004071752084093168
1773789999925262300,14.272262451171875,0.03050970455408096,0.006854377673100679,0.0023239768350031224
1773789999945228300,14.292228271484374,0.038739188238978386,-0.0021825316708534953,0.0029537443722132592
1773789999965193200,14.312193115234376,0.043078678748011585,-0.0006400240697432309,0.0025131518647074696
1773789999985158100,14.332158203125,0.04292787210047245,-0.004935764485306572,0.0025681425881106403
1773790000005123300,14.352123291015625,0.04756780686080456,0.006011163748032413,0.005363563726609573
1773790000025088300,14.372088134765624,0.048017888715863224,-0.0017745171255432069,0.0018260646496899425
1773790000045053200,14.39205322265625,0.04203296908736229,-0.002555803696345538,-0.01689313013651408
1773790000065018000,14.41201806640625,0.042182022169232364,-0.006685795623564627,0.018305599883478133
1773790000084983300,14.4319833984375,0.038591888722777364,-0.003428163800796028,0.0005560447138734161
1773790000104948200,14.4519482421875,0.03664659987390041,-0.00008207965972833335,0.002182056746818125
1773790000124913200,14.4719130859375,0.047422260910272594,-0.009192903623264283,0.0019253329062368719
1773790000144878300,14.49187841796875,0.025725392886996268,0.00720721084040706,-0.0003191124191507697
1773790000164843300,14.51184326171875,0.04368190533816814,0.00328153442980838,0.008075151639711111
1773790000184808700,14.53180859375,0.03245908505618572,-0.0106848603557155,0.0019266298141796142
1773790000204773600,14.551773681640626,0.042784664237499236,-0.00823478319781134,0.008049103883001953
1773790000224738800,14.57173876953125,0.037248072898387906,0.0040971422536764295,-0.008118269262230023
1773790000244703700,14.591703857421875,0.04787292728722095,-0.004349680826195981,-0.00399504271922633
1773790000264668700,14.611668701171874,0.03919569983482361,-0.009961619548505404,0.004726937190350145
1773790000284633600,14.631633544921876,0.03485679384768009,-0.005372281322604976,-0.0033880167367868123
1773790000304598800,14.651598876953125,0.04233808951377868,0.005568123555113561,-0.006040896732592955
1773790000324563700,14.671563720703125,0.033957799181342126,-0.013980288596847093,0.0005692786547821015
1773790000344528600,14.691528564453124,0.04877192195355892,-0.006326391151576536,-0.006632551615964621
1773790000364493800,14.711493896484376,0.035306291180849075,0.0015137815468362532,0.003278473681397736
1773790000384458800,14.731458740234375,0.029918752923607825,-0.003059309938806109,0.01035431208545342
1773790000404423700,14.751423583984375,0.040543022790551185,-0.011445013948588165,0.0028641024605371057
1773790000424388600,14.771388671875,0.030367081212997436,-0.00022532633860828353,-0.005479308193922043
1773790000444353800,14.791353759765625,0.03156593560874462,-0.009918667464412282,0.0028040793689899147
1773790000464318700,14.811318603515625,0.04473170665204525,-0.003130378439108608,0.004472323108464479
1773790000484283600,14.83128369140625,0.032311201018095016,0.0048124383580929134,0.0030539716099854558
1773790000504248600,14.85124853515625,0.04727496139407158,0.0059476985988731025,0.003943212067289278
1773790000524213800,14.8712138671875,0.025726561930775643,0.005463157351786503,0.004883908717194572
1773790000544178700,14.8911787109375,0.04652618885338306,-0.006712931367306737,0.004256798927951604
1773790000564143600,14.9111435546875,0.03485387123823166,-0.009140105998591752,-0.012432753194170072
1773790000584108800,14.93110888671875,0.04143734128177166,-0.0066247393439116415,0.0068897412474267184
1773790000604073700,14.95107373046875,0.031712066081166265,-0.0024766078301589004,-0.006819836082682013
1773790000624038700,14.97103857421875,0.04577858535647392,0.003979699019622057,-0.0003094952074345201
1773790000644003600,14.991003662109375,0.04009294093549251,-0.009118479830317664,0.001780371477594599
1773790000663968800,15.01096875,0.035305706658959386,0.0032572014228615443,-0.013298229183396324
1773790000683933700,15.03093359375,0.03261339883506298,0.004986321062187198,0.0035294893004000185
1773790000703898600,15.050898681640625,0.04398585672080516,-0.003159123901335988,0.0026836769928690043
1773790000723863800,15.07086376953125,0.04623042077720165,0.002822980432282202,0.006129588796198368
1773790000743828700,15.090828857421876,0.031415128961205484,0.007631532633124152,-0.006060651745833456
1773790000763793700,15.110793701171875,0.03755085523724556,-0.004355556869489374,-0.005058077974012121
1773790000783758600,15.130758544921875,0.03770107736289501,-0.001314330576645443,0.004626198495924472
1773790000803723800,15.150723876953125,0.04039572327435016,0.015149630345386685,0.007523472573701292
1773790000823688700,15.170688720703126,0.04054536087810993,0.008597037214011652,0.0026265582444611937
1773790000843653600,15.190653564453125,0.04817746319174766,0.0009216483144962694,-0.0008451181877870113
1773790000863618800,15.210618896484375,0.0397971728593111,-0.005790816120285308,0.003515844367537647
1773790000883583700,15.230583740234374,0.035008185017108916,0.00017748573355493136,-0.0033779063347261396
1773790000903548700,15.250548583984376,0.030218612653017042,-0.0028472746233223004,0.011851537506422028
1773790000923513600,15.270513671875,0.04158931697309017,0.006715766070142854,0.006116007795417681
1773790000943478800,15.290478759765625,0.030367665734887122,0.0064486178753140845,-0.0017146127650048582
1773790000963443700,15.310443603515624,0.03545534426271915,-0.0025329765182512346,-0.0008295826919376849
1773790000983408600,15.33040869140625,0.044132571715116496,0.003905432773591019,-0.01163509087730199
1773790001003373600,15.35037353515625,0.038297289690375325,-0.0050933445085713175,0.0019477548005990683
1773790001023338800,15.3703388671875,0.0339589682251215,0.0031155621791782323,-0.010406060538999735
1773790001043303700,15.3903037109375,0.03814882113039493,-0.003425756072934018,0.005761842329194769
1773790001063268600,15.4102685546875,0.03605214111208915,-0.007966783336322987,-0.003988996570929885
1773790001083233800,15.43023388671875,0.04173837005496025,-0.00027194424259942025,-0.0014346907119266688
1773790001103198700,15.45019873046875,0.04338496821820736,0.001876875813252991,0.0028481559727340936
1773790001123163600,15.47016357421875,0.03874503345787525,0.0024087416421622035,0.013692160404426976
1773790001143128600,15.490128662109376,0.03290916691124439,-0.003124955628608586,-0.004240468847658485
1773790001163093800,15.51009375,0.03739712598025799,0.00011796154057374223,0.00031871056035161015
1773790001183058400,15.530058349609375,0.04338438369631767,0.001689272827771492,0.007222982656629756
1773790001203022600,15.550022705078124,0.027371991050243377,-0.0020987817854911553,-0.0050013062854763115
1773790001222987500,15.569987548828125,0.03604980302453041,0.006448584767628927,0.0019959869896527377
1773790001242952700,15.58995263671875,0.04712357022464275,-0.0014672846571425907,0.0064347092226147646
1773790001262917600,15.609917724609375,0.023030746975541114,-0.003074879683984909,0.00442253828314133
1773790001282882600,15.629882568359376,0.05445405924320221,0.002532590642472496,-0.004517787951696664
1773790001302847500,15.649847412109375,0.03739595693647861,-0.01342514692362747,0.00950363180655986
1773790001322812700,15.669812744140625,0.05475450349450111,0.004928758214140543,0.001064670089446008
1773790001342777600,15.689777587890624,0.03156067491173744,-0.0029861316798080223,0.0054143897315487265
1773790001362742500,15.709742431640626,0.0406862306535244,-0.0019891850728192364,-0.009701428534137085
1773790001382707700,15.729707763671875,0.03829085994958877,0.004777673005388351,0.013144646056881175
1773790001402672600,15.749672607421875,0.041433834150433536,-0.002243455519765848,-0.002138363735564053
1773790001422637600,15.769637451171874,0.03724222767949104,0.0028460530639044007,0.00038216771800071
1773790001442602500,15.7896025390625,0.04068272352218628,0.0063799730858940164,-0.001028119205031544
1773790001462567700,15.809567626953125,0.04128127393722534,0.000121417297917651,-0.0037176779494155197
1773790001482532600,15.82953271484375,0.04621931486129761,0.00008656289695645682,0.014584506134269759
1773790001502497500,15.84949755859375,0.03529576978683471,0.0055242455974803305,0.006322800680203363
1773790001522462500,15.86946240234375,0.04382569772303104,-0.005141116614965722,-0.011383353739092127
1773790001542427600,15.889427734375,0.03888707227706909,0.005162314666621387,-0.002355376620264724
1773790001562392600,15.909392578125,0.034846272453665735,0.00868446319407085,0.0014304711945354938
1773790001582357500,15.929357421875,0.05010872351527214,-0.011005254841432907,-0.003183899866277352
1773790001602322700,15.94932275390625,0.043376200389862056,0.0063576151236135045,0.0004656721498351544
1773790001622287600,15.96928759765625,0.045321489238739014,-0.014897224203607765,0.009591008695913478
1773790001642252500,15.98925244140625,0.040083588585257526,0.0034244180657959076,-0.003668486779136583
1773790001662217500,16.009217529296876,0.041428573453426355,0.005012969323806464,-0.004293514209147542
1773790001682182700,16.0291826171875,0.04142798893153667,-0.001058781488065142,0.004733869254635647
1773790001702147600,16.049147705078123,0.049808279263973236,0.009270222626195755,-0.010878911348292603
1773790001722112500,16.069112548828127,0.025866262662410735,-0.007509840198926395,0.001839307723753154
1773790001742077700,16.08907763671875,0.04442132552862167,-0.0015570829740900079,0.00843881558664143
1773790001762042600,16.109042724609374,0.03708674485683441,0.0037314176387561017,-0.009823849337408319
1773790001782007600,16.129007568359373,0.03409340825974941,-0.004880718962976243,-0.003950966115482151
1773790001801971500,16.148971435546876,0.04441898744106292,-0.002702526682167081,0.010691891743056476
1773790001821936400,16.168936279296876,0.04007949693202972,0.0033543370878265704,-0.013370371970999986
1773790001841901600,16.188901611328124,0.03948094651699066,-0.0069362347121874335,-0.0027716840698849407
1773790001861866500,16.208866455078127,0.030204584127664563,0.0015500059209764003,0.00014686112478375435
1773790001881831400,16.22883154296875,0.040977907076478005,0.006067028970981482,-0.007459257364226504
1773790001901796600,16.248796630859374,0.049506081447005267,0.0016988135493185836,0.0069983801205176855
1773790001921761500,16.268761474609374,0.026162030738592145,0.007791352562536485,-0.0034513277639634907
1773790001941726500,16.2887265625,0.05040507611334324,-0.00667200570187415,0.0009349610288627445
1773790001961691400,16.30869140625,0.030951018580794333,0.009800780130719068,0.010602642557024955
1773790001981656600,16.328656494140624,0.03334638928472996,-0.006190276324737351,0.007228992272308096
1773790002001621500,16.34862158203125,0.04052782522141933,0.003054008142603561,-0.014562878824351354
1773790002021586400,16.36858642578125,0.028857261171936988,-0.00027242144992342215,-0.01220202231137082
1773790002041551600,16.388551513671874,0.04082885399460792,0.005904770489310612,-0.004021254872716963
1773790002061516500,16.4085166015625,0.044270518881082535,-0.0018199134701164439,-0.012978870169073342
1773790002081481500,16.4284814453125,0.04846037178635597,0.002528842624183744,0.007821989729395136
1773790002101446400,16.4484462890625,0.043221302089095116,0.0049458417796820866,0.003888632335839793
1773790002121411600,16.46841162109375,0.037984570479393,-0.009614837096072732,0.005068845963198692
1773790002141376500,16.48837646484375,0.03903261822760105,0.0015606232131132856,-0.004236221930803731
1773790002161341400,16.508341552734375,0.047264440000057216,-0.012024070786935044,0.00011157061569392681
1773790002181306600,16.528306640625,0.04127893584966659,0.004501441888383124,0.001794683130737394
1773790002201271600,16.548271484375,0.03409574634730816,0.007967942105303518,0.006181227651890367
1773790002221236500,16.568236572265626,0.034544659158587454,-0.0007925603084207978,0.0022721461830660697
1773790002241201700,16.58820166015625,0.026314006429910657,0.0005436087823414709,-0.002338251955527812
1773790002261166600,16.60816650390625,0.05564180772304535,-0.005695042436989024,0.009708890321385114
1773790002281131500,16.628131591796876,0.030801965498924253,0.003210331215476617,-0.0017813852577470242
1773790002301096400,16.648096435546876,0.040078912410140034,-0.00023482710260432213,-0.0029405834965407847
1773790002321061600,16.6680615234375,0.03768471074998379,-0.007918299985519843,-0.005070289001613855
1773790002341026600,16.688026611328127,0.031849428725242615,-0.002037829395470908,-0.0015149346075952052
1773790002360990500,16.707990478515626,0.04187514817714691,0.003987550107581774,0.0053681394370272755
1773790002380955400,16.727955322265625,0.028707623568177222,-0.0003626695747312624,-0.0024280765302944927
1773790002400920600,16.747920654296873,0.038733343020081516,0.0028263813906989526,0.008634639552840962
1773790002420885500,16.767885498046876,0.05040507611334324,-0.00622416831954033,0.011488576812390237
1773790002440850400,16.787850341796876,0.04247486763596534,-0.005109135732747381,0.0003439545994624495
1773790002460815400,16.8078154296875,0.02766191390752792,-0.004686263828311348,-0.006443760178750381
1773790002480780500,16.827780517578127,0.03589139759242534,-0.0011283567176025827,0.016772097572730852
1773790002500745500,16.847745361328126,0.025416765329241753,-0.008119095812714658,0.014378717896481975
1773790002520710400,16.86771044921875,0.047263270956277845,-0.005489474536554189,0.0081057842399925
1773790002540675600,16.887675537109374,0.04187690174281597,-0.009626336879265727,-0.003934636035189032
1773790002560640500,16.907640625,0.048911038163304325,0.0020068999676674136,-0.0011421923050656914
1773790002580605400,16.92760546875,0.043375031346082685,-0.017533422492671525,-0.001499682239536196
1773790002600570400,16.9475703125,0.035892566636204715,0.011200656399235594,-0.0014414127136580645
1773790002620535600,16.96753564453125,0.050855157968401905,0.00494494787218282,0.0031255024762358516
1773790002640500500,16.98750048828125,0.04023030357956886,0.007921581071283434,0.0007680069641210138
1773790002660465400,17.00746533203125,0.03454349011480808,-0.0018184612985467537,-0.0013875088356435298
1773790002680430300,17.027430419921874,0.030202246040105817,-0.005117989184416365,-0.004278773297742009
1773790002700395500,17.0473955078125,0.04471709360480308,-0.010652193345263367,-0.001122510357061401
1773790002720360400,17.0673603515625,0.03783317930996418,-0.006822779241728131,-0.012195619970047845
1773790002740324600,17.08732470703125,0.025115152034163472,-0.0016343220619193743,0.010924348792061209
1773790002760289500,17.10728955078125,0.04351940825283527,-0.008065006988320965,-0.0009660137542523443
1773790002780254700,17.127254638671875,0.0412742596745491,-0.017824029194901232,0.011048596226237713
1773790002800219600,17.1472197265625,0.033792964008450506,0.002356368709175149,0.011617116829194129
1773790002820184600,17.1671845703125,0.04247311407029628,0.00958304686845513,0.009903052053460851
1773790002840149800,17.187149658203126,0.04411854318976402,-0.005427210397215094,-0.0006900920228566974
1773790002860114700,17.20711474609375,0.04127659776210785,-0.006879231269855518,0.0019047011101618408
1773790002880079600,17.22707958984375,0.04696224218308925,-0.007868909027485643,0.011661175166629255
1773790002900044500,17.24704443359375,0.040378187617659565,-0.010659751030633925,-0.0036109753050841387
1773790002920009700,17.267009765625,0.04516659093797207,-0.012119234832166693,0.00385465700100176
1773790002939974700,17.286974609375,0.042921442359685896,0.0017964926369779277,0.0018096889036241918
1773790002959939600,17.306939697265626,0.03978022172451019,-0.0024114872967416884,0.0033757783097214996
1773790002979904500,17.326904541015626,0.049806525698304176,0.00034100459055043755,-0.006370247417967766
1773790002999869700,17.34686962890625,0.04157645749151707,0.001740846609737491,0.0021503190348390487
1773790003019834600,17.366834716796873,0.032298926058411594,0.006039018727693473,-0.0069839040705934165
1773790003039799600,17.386799560546876,0.04666472054123878,-0.002816653439484071,0.011100308147165923
1773790003059764700,17.4067646484375,0.03664017013311386,-0.0016058083534881006,-0.012903402913222088
1773790003079729700,17.426729736328124,0.04831307227015495,-0.0022079538064775986,-0.0017815770539920776
1773790003099693600,17.446693603515627,0.036492286095023155,0.0130268557629548,0.002816491325991228
1773790003119658500,17.466658447265626,0.048911622685194014,-0.0018620184541272464,0.0006122958126012235
1773790003139623700,17.486623779296874,0.03933423152267933,-0.006549651113973232,0.013347329022129997
1773790003159588600,17.506588623046873,0.03828559925258159,0.005923636161629111,0.0012900763431563972
1773790003179553000,17.526552978515625,0.03529343169927597,0.0038232492242299483,0.004791024535661563
1773790003199518000,17.54651806640625,0.034244799429178234,0.00919424505533534,-0.006946394204953685
1773790003219483000,17.56648291015625,0.04591770156621933,-0.009900914895301684,0.006589844985399395
1773790003239448000,17.586447998046875,0.04247545215785503,-0.0070905473494203754,-0.00611245499830693
1773790003259413000,17.6064130859375,0.04382219059169292,-0.0002880585521168541,0.014102321241050958
1773790003279378000,17.6263779296875,0.043672552987933155,0.006931096171122044,0.007783173822658136
1773790003299342800,17.6463427734375,0.04068096995651722,-0.002863741700933315,-0.008147139163687825
1773790003319308000,17.66630810546875,0.04427227244675159,-0.0018530462714494206,0.010546765917632728
1773790003339273000,17.68627294921875,0.0385860435038805,-0.01067056354394881,0.006187849188921973
1773790003359238000,17.70623779296875,0.041131051811575885,-0.0010624598660506307,-0.004235399946896359
1773790003379203000,17.726203125,0.037089667466282845,0.0026733405452338045,-0.0011752269249875097
1773790003399167000,17.7461669921875,0.03529343169927597,0.001366769725002814,0.0003509779952932149
1773790003419132000,17.7661318359375,0.032300679624080654,-0.002682231671165209,0.0032005861395969985
1773790003439096800,17.786096923828126,0.0426250897616148,0.008859093675191979,0.010894209382124244
1773790003459062000,17.80606201171875,0.03364566449224949,-0.002178586148098111,-0.006392440983466804
1773790003479027000,17.82602685546875,0.04262333619594574,-0.010485608031635637,0.002325438139727339
1773790003498991900,17.845991943359376,0.03738602006435394,0.003994070038269274,-0.004867368574347347
1773790003518956800,17.865956787109376,0.043969490107893944,-0.0011965665405383333,0.014367876842059195
1773790003538922000,17.885921875,0.03394318613409996,-0.001360088822466787,0.0012332955214660614
1773790003558887000,17.905886962890627,0.056987377113103865,-0.0019217960921465418,-0.003567702418938279
1773790003578851800,17.925851806640626,0.04157353488206863,-0.0017098909241147339,-0.0043819231449626385
1773790003598816800,17.945816650390626,0.031098318096995353,0.004492756258428562,0.002069910742389038
1773790003618782000,17.965781982421873,0.04995324069261551,-0.004281542926852126,0.0005099770824424922
1773790003638747000,17.985746826171876,0.045165421894192696,-0.006800149568100459,0.010773103753104805
1773790003658711800,18.0057119140625,0.03483984271287918,0.005522432666306849,0.004542420069454238
1773790003678676000,18.025676025390624,0.048904023900628084,-0.01843902385466499,-0.012108608406875282
1773790003698641200,18.04564111328125,0.04830430444180965,0.006952200607943814,0.0008414740591309964
1773790003718606000,18.065606201171875,0.04172083439826965,-0.001364812946645543,-0.006235323326149955
1773790003738571000,18.085571044921874,0.047856560674309725,0.0016287268631276673,0.003007419921364635
1773790003758536200,18.1055361328125,0.033192075505852695,0.009183229329332243,-0.0027141360632143914
1773790003778501000,18.125501220703125,0.03588496785163879,-0.007652012590505183,0.006899632453778759
1773790003798466000,18.145466064453124,0.033790041399002074,0.012301498347183222,-0.004628792311809957
1773790003818431000,18.165430908203124,0.039026188486814495,-0.006219591467478312,0.006077849475806579
1773790003838396200,18.185396240234375,0.03318915289640426,-0.0038979047709726726,-0.011504979957919567
1773790003858361000,18.205361083984375,0.037380174845457075,-0.0004332631509983912,-0.008494783557578921
1773790003878326000,18.225325927734374,0.040222704795002936,-0.00767186350186821,0.013837130966223776
1773790003898291000,18.245291015625,0.05129705651700496,-0.0034262389884795992,-0.007174631736567244
1773790003918255000,18.265255126953125,0.04695698148608207,-0.007755788058810867,0.0073812510914169245
1773790003938220000,18.285219970703125,0.0316933613806963,0.0016137895888998172,-0.00334705453873612
1773790003958185000,18.30518505859375,0.045159576675295826,-0.003934425972634926,-0.004764584053307771
1773790003978150000,18.32514990234375,0.045158407631516455,-0.01263581518533174,0.0008365056230686604
1773790003998115000,18.345114990234375,0.0361807359278202,-0.001454751685843803,-0.0034102833675220606
1773790004018080000,18.365080078125,0.04785129997730255,-0.00722629570843419,-0.0010846990973223
1773790004038045000,18.385044921875,0.04575637352466583,0.0054116086859954515,0.018819230227731167
1773790004058010000,18.405010009765626,0.04575637352466583,-0.006010697957151569,0.0023274839663412423
1773790004077975000,18.42497509765625,0.04441021961271763,0.006075929230067413,-0.0018778953016269952
1773790004097940000,18.44493994140625,0.028099136281013487,-0.0030945707651437258,-0.007653747889865189
1773790004117905000,18.46490478515625,0.04081716355681419,-0.000592081858345773,-0.008063013677345588
1773790004137870000,18.4848701171875,0.0328869550794363,0.00026449615508317945,-0.00016819617375731468
1773790004157834000,18.504833984375,0.03977203841805458,-0.009639197502483147,0.0004742847145535052
1773790004177799200,18.524799072265626,0.044862055033445356,-0.007348125139949843,0.0001487882203888148
1773790004197764000,18.54476416015625,0.03483750462532043,-0.008802317420078906,-0.0029220157933887094
1773790004217729000,18.56472900390625,0.030498598638176916,0.0006225980109069496,-0.0013102514815051109
1773790004237694000,18.58469384765625,0.03857902924120426,0.003640080385270994,-0.007455430572479963
1773790004257659100,18.6046591796875,0.03618365853726864,-0.00806405257367296,-0.005902273713191971
1773790004277624000,18.6246240234375,0.04680734388232231,0.001993995961965993,-0.0010562949867453425
1773790004297589000,18.644589111328123,0.03274199365079403,-0.0054963597934227434,0.000961164049198851
1773790004317554000,18.664553955078127,0.04082300877571106,-0.0014275828344165347,0.00691452862881124
1773790004337519000,18.68451904296875,0.037381928411126135,-0.010732488614926114,-0.0009129866590723395
1773790004357484000,18.704484130859374,0.04366670776903629,0.00730579753529746,0.002979773862613365
1773790004377448200,18.7244482421875,0.02870294739305973,-0.004420976513717323,-0.008998942820588126
1773790004397413000,18.7444130859375,0.03259235604703426,-0.015201852581324055,0.0060816580012440676
1773790004417378300,18.76437841796875,0.03648410278856754,0.0014908573289751075,0.006440746237756684
1773790004437343200,18.78434326171875,0.035138533398509024,-0.004636717606650199,0.0034098632424138485
1773790004457308200,18.80430810546875,0.04471534003913402,0.006141977920313365,0.009060883874585852
1773790004477273300,18.8242734375,0.044865562164783476,-0.0049969863033853465,0.0028979590643662956
1773790004497238300,18.84423828125,0.04366670776903629,-0.005859683530346956,0.005578475985769182
1773790004517203200,18.864203125,0.04785597615242004,-0.013279624947626143,-0.00003298895414918661
1773790004537168100,18.884168212890625,0.03648410278856754,-0.0022613576442818157,0.009049586162436753
1773790004557133300,18.90413330078125,0.04291910427212715,0.005352571975137107,0.0023980832508299498
1773790004577097200,18.92409716796875,0.03828209212124348,-0.0029811849349876862,0.005142048196727409
1773790004597062100,18.944062255859375,0.028703531914949416,-0.004620750569249503,0.0037485023459419608
1773790004617027000,18.964027099609375,0.03947743938565254,-0.003933014900260605,0.006299858196033165
1773790004636992300,18.9839921875,0.04725917930305004,-0.0026446213408256878,0.007893630193499849
1773790004656957200,19.003957275390626,0.037982816913723946,-0.0023733735012589022,0.004196090849814936
1773790004676922000,19.023922119140625,0.04307107996344566,-0.008852572602860164,0.011180332847125827
1773790004696887000,19.043886962890625,0.03783317930996418,-0.0020575033519649876,0.006585269274981692
1773790004716852200,19.063852294921876,0.029304420417547224,-0.0020715273107402028,-0.007055973792960867
1773790004736817200,19.083817138671876,0.050851650837063785,-0.004480097706255037,0.01050957571240142
1773790004756781000,19.103781005859375,0.040676878303289414,-0.012628650225605815,0.004626563822105526
1773790004776746000,19.12374609375,0.04800912088751793,-0.012472811209922656,-0.0015268716405611484
1773790004796711200,19.143711181640626,0.05025310042202472,-0.003442374989239033,-0.004600351668614894
1773790004816676000,19.163676025390625,0.04366787681281566,-0.004216067342052702,0.0022154658260755238
1773790004836641000,19.18364111328125,0.04411678962409496,-0.0025917426594067364,-0.004660155564453453
1773790004856606000,19.20360595703125,0.03633680327236652,-0.009867400784767232,-0.01043740552533418
1773790004876571100,19.223571044921876,0.04471475551724434,-0.012892386045574675,0.009275092880846932
1773790004896536000,19.2435361328125,0.04606207847297191,0.0005731419791467487,-0.003198987837554887
1773790004916501000,19.2635009765625,0.04247019146084785,0.00017181975281564517,0.004180811082292348
1773790004936466200,19.283466064453126,0.039026773008704184,-0.0017892352040624244,-0.0009869743438903243
1773790004956430000,19.30343017578125,0.043965398454666134,-0.0014336518155992962,-0.00026339104338549076
1773790004976395000,19.32339501953125,0.05054945302009582,-0.0025271621237508953,0.0012238427065312861
1773790004996360000,19.34335986328125,0.04007423623502254,-0.001929152848117519,0.010834478551521897
1773790005016325000,19.3633251953125,0.03947451677620411,-0.01152315493542701,0.0012158603294752538
1773790005036290000,19.3832900390625,0.03663198682665825,-0.003937841772427782,-0.0006043591013178229
1773790005056255000,19.4032548828125,0.04725684121549129,-0.004863306603871752,0.0036967082266230133
1773790005076220200,19.42322021484375,0.0379804788261652,-0.0009312643845682031,-0.0029735450512263922
1773790005096185000,19.44318505859375,0.04306874187588691,-0.002955242209555581,0.0013419800603296608
1773790005116150000,19.46314990234375,0.03304302242398262,-0.0014895124719711019,-0.0027022629623301327
1773790005136114200,19.4831142578125,0.03783025670051574,-0.01790617506999988,-0.0011706694808788598
1773790005156079000,19.5030791015625,0.05488952805101871,-0.0029874274461064486,0.005512625941634178
1773790005176044800,19.523044921875,0.01822773060798645,-0.004552025864727329,0.004821465339697897
1773790005196009700,19.543009765625,0.03857902924120426,-0.00675012043089373,0.0040296665080357345
1773790005215974700,19.562974609375,0.04605974038541317,-0.012792268405656795,0.002175946666439995
1773790005235939600,19.582939697265626,0.03423953873217106,-0.005733166507270652,0.0039055834706407037
1773790005255904800,19.60290478515625,0.04800561375617981,-0.007932178955466952,0.0018110314773395657
1773790005275869700,19.62286962890625,0.04142272823452949,-0.015863682057498954,-0.000023901465395465493
1773790005295833600,19.64283349609375,0.04755670094490051,0.0010880167157039976,0.004207123700482771
1773790005315798500,19.662798583984376,0.02990121726691723,0.000617161500675138,0.010679415853973478
1773790005335763700,19.682763671875,0.027805121770501134,-0.0018341680410434492,-0.002133267435338348
1773790005355728600,19.702728759765623,0.047107788133621216,-0.0007096872058929875,0.00959729230622761
1773790005375693600,19.722693603515626,0.039324879172444344,-0.005083438460843172,0.0012044438863173126
1773790005395658500,19.742658447265626,0.036330958053469656,-0.0028798069197451693,-0.008443363897595554
1773790005415623700,19.762623779296874,0.03513327270150184,-0.005390606997162103,0.001451979773445055
1773790005435588600,19.782588623046873,0.04411152892708778,-0.004838998713099863,-0.003930516982497647
1773790005455552500,19.802552490234376,0.04830021278858185,-0.0012220046591828577,-0.0037245734810829162
1773790005475517400,19.822517333984376,0.04665244558155537,0.005186544925579801,0.009534456203086301
1773790005495482600,19.842482666015623,0.041564182531833645,-0.0042309178513125515,-0.005377573985652998
1773790005515447600,19.862447509765627,0.0524894811719656,-0.005594778666598722,0.0022758359774947166
1773790005535412500,19.88241259765625,0.035730654072761533,-0.008313314627006184,0.01865867850431241
1773790005555377700,19.902377685546874,0.03139116356372833,-0.008937058848806191,0.011768909857422113
1773790005575342600,19.922342529296873,0.06056932725310325,-0.003967538224370218,0.008434075479442252
1773790005595307500,19.9423076171875,0.04336100282073021,-0.010033512316003907,0.0103767979118973
1773790005615271700,19.962271728515624,0.033784196180105204,-0.003592421301663853,0.015762628269242122
1773790005635236600,19.982236572265624,0.04276245240569115,-0.007553698748606257,0.0024171167448628693
1773790005655201800,20.002201904296875,0.02944529019296169,0.0010537628196529113,-0.00031126703941263255
1773790005675166700,20.022166748046875,0.03513210365772247,-0.019136413267988244,0.018644786976277826
1773790005695131600,20.042131591796874,0.04979834239184856,0.004227390170376748,-0.002418203590251505
1773790005715096800,20.062096923828125,0.049798926913738245,-0.007883718437550122,0.004721585161797702
1773790005735061800,20.082061767578125,0.03753098149299621,-0.00009205763104837388,-0.00638070487990044
1773790005755026700,20.102026611328125,0.0501017092525959,-0.008463395188760478,0.001308059524418786
1773790005774990600,20.121990478515624,0.04725859478116035,-0.012985503122548106,-0.0031726386867463588
1773790005794955800,20.141955810546875,0.037084406769275664,0.007297650761459953,-0.004116568473353982
1773790005814920700,20.161920654296875,0.04681026649177074,0.001596795071614906,-0.009772676272597163
1773790005834885600,20.1818857421875,0.033494857844710346,-0.004346022997808177,0.0011184369701426476
1773790005854850600,20.2018505859375,0.03095160310268402,-0.009193602309585549,0.004069487061770633
1773790005874815700,20.221815673828125,0.04457096313238144,-0.0006304639402427711,-0.004012888903170824
1773790005894780700,20.24178076171875,0.050256023031473154,-0.0004795933606219478,-0.0005117671807296574
1773790005914745600,20.26174560546875,0.028408932882547377,0.003259652533207554,-0.00004208557605743408
1773790005934709500,20.28170947265625,0.05265080921351909,-0.0099190807396546,-0.0022082506339997053
1773790005954674700,20.3016748046875,0.03364800257980823,-0.002073920197226107,-0.006442015746235847
1773790005974639600,20.3216396484375,0.0429255340129137,-0.009008126207464374,-0.0026928740794770418
1773790005994604500,20.3416044921875,0.051604515030980104,-0.00535996526372619,0.001175930177886039
1773790006014569500,20.361569580078125,0.04951192666590214,0.0030103516639675945,0.0041818522619083524
1773790006034534700,20.38153466796875,0.03409749991297722,0.003609888459695503,0.006102353729400783
1773790006054499600,20.40149951171875,0.03978548242151737,-0.00669147872896865,-0.0007304605658631771
1773790006074463500,20.42146337890625,0.04292962566614151,-0.007233314537687692,0.005558273447956889
1773790006094428400,20.441428466796875,0.029762685579061508,0.0003293826514156535,-0.009639396148594095
1773790006114393600,20.4613935546875,0.03455225794315338,0.0028831519375904463,-0.014051915361220016
1773790006134358500,20.481358642578126,0.048317748445272445,-0.0012098164644674398,-0.00876606564647518
1773790006154323500,20.501323486328126,0.03634674014449119,-0.011925557157280855,0.000970041475398466
1773790006174287600,20.52128759765625,0.030661095723509786,-0.0008246941709774546,-0.0025350988350342956
1773790006194251500,20.54125146484375,0.03829261351525783,0.00001471579523058608,0.005132275721384212
1773790006214216700,20.561216796875,0.0341027606099844,-0.0004385489641805179,-0.002070266935415566
1773790006234181600,20.581181640625,0.040537177571654315,-0.002486375738924835,-0.007446717543061822
1773790006254146600,20.601146484375,0.042483050942420955,-0.013253650256153195,-0.0000046761751174926755
1773790006274111500,20.621111572265626,0.03814122234582901,0.0026764298347523433,0.001938712977617979
1773790006294076700,20.64107666015625,0.0317062208622694,0.0019453596308245322,0.010249856197135523
1773790006314041600,20.66104150390625,0.027964111724495887,-0.001994107843108941,-0.0008946838174015283
1773790006334006500,20.681006591796876,0.03185527394413948,-0.005163132083951495,0.001305913233105093
1773790006353970400,20.700970458984376,0.03798983117640018,0.001972336686006747,-0.004183222235087305
1773790006373935600,20.720935546875,0.029910569617152213,-0.0027857970769167876,-0.000534764463827014
1773790006393900500,20.740900634765627,0.02437280923426151,0.0017123568758368492,0.0056870052610058335
1773790006413865500,20.760865478515626,0.04157996462285518,-0.011364781469362787,0.005016512987762689
1773790006433830400,20.780830322265626,0.05534603964686394,-0.004860520991741214,-0.00018085472593083976
1773790006453795600,20.800795654296873,0.03768821788132191,-0.0069418938430608245,-0.016287346263090148
1773790006473759700,20.820759765625,0.04561784183681011,0.00343844544950407,0.004433635065890848
1773790006493724700,20.840724609375,0.03274900791347027,-0.011254937019874341,0.00863965365467593
1773790006513689600,20.860689697265624,0.03963292220830917,-0.008649711541098077,0.0081397139090579
1773790006533654800,20.88065478515625,0.04546820423305034,-0.009945107946766073,0.0028155140784569084
1773790006553619700,20.90061962890625,0.05324994415044784,-0.0022709017907618545,0.00021118593211285767
1773790006573584600,20.920584716796874,0.03768938692510128,-0.0005105890037957579,0.004612672294070944
1773790006593549800,20.9405498046875,0.040083004063367844,0.008759357344475574,0.013617067607911303
1773790006613513700,20.960513671875,0.035145547661185265,0.0010010736511903815,0.008338232155842706
1773790006633478700,20.980478759765624,0.03349953401982784,-0.004806397918018047,-0.0076711556823924176
1773790006653443600,21.000443603515624,0.023774843341112135,-0.013356290930008981,0.0040504535677377135
1773790006673408500,21.020408447265623,0.04995967043340206,-0.00905780371822184,0.004297258802503347
1773790006693373700,21.040373779296875,0.04786474398076534,-0.008893575900106225,0.0021954459513537587
1773790006713338600,21.060338623046874,0.033948446831107135,0.006512535115622449,0.0016292817022651434
1773790006733302500,21.080302490234374,0.04816401918828487,0.004595442598056979,0.007294476990262046
1773790006753267500,21.100267333984377,0.029309096592664716,-0.0008965698138112202,0.0006166705936193465
1773790006773232600,21.120232666015625,0.045920039653778076,0.0029847171825007532,-0.0027622038554865865
1773790006793197600,21.140197509765624,0.03963526029586792,-0.010185284794634207,0.012955279230931774
1773790006813162500,21.16016259765625,0.03903729440271854,-0.001415248509228695,-0.001608412444172427
1773790006833127400,21.18012744140625,0.03903846344649792,-0.007683864466915838,0.006717983143404126
1773790006853091800,21.200091796875,0.03155716778039932,-0.001713571585388854,0.0050131063211243596
1773790006873056800,21.220056884765626,0.043080432313680646,-0.003362213291961234,0.005665944206668064
1773790006893021700,21.240021728515625,0.037545010018348694,0.0031404808496590703,-0.0014313479773700236
1773790006912986600,21.259986572265625,0.029316110855340957,-0.011390699078619945,0.0037382823460269717
1773790006932951800,21.279951904296876,0.04098901299238205,-0.008537362323980778,0.00009378836383111774
1773790006952916700,21.299916748046876,0.037249826464056966,-0.0036883239907678214,0.008962656797654926
1773790006972880600,21.319880615234375,0.04772445872724056,-0.00944385302689625,-0.008413918607402593
1773790006992845600,21.339845458984374,0.03380816157758236,-0.0006990607806015759,-0.005888564848247915
1773790007012810800,21.359810791015626,0.03410626774132251,-0.0060844025141792366,0.0031893797589931635
1773790007032775700,21.379775634765625,0.044131402671337125,-0.00166983290836215,0.004432712617283687
1773790007052740600,21.39974072265625,0.04832242462038994,-0.0006222030019736849,-0.0032893147358205167
1773790007072705500,21.41970556640625,0.04757657468914985,-0.001863501450093463,0.004805847645457834
1773790007092669700,21.439669677734376,0.042190789997577666,0.0032549603750696406,0.001411921757692471
1773790007112634600,21.459634521484375,0.041294133418798444,-0.008366309756145347,-0.013184603607933968
1773790007132599600,21.479599609375,0.037703415450453755,0.002920015632547438,0.003713467565178871
1773790007152564500,21.499564453125,0.049822892311215394,-0.002958103170210961,-0.004425022501172497
1773790007172529400,21.519529296875,0.039647535255551335,0.005093352500081528,0.00293373363064602
1773790007192494300,21.539494384765625,0.024684359401464462,0.00857145182325039,0.005431021205941215
1773790007212458500,21.55945849609375,0.04832651627361774,-0.003258688985405024,-0.006943763856450095
1773790007232423400,21.57942333984375,0.04189209931194782,-0.004735090814053547,0.0019150307079311459
1773790007252388400,21.599388427734375,0.029772622451186177,-0.002618384071160108,0.0021007716715335844
1773790007272353500,21.619353515625,0.04728080661296844,0.0033105927025782874,0.0028333511292468754
1773790007292318500,21.639318359375,0.041594577670097346,0.0031554295403300784,0.001484466404095292
1773790007312283400,21.659283447265626,0.027528058394789695,-0.004768036385718733,0.000920996435591951
1773790007332247600,21.67924755859375,0.041894437399506566,0.006925362833368126,-0.0039574689215049145
1773790007352212500,21.69921240234375,0.04458732974529266,-0.0035197350913658736,0.002519627271266654
1773790007372177700,21.719177734375,0.026930677023530004,-0.00658737903367728,-0.009939767334656789
1773790007392142600,21.739142578125,0.03845335703492164,-0.00657541916782502,0.0002115695246029645
1773790007412107500,21.759107421875,0.034711832419037816,-0.005348272542643826,-0.002580545411957428
1773790007432071400,21.779071533203126,0.03112052992880344,-0.007141357371339108,0.0014473035983275622
1773790007452036400,21.799036376953126,0.03545943591594696,-0.0016492992936982772,-0.001604010263690725
1773790007472001500,21.81900146484375,0.05416413638591766,-0.006578366893448401,0.004385220213746652
1773790007491966500,21.838966552734377,0.03979775738120079,-0.0011768160938750952,-0.003621843758970499
1773790007511931400,21.858931396484376,0.040544191834330556,-0.017645195179409347,-0.00020871998039074242
1773790007531896600,21.878896484375,0.03485854741334915,-0.0036541682761278933,-0.0017412815762218087
1773790007551860500,21.898860595703123,0.0384510189473629,-0.004914141741965431,0.008032974732108414
1773790007571825400,21.918825439453126,0.055061377486586564,0.0015828898438485339,-0.0028175690382253376
1773790007591790300,21.938790283203126,0.03531038283407688,-0.00996698413514532,-0.0027118345082737506
1773790007611755300,21.95875537109375,0.028428222104907034,-0.011021525556221604,-0.0062342912796884776
1773790007631720400,21.978720458984377,0.04204582856893539,0.0018558958156616426,0.006584401625301688
1773790007651684600,21.9986845703125,0.03830488847494125,-0.0007746399175957776,0.01075821671122685
1773790007671649500,22.0186494140625,0.03725684072673321,0.008817549238540232,-0.0013188731793779879
1773790007691614500,22.038614501953123,0.03785539114177227,-0.012517157241725363,0.014103079292876646
1773790007711579600,22.05857958984375,0.033217794468998904,-0.007096209905226715,0.004301615317212418
1773790007731544600,22.078544677734374,0.0384551106005907,-0.0030349312660866417,0.0007107694847043603
1773790007751509500,22.098509521484374,0.037407062852382655,-0.006519156652654055,0.003283734378404915
1773790007771473400,22.118473388671877,0.03142331226766109,-0.008259465547918806,0.00661665079393424
1773790007791438600,22.1384384765625,0.05356909310221672,-0.001257146754511632,0.00664024173207581
1773790007811403500,22.158403564453124,0.04952829327881336,-0.002470990940125193,0.006541621929500252
1773790007831368400,22.178368408203124,0.03755728497803211,-0.0065688821124727835,0.0026678401029203084
1773790007851333400,22.19833349609375,0.046534956681728364,0.0007139295561704785,-0.0014914076015353202
1773790007871297500,22.218297607421874,0.04309270727336406,-0.007103662559320219,-0.0005290105764754116
1773790007891262500,22.238262451171874,0.03396364440023899,-0.002490627222356852,-0.006101449547102675
1773790007911227400,22.258227294921873,0.051771103769540784,-0.008967805613519158,0.009649807944754138
1773790007931192300,22.2781923828125,0.046833062845468516,-0.0024748816639534195,-0.005740836073784158
1773790007951157500,22.298157470703124,0.03291676569581031,0.004080809890094679,0.0006897814956028014
1773790007971122400,22.318122314453124,0.04473872091472149,-0.0070297684893361285,0.006972743355762213
1773790007991086600,22.338086669921875,0.05147065951824188,-0.010987899564544204,0.008856922267703338
1773790008011051500,22.358051513671874,0.0387514631986618,-0.005547573957429267,0.013211875207349658
1773790008031016700,22.3780166015625,0.047131169009208676,-0.010020835497521328,-0.004016925757471472
1773790008050981600,22.397981689453125,0.0427905094563961,-0.0019497207121108658,0.0014258406851906328
1773790008070946600,22.417946533203125,0.051469490474462504,0.0022111412774072957,0.006822457298031076
1773790008090910500,22.437910400390624,0.0394967286080122,-0.008351395314803813,0.0058956978419329965
1773790008110875400,22.45787548828125,0.043237668702006335,-0.008254759690049103,-0.0011596731628291308
1773790008130840600,22.477840576171875,0.04308744657635689,-0.006796813683409709,0.0003615998540073633
1773790008150805500,22.497805419921875,0.03455810316205025,-0.006766092034871689,0.012954219785006715
1773790008170770400,22.5177705078125,0.047425768041610715,0.0024487220261013133,-0.002389397620875388
1773790008190736000,22.53773583984375,0.03186404177248478,0.0015004973735776729,-0.003925859073689207
1773790008210699800,22.55769970703125,0.03291092047691345,-0.0023821481794700956,0.003288026961032301
1773790008230665000,22.5776650390625,0.03126432231366634,0.01013640871818643,0.007201264015166089
1773790008250630000,22.5976298828125,0.05056698867678642,-0.003575792110559996,0.004553918711002916
1773790008270594800,22.6175947265625,0.04293605540692806,-0.01410682388623245,0.0056018659945111715
1773790008290559700,22.637559814453127,0.037999183526635165,-0.007159009475749917,0.015222667040489614
1773790008310523600,22.657523681640626,0.04069324491620063,-0.007958354576339479,0.0027517372603993863
1773790008330488800,22.67748876953125,0.04428454740643501,-0.008342643469478935,0.0009319562210235744
1773790008350453800,22.697453857421873,0.027974633118510246,-0.0075382203349727206,-0.0023795155476778744
1773790008370418700,22.717418701171876,0.04338613726198673,-0.015204599377547855,-0.009782640544185414
1773790008390383900,22.7373837890625,0.04533259515464306,-0.00415068080550991,-0.003878750262642279
1773790008410348800,22.757348876953124,0.05161971260011196,-0.0035529341080691662,-0.0015294197906740008
1773790008430313000,22.77731298828125,0.042642040896415705,0.007045436415926087,0.0020005535669159144
1773790008450278000,22.79727783203125,0.04354162008464336,0.006953321702661924,-0.009813117880839854
1773790008470243000,22.8172431640625,0.05102291575074196,0.0013404182909056543,-0.008868557906569912
1773790008490208000,22.8372080078125,0.030522564035654065,-0.0022669380016974174,0.0017540679925587028
1773790008510173000,22.8571728515625,0.04548749345541,-0.007934229348658117,-0.01222748554619029
1773790008530136800,22.87713671875,0.041297640550136565,0.015616701009508687,-0.006568217675480991
1773790008550101800,22.897101806640624,0.026035774010419843,-0.003769558833702467,-0.010389027205808088
1773790008570067000,22.91706689453125,0.04773498012125492,-0.0023034432203392495,0.0016301128193270415
1773790008590032000,22.937031982421875,0.042048166656494135,-0.004695818249590229,0.0006229085381608456
1773790008609996800,22.956996826171874,0.048483168140053746,0.0057874357114662415,-0.000013717998098582029
1773790008629962000,22.9769619140625,0.038755554851889605,-0.020202377982088363,-0.002484692955203354
1773790008649926000,22.99692578125,0.03666121292114258,-0.007877736221335363,-0.009535570447938516
1773790008669890800,23.016890869140624,0.03860650177001953,-0.004934189016150776,-0.003106834308383986
1773790008689855700,23.036855712890624,0.03815817348062992,-0.002652313740225509,-0.0006273563844151794
1773790008709820700,23.056820556640623,0.04085223487019539,-0.003906786763749551,-0.004415944145573303
1773790008729785900,23.076785888671875,0.04578969127237797,0.0014285509487963282,0.005367911108164116
1773790008749750800,23.096750732421874,0.05027823486328125,0.0007338535327697173,0.011521182174049318
1773790008769715000,23.11671484375,0.041298809593915936,-0.0024565468562417663,0.003219537435239181
1773790008789679900,23.136679931640625,0.05102642288208008,0.0022193702496355397,0.0056517330182250585
1773790008809645000,23.15664501953125,0.040702597266435624,-0.021528340772667433,0.0033648824563715604
1773790008829610000,23.17660986328125,0.04055295966267586,-0.000605018971732352,0.003209427033178508
1773790008849575000,23.196574951171876,0.040105800417065615,0.007428597364481538,0.001698949404992163
1773790008869538800,23.216538818359375,0.030978491109609603,-0.012212418124510441,-0.007766167888930067
1773790008889504000,23.23650390625,0.048335868623852724,0.001919410055526532,0.00037181985392235217
1773790008909469000,23.256468994140626,0.04175122953653335,0.0024715549124171956,0.00247744123050943
1773790008929433900,23.276433837890625,0.03097907563149929,-0.0041395109575241805,0.00041751302601769565
1773790008949398800,23.296398681640625,0.03726268594563007,-0.00998892197231762,0.0034784806323703375
1773790008969364000,23.316364013671876,0.047588265126943585,-0.006052943363413214,-0.010298207117198034
1773790008989328000,23.336327880859375,0.03621697628498077,0.0014508678118814713,0.0066539962627924975
1773790009009292800,23.356292724609375,0.04235270256102085,-0.008892516454181168,-0.006140813443111255
1773790009029257700,23.3762578125,0.038462124863266944,-0.009283465700258967,0.001951344130327925
1773790009049223000,23.396222900390626,0.028736265140771863,-0.016468027459084985,0.0068767904343083495
1773790009069187800,23.416187744140625,0.045047348472476004,-0.0034480238453135823,0.0029266280364245176
1773790009089152800,23.43615283203125,0.037864743492007254,-0.000531321264570579,-0.023702225629473102
1773790009109116700,23.45611669921875,0.03696750239133834,-0.0034764165394473817,0.004224842020263895
1773790009129081900,23.476081787109376,0.04400222333371639,-0.01989085293106036,-0.001699077269155532
1773790009149046800,23.496046875,0.025896657800674436,-0.0030547433615429327,-0.012547520413948222
1773790009169011700,23.51601171875,0.04968903679847717,0.007103575794352218,-0.00002363660391420126
1773790009188976600,23.5359765625,0.0443026675850153,-0.0006714329881593585,-0.00047749045179225504
1773790009208941800,23.55594189453125,0.04430383662879467,-0.014597292550606652,0.0021489673279691487
1773790009228905700,23.57590576171875,0.0398147085160017,-0.004048282160249073,-0.0017815679208375514
1773790009248871000,23.595870849609376,0.03697334761023521,0.00031351607871474697,-0.005330985764414072
1773790009268835800,23.6158359375,0.04490414060950279,0.005441117908270098,-0.00772085830932483
