time,seconds_elapsed,z,y,x
1773789985723776300,0.0707763671875,-0.995819091796875,0.001556396484375,-0.0140533447265625
1773789985743741200,0.0907412109375,-0.9950714111328125,0.0015106201171875,-0.0133514404296875
1773789985763707100,0.11070703125,-0.9965667724609375,0.00146484375,-0.0132904052734375
1773789985783672300,0.13067236328125,-0.9954986572265625,0.00079345703125,-0.0140838623046875
1773789985803637200,0.15063720703125,-0.9954681396484375,0.00177001953125,-0.01312255859375
1773789985823603500,0.170603515625,-0.9962158203125,0.003662109375,-0.013031005859375
1773789985843568400,0.190568359375,-0.99530029296875,0.000640869140625,-0.01275634765625
1773789985863533300,0.210533203125,-0.9950103759765625,0.0027923583984375,-0.013519287109375
1773789985883499300,0.230499267578125,-0.995819091796875,0.0029296875,-0.0136566162109375
1773789985903464200,0.250464111328125,-0.9959259033203125,0.0019989013671875,-0.013427734375
1773789985923429400,0.270429443359375,-0.996826171875,0.0014495849609375,-0.01348876953125
1773789985943395300,0.290395263671875,-0.995513916015625,0.00164794921875,-0.014129638671875
1773789985963360300,0.3103603515625,-0.9964447021484375,0.00152587890625,-0.014190673828125
1773789985983326200,0.330326171875,-0.996826171875,0.0021209716796875,-0.01446533203125
1773789986003291400,0.35029150390625,-0.9958038330078125,0.0011138916015625,-0.01397705078125
1773789986023256300,0.37025634765625,-0.995574951171875,0.0028533935546875,-0.0137786865234375
1773789986043222300,0.39022216796875,-0.995635986328125,0.001800537109375,-0.0141143798828125
1773789986063187500,0.4101875,-0.995513916015625,0.0031890869140625,-0.0145263671875
1773789986083152400,0.43015234375,-0.9948577880859375,0.001983642578125,-0.013885498046875
1773789986103118000,0.4501181640625,-0.9956207275390625,0.002685546875,-0.0135650634765625
1773789986123083300,0.470083251953125,-0.9958953857421875,0.0027618408203125,-0.01336669921875
1773789986143048200,0.490048095703125,-0.9947357177734375,0.0023193359375,-0.013702392578125
1773789986163013400,0.510013427734375,-0.9951629638671875,0.002166748046875,-0.013153076171875
1773789986182978300,0.529978271484375,-0.9960174560546875,0.0007781982421875,-0.0133514404296875
1773789986202943500,0.549943603515625,-0.995941162109375,0.0020904541015625,-0.0139312744140625
1773789986222909400,0.569909423828125,-0.9968109130859375,0.0013580322265625,-0.013336181640625
1773789986242874400,0.589874267578125,-0.995574951171875,0.0020904541015625,-0.0135498046875
1773789986262839600,0.609839599609375,-0.99639892578125,0.001800537109375,-0.01422119140625
1773789986282805500,0.629805419921875,-0.995697021484375,0.0023651123046875,-0.0140838623046875
1773789986302770400,0.6497705078125,-0.9945220947265625,0.0016632080078125,-0.0135040283203125
1773789986322735600,0.669735595703125,-0.9968719482421875,0.0015716552734375,-0.0130462646484375
1773789986342701300,0.689701416015625,-0.9949188232421875,0.001434326171875,-0.0131683349609375
1773789986362666500,0.70966650390625,-0.995208740234375,0.0009613037109375,-0.013916015625
1773789986382631400,0.72963134765625,-0.9954833984375,0.00164794921875,-0.01275634765625
1773789986402597400,0.749597412109375,-0.99652099609375,0.001068115234375,-0.0133514404296875
1773789986422562600,0.7695625,-0.9954071044921875,0.0008392333984375,-0.0131683349609375
1773789986442527500,0.789527587890625,-0.9946136474609375,0.0025634765625,-0.014373779296875
1773789986462493400,0.809493408203125,-0.9951324462890625,0.001129150390625,-0.0139617919921875
1773789986482458600,0.829458740234375,-0.9949798583984375,0.001953125,-0.0128326416015625
1773789986502423600,0.849423583984375,-0.99627685546875,0.001739501953125,-0.013641357421875
1773789986522389500,0.869389404296875,-0.9946746826171875,0.0025787353515625,-0.013763427734375
1773789986542354700,0.889354736328125,-0.99493408203125,0.00079345703125,-0.013671875
1773789986562319600,0.909319580078125,-0.9953765869140625,0.001556396484375,-0.01336669921875
1773789986582285300,0.929285400390625,-0.9951019287109375,0.0015716552734375,-0.014739990234375
1773789986602250500,0.94925048828125,-0.9955902099609375,0.0017852783203125,-0.01318359375
1773789986622215400,0.96921533203125,-0.996063232421875,0.001312255859375,-0.013031005859375
1773789986642181400,0.989181396484375,-0.995697021484375,0.00146484375,-0.0134124755859375
1773789986662146600,1.009146484375,-0.9958038330078125,0.003082275390625,-0.013092041015625
1773789986682111500,1.029111572265625,-0.9957427978515625,0.0023345947265625,-0.014617919921875
1773789986702077400,1.049077392578125,-0.9957427978515625,0.002593994140625,-0.01416015625
1773789986722042600,1.069042724609375,-0.99505615234375,0.0018768310546875,-0.01361083984375
1773789986742007600,1.089007568359375,-0.995330810546875,0.0026397705078125,-0.0137176513671875
1773789986761973500,1.108973388671875,-0.995330810546875,0.0018768310546875,-0.0143280029296875
1773789986781938400,1.1289384765625,-0.9962158203125,0.001800537109375,-0.0139312744140625
1773789986801903400,1.1489033203125,-0.99554443359375,0.0026702880859375,-0.0137481689453125
1773789986821869300,1.168869384765625,-0.9961700439453125,0.0029754638671875,-0.0138397216796875
1773789986841834500,1.18883447265625,-0.9954071044921875,0.002044677734375,-0.0147552490234375
1773789986861799400,1.20879931640625,-0.9957427978515625,0.0035552978515625,-0.0131988525390625
1773789986881765600,1.228765625,-0.995574951171875,0.00091552734375,-0.013763427734375
1773789986901730600,1.24873046875,-0.996429443359375,0.000946044921875,-0.013641357421875
1773789986921695500,1.268695556640625,-0.9968414306640625,0.001434326171875,-0.013519287109375
1773789986941661700,1.28866162109375,-0.995452880859375,0.0016326904296875,-0.01324462890625
1773789986961626600,1.308626708984375,-0.99530029296875,0.00262451171875,-0.0140533447265625
1773789986981591600,1.328591552734375,-0.9955902099609375,0.002716064453125,-0.01348876953125
1773789987001557500,1.3485576171875,-0.995635986328125,0.0010833740234375,-0.0141754150390625
1773789987021522400,1.3685224609375,-0.99517822265625,0.002471923828125,-0.014007568359375
1773789987041487400,1.3884873046875,-0.9949188232421875,0.0015106201171875,-0.0145416259765625
1773789987061453600,1.40845361328125,-0.9948272705078125,0.001708984375,-0.0141754150390625
1773789987081418500,1.42841845703125,-0.995208740234375,0.001708984375,-0.013763427734375
1773789987101383400,1.448383544921875,-0.99609375,0.0029449462890625,-0.0128631591796875
1773789987121349600,1.468349609375,-0.99542236328125,0.0020599365234375,-0.0135955810546875
1773789987141314600,1.488314453125,-0.9952850341796875,0.00238037109375,-0.0137939453125
1773789987161279700,1.50827978515625,-0.994476318359375,0.001800537109375,-0.012603759765625
1773789987181245700,1.52824560546875,-0.9967803955078125,0.001678466796875,-0.0145721435546875
1773789987201210600,1.548210693359375,-0.9955902099609375,0.001739501953125,-0.0136871337890625
1773789987221175600,1.568175537109375,-0.996185302734375,0.002532958984375,-0.013824462890625
1773789987241141800,1.588141845703125,-0.9947662353515625,0.002349853515625,-0.0134124755859375
1773789987261106700,1.608106689453125,-0.995697021484375,0.0008087158203125,-0.01287841796875
1773789987281071600,1.628071533203125,-0.9959259033203125,0.0015869140625,-0.0146484375
1773789987301037800,1.648037841796875,-0.9954071044921875,0.0016326904296875,-0.013519287109375
1773789987321002800,1.668002685546875,-0.994659423828125,0.00079345703125,-0.0128326416015625
1773789987340967700,1.6879677734375,-0.9956512451171875,0.0016937255859375,-0.0128173828125
1773789987360934000,1.707933837890625,-0.9947662353515625,0.0016632080078125,-0.0137481689453125
1773789987380898800,1.72789892578125,-0.996368408203125,0.001739501953125,-0.012939453125
1773789987400863700,1.74786376953125,-0.9967498779296875,0.00213623046875,-0.0146026611328125
1773789987420829700,1.76782958984375,-0.995330810546875,0.00244140625,-0.0140838623046875
1773789987440794600,1.787794677734375,-0.995758056640625,0.0014190673828125,-0.013427734375
1773789987460759600,1.807759521484375,-0.996246337890625,0.0006103515625,-0.0128021240234375
1773789987480725800,1.827725830078125,-0.995635986328125,0.00152587890625,-0.013031005859375
1773789987500690700,1.847690673828125,-0.995452880859375,0.001800537109375,-0.0142059326171875
1773789987520655600,1.867655517578125,-0.9957733154296875,0.0015869140625,-0.013153076171875
1773789987540620800,1.887620849609375,-0.9953460693359375,0.0023040771484375,-0.012542724609375
1773789987560586800,1.907586669921875,-0.9965667724609375,0.0020904541015625,-0.0145263671875
1773789987580551700,1.9275517578125,-0.9961090087890625,0.0026702880859375,-0.01300048828125
1773789987600516900,1.947516845703125,-0.9954833984375,0.0016326904296875,-0.0136260986328125
1773789987620482600,1.967482666015625,-0.994873046875,0.000946044921875,-0.01214599609375
1773789987640447700,1.98744775390625,-0.99591064453125,0.001861572265625,-0.012847900390625
1773789987660412700,2.00741259765625,-0.997467041015625,0.00213623046875,-0.01318359375
1773789987680378600,2.027378662109375,-0.9957733154296875,0.0016632080078125,-0.0127716064453125
1773789987700343800,2.04734375,-0.9960784912109375,0.0011749267578125,-0.0131378173828125
1773789987720308700,2.067308837890625,-0.9958953857421875,0.001922607421875,-0.0134735107421875
1773789987740274700,2.087274658203125,-0.99652099609375,0.0029296875,-0.013519287109375
1773789987760239900,2.107239990234375,-0.9965667724609375,0.00274658203125,-0.0128326416015625
1773789987780204800,2.127204833984375,-0.9972076416015625,0.002166748046875,-0.01312255859375
1773789987800170800,2.147170654296875,-0.996002197265625,0.0011444091796875,-0.0124969482421875
1773789987820136000,2.167135986328125,-0.9970245361328125,0.00054931640625,-0.013641357421875
1773789987840100900,2.187100830078125,-0.99566650390625,0.0016021728515625,-0.0135650634765625
1773789987860066600,2.207066650390625,-0.995758056640625,0.0021820068359375,-0.0134735107421875
1773789987880031700,2.22703173828125,-0.9952392578125,0.0028228759765625,-0.0133209228515625
1773789987899996700,2.24699658203125,-0.995513916015625,0.0015869140625,-0.0130157470703125
1773789987919962600,2.266962646484375,-0.9965972900390625,0.0030975341796875,-0.0129547119140625
1773789987939927800,2.286927734375,-0.9965972900390625,0.0014801025390625,-0.014190673828125
1773789987959892700,2.306892822265625,-0.9946136474609375,0.0012054443359375,-0.013824462890625
1773789987979857700,2.326857666015625,-0.995330810546875,0.0017852783203125,-0.0144195556640625
1773789987999824000,2.346823974609375,-0.995758056640625,0.0021514892578125,-0.013519287109375
1773789988019788800,2.366788818359375,-0.99578857421875,0.0009918212890625,-0.0135345458984375
1773789988039753700,2.386753662109375,-0.996856689453125,0.001800537109375,-0.0142059326171875
1773789988059719700,2.4067197265625,-0.99664306640625,0.00140380859375,-0.013580322265625
1773789988079684600,2.4266845703125,-0.9951171875,0.00128173828125,-0.013763427734375
1773789988099649800,2.44664990234375,-0.99615478515625,0.002838134765625,-0.0135345458984375
1773789988119615700,2.46661572265625,-0.99609375,0.00140380859375,-0.013092041015625
1773789988139580700,2.48658056640625,-0.9964141845703125,0.0025177001953125,-0.0137481689453125
1773789988159546400,2.50654638671875,-0.9951934814453125,0.0009918212890625,-0.013702392578125
1773789988179512600,2.5265126953125,-0.9956207275390625,0.001556396484375,-0.012969970703125
1773789988199477500,2.5464775390625,-0.9958343505859375,0.001251220703125,-0.0130615234375
1773789988219442400,2.5664423828125,-0.9956207275390625,0.002471923828125,-0.0125732421875
1773789988239407400,2.586407470703125,-0.9951629638671875,0.0012969970703125,-0.0139617919921875
1773789988259373300,2.606373291015625,-0.996429443359375,0.0017547607421875,-0.01446533203125
1773789988279338200,2.626338134765625,-0.99468994140625,0.001861572265625,-0.0133819580078125
1773789988299303200,2.64630322265625,-0.9964447021484375,0.0017242431640625,-0.0131683349609375
1773789988319269400,2.666269287109375,-0.995941162109375,0.00103759765625,-0.013702392578125
1773789988339234300,2.686234375,-0.99609375,0.002349853515625,-0.01434326171875
1773789988359199200,2.70619921875,-0.9954376220703125,0.0015869140625,-0.0147552490234375
1773789988379165400,2.72616552734375,-0.9958648681640625,0.00128173828125,-0.014190673828125
1773789988399130400,2.74613037109375,-0.9944915771484375,0.001434326171875,-0.0140533447265625
1773789988419095600,2.766095458984375,-0.995086669921875,0.0002899169921875,-0.0128936767578125
1773789988439061500,2.7860615234375,-0.996063232421875,0.002044677734375,-0.0150909423828125
1773789988459026400,2.8060263671875,-0.9953460693359375,0.0025177001953125,-0.0140838623046875
1773789988478991600,2.82599169921875,-0.9963226318359375,0.001556396484375,-0.012847900390625
1773789988498956500,2.84595654296875,-0.9962158203125,0.0018310546875,-0.012664794921875
1773789988518922200,2.865922119140625,-0.995849609375,0.0023193359375,-0.0135650634765625
1773789988538887400,2.885887451171875,-0.99603271484375,0.0017242431640625,-0.0135650634765625
1773789988558852400,2.905852294921875,-0.995635986328125,0.0030670166015625,-0.0139923095703125
1773789988578818300,2.925818359375,-0.9949798583984375,0.002044677734375,-0.012847900390625
1773789988598783500,2.945783447265625,-0.996673583984375,0.0014190673828125,-0.0128326416015625
1773789988618748400,2.96574853515625,-0.99530029296875,0.002349853515625,-0.0141448974609375
1773789988638713300,2.98571337890625,-0.9951324462890625,0.0016632080078125,-0.0143280029296875
1773789988658679600,3.005679443359375,-0.9956512451171875,0.002227783203125,-0.0135650634765625
1773789988678644500,3.02564453125,-0.996490478515625,0.001708984375,-0.0140838623046875
1773789988698609400,3.045609375,-0.99652099609375,0.0021820068359375,-0.015045166015625
1773789988718575400,3.065575439453125,-0.9947967529296875,0.0014190673828125,-0.0138702392578125
1773789988738540300,3.085540283203125,-0.9960174560546875,0.0013427734375,-0.0132293701171875
1773789988758505500,3.10550537109375,-0.9960174560546875,0.0016632080078125,-0.014190673828125
1773789988778471400,3.125471435546875,-0.9961395263671875,0.0019989013671875,-0.0145416259765625
1773789988798436400,3.145436279296875,-0.9957427978515625,0.0011138916015625,-0.012725830078125
1773789988822145500,3.1691455078125,-0.996856689453125,0.0021820068359375,-0.013153076171875
1773789988842110500,3.1891103515625,-0.996917724609375,0.001556396484375,-0.012939453125
1773789988862076400,3.209076416015625,-0.9960784912109375,0.001007080078125,-0.0139923095703125
1773789988882041300,3.229041259765625,-0.995574951171875,0.0023193359375,-0.0135955810546875
1773789988902006300,3.24900634765625,-0.9937744140625,0.00238037109375,-0.0133819580078125
1773789988921972500,3.268972412109375,-0.9962921142578125,0.0012969970703125,-0.0129852294921875
1773789988941937400,3.2889375,-0.99615478515625,0.0022735595703125,-0.0144805908203125
1773789988961902300,3.30890234375,-0.9953155517578125,0.002044677734375,-0.013092041015625
1773789988981867300,3.3288671875,-0.9954376220703125,0.0020751953125,-0.01348876953125
1773789989001833500,3.34883349609375,-0.994781494140625,0.00177001953125,-0.014678955078125
1773789989021798400,3.36879833984375,-0.995880126953125,0.0020904541015625,-0.0146942138671875
1773789989041763300,3.388763427734375,-0.9956817626953125,0.0025787353515625,-0.0141754150390625
1773789989061729500,3.4087294921875,-0.994415283203125,0.0027313232421875,-0.01336669921875
1773789989081694500,3.428694580078125,-0.996978759765625,0.0022430419921875,-0.0138397216796875
1773789989101659400,3.448659423828125,-0.9958953857421875,0.00115966796875,-0.01312255859375
1773789989121624600,3.46862451171875,-0.995513916015625,0.000946044921875,-0.0137939453125
1773789989141590300,3.48859033203125,-0.996124267578125,0.002349853515625,-0.0134429931640625
1773789989161555500,3.508555419921875,-0.997314453125,0.0015106201171875,-0.0139312744140625
1773789989181520400,3.528520263671875,-0.99578857421875,0.0018310546875,-0.0128936767578125
1773789989201485300,3.5484853515625,-0.99566650390625,0.0023651123046875,-0.012725830078125
1773789989221451500,3.568451416015625,-0.995697021484375,0.0012054443359375,-0.014373779296875
1773789989241416400,3.58841650390625,-0.9951934814453125,0.0020599365234375,-0.0152740478515625
1773789989261381400,3.60838134765625,-0.995361328125,0.002197265625,-0.0132293701171875
1773789989281347600,3.62834765625,-0.99639892578125,0.0010986328125,-0.0120849609375
1773789989301312500,3.6483125,-0.9952392578125,0.00115966796875,-0.0126495361328125
1773789989321277400,3.66827734375,-0.996307373046875,0.0013580322265625,-0.0135650634765625
1773789989341242600,3.68824267578125,-0.996063232421875,0.002105712890625,-0.0132598876953125
1773789989361208300,3.708208251953125,-0.99609375,0.0028533935546875,-0.0135498046875
1773789989381173200,3.72817333984375,-0.996368408203125,0.002105712890625,-0.0132598876953125
1773789989401138400,3.748138427734375,-0.9958648681640625,0.0020904541015625,-0.012420654296875
1773789989421104400,3.7681044921875,-0.9961090087890625,0.0014801025390625,-0.0139617919921875
1773789989441069600,3.788069580078125,-0.9948272705078125,0.0010223388671875,-0.01361083984375
1773789989461034500,3.808034423828125,-0.995758056640625,0.000885009765625,-0.01409912109375
1773789989480999400,3.82799951171875,-0.9948577880859375,0.001708984375,-0.0136260986328125
1773789989500965600,3.847965576171875,-0.995635986328125,0.001800537109375,-0.0124664306640625
1773789989520930600,3.8679306640625,-0.9948883056640625,0.0014801025390625,-0.0140228271484375
1773789989540895500,3.8878955078125,-0.99566650390625,0.0025482177734375,-0.01446533203125
1773789989560860400,3.9078603515625,-0.99591064453125,0.0028839111328125,-0.0149688720703125
1773789989580826600,3.92782666015625,-0.9957427978515625,0.0016326904296875,-0.01556396484375
1773789989600791600,3.94779150390625,-0.9952392578125,0.0021209716796875,-0.0127105712890625
1773789989620756500,3.967756591796875,-0.9954986572265625,0.0019683837890625,-0.013153076171875
1773789989640722400,3.987722412109375,-0.9952850341796875,0.00244140625,-0.0132904052734375
1773789989660687400,4.007687255859375,-0.9948883056640625,0.001922607421875,-0.014404296875
1773789989680652300,4.02765234375,-0.9966583251953125,0.0020751953125,-0.013275146484375
1773789989700617500,4.047617431640625,-0.9949951171875,0.0021514892578125,-0.0136871337890625
1773789989720583400,4.06758349609375,-0.99554443359375,0.00177001953125,-0.0134124755859375
1773789989740548400,4.08754833984375,-0.9954376220703125,0.001708984375,-0.01312255859375
1773789989760513500,4.107513427734375,-0.9967041015625,0.0016326904296875,-0.0145111083984375
1773789989780478500,4.127478515625,-0.9961090087890625,0.0009918212890625,-0.013275146484375
1773789989800444700,4.147444580078125,-0.995452880859375,0.0017547607421875,-0.01263427734375
1773789989820409600,4.16740966796875,-0.9963226318359375,0.0023956298828125,-0.012847900390625
1773789989840374500,4.18737451171875,-0.9960784912109375,0.002349853515625,-0.0142822265625
1773789989860340500,4.207340576171875,-0.9947662353515625,0.0006256103515625,-0.0147705078125
1773789989880305400,4.227305419921875,-0.99627685546875,0.001312255859375,-0.0128631591796875
1773789989900270300,4.247270263671875,-0.995147705078125,0.0008697509765625,-0.0138702392578125
1773789989920235500,4.267235595703125,-0.99456787109375,0.0020751953125,-0.0138702392578125
1773789989940201500,4.287201416015625,-0.99615478515625,0.000579833984375,-0.012664794921875
1773789989960166400,4.30716650390625,-0.9951019287109375,0.001556396484375,-0.0130615234375
1773789989980131300,4.32713134765625,-0.99530029296875,0.0018157958984375,-0.013275146484375
1773789990000096500,4.347096435546875,-0.996917724609375,0.0023345947265625,-0.0139617919921875
1773789990020062500,4.3670625,-0.995880126953125,0.000701904296875,-0.01348876953125
1773789990040027400,4.38702734375,-0.994873046875,0.0015716552734375,-0.0137176513671875
1773789990059992600,4.40699267578125,-0.99566650390625,0.001922607421875,-0.0139007568359375
1773789990079957500,4.42695751953125,-0.9949188232421875,0.00152587890625,-0.013702392578125
1773789990099923500,4.44692333984375,-0.9967498779296875,0.0027923583984375,-0.0135955810546875
1773789990119888600,4.466888671875,-0.9956207275390625,0.001251220703125,-0.0142974853515625
1773789990139853600,4.486853515625,-0.995086669921875,0.0010833740234375,-0.013580322265625
1773789990159819000,4.506819091796875,-0.996307373046875,0.0017852783203125,-0.0139312744140625
1773789990179784000,4.526783935546875,-0.995849609375,0.00128173828125,-0.01422119140625
1773789990199749000,4.5467490234375,-0.99609375,0.00244140625,-0.013702392578125
1773789990219714000,4.566714111328125,-0.99560546875,0.00250244140625,-0.0127105712890625
1773789990239680000,4.586679931640625,-0.995391845703125,0.00152587890625,-0.013092041015625
1773789990259645000,4.60664501953125,-0.996307373046875,0.0027313232421875,-0.0128326416015625
1773789990279609900,4.62660986328125,-0.9956817626953125,0.0019989013671875,-0.013275146484375
1773789990299575000,4.646574951171875,-0.995361328125,0.000244140625,-0.014495849609375
1773789990319541000,4.666541015625,-0.995086669921875,0.0013580322265625,-0.0135040283203125
1773789990339506000,4.686505859375,-0.99566650390625,0.00213623046875,-0.01373291015625
1773789990359471000,4.70647119140625,-0.9947967529296875,0.0020599365234375,-0.0128021240234375
1773789990379436000,4.72643603515625,-0.99688720703125,0.00146484375,-0.014190673828125
1773789990399402000,4.746402099609375,-0.99609375,0.0020294189453125,-0.0142974853515625
1773789990419367200,4.7663671875,-0.99652099609375,0.0015716552734375,-0.012847900390625
1773789990439332000,4.78633203125,-0.994781494140625,0.0027008056640625,-0.013580322265625
1773789990459297000,4.806297119140625,-0.99627685546875,0.0016326904296875,-0.0134429931640625
1773789990479263000,4.826262939453125,-0.9947357177734375,0.0017242431640625,-0.0133819580078125
1773789990499228000,4.846227783203125,-0.9960479736328125,0.0016632080078125,-0.01385498046875
1773789990519192800,4.86619287109375,-0.9955596923828125,0.0020294189453125,-0.0125274658203125
1773789990539158000,4.886157958984375,-0.996368408203125,0.0015716552734375,-0.0125732421875
1773789990559124000,4.9061240234375,-0.995391845703125,0.00152587890625,-0.013671875
1773789990579089000,4.9260888671875,-0.9947509765625,0.0020904541015625,-0.0150909423828125
1773789990599054000,4.94605419921875,-0.99609375,0.0010223388671875,-0.0134429931640625
1773789990619019000,4.96601904296875,-0.9956817626953125,0.00238037109375,-0.0124053955078125
1773789990638985000,4.98598486328125,-0.996185302734375,0.0021820068359375,-0.01434326171875
1773789990658950100,5.0059501953125,-0.99420166015625,0.0025482177734375,-0.01348876953125
1773789990678915000,5.0259150390625,-0.996551513671875,0.001556396484375,-0.013580322265625
1773789990698880000,5.0458798828125,-0.9962921142578125,0.0019683837890625,-0.012939453125
1773789990718846200,5.06584619140625,-0.99542236328125,0.00225830078125,-0.013153076171875
1773789990738811100,5.08581103515625,-0.995269775390625,0.00189208984375,-0.013946533203125
1773789990758776000,5.105776123046875,-0.9962921142578125,0.001983642578125,-0.0132904052734375
1773789990778741000,5.125740966796875,-0.996612548828125,0.0018157958984375,-0.013916015625
1773789990798707000,5.14570703125,-0.9948272705078125,0.002288818359375,-0.0136566162109375
1773789990818671900,5.165671875,-0.9948883056640625,0.001251220703125,-0.0140228271484375
1773789990838636800,5.18563671875,-0.9950714111328125,0.002105712890625,-0.0131988525390625
1773789990858602000,5.20560205078125,-0.9964599609375,0.0021209716796875,-0.0142974853515625
1773789990878568000,5.22556787109375,-0.9955291748046875,0.0021209716796875,-0.0134429931640625
1773789990898533000,5.245533203125,-0.996307373046875,0.002716064453125,-0.013702392578125
1773789990918498000,5.265498046875,-0.9952392578125,0.0015716552734375,-0.0135345458984375
1773789990938463000,5.285462890625,-0.9961700439453125,0.002471923828125,-0.012847900390625
1773789990958429200,5.30542919921875,-0.9964447021484375,0.001861572265625,-0.013397216796875
1773789990978394000,5.32539404296875,-0.9956207275390625,0.0028533935546875,-0.0124359130859375
1773789990998359000,5.345359130859375,-0.995880126953125,0.0023956298828125,-0.0134124755859375
1773789991018324000,5.365323974609375,-0.995697021484375,0.001373291015625,-0.012298583984375
1773789991038289200,5.3852890625,-0.996185302734375,0.0025482177734375,-0.0141754150390625
1773789991058254800,5.4052548828125,-0.99578857421875,0.0014801025390625,-0.0125579833984375
1773789991078219800,5.4252197265625,-0.995452880859375,0.00146484375,-0.01348876953125
1773789991098185000,5.44518505859375,-0.99609375,0.0011138916015625,-0.0137786865234375
1773789991118150000,5.46514990234375,-0.995880126953125,0.00201416015625,-0.013946533203125
1773789991138115800,5.48511572265625,-0.996673583984375,0.0023956298828125,-0.013916015625
1773789991158081000,5.5050810546875,-0.994537353515625,0.0021514892578125,-0.0137481689453125
1773789991178046000,5.5250458984375,-0.996612548828125,0.002410888671875,-0.014251708984375
1773789991198011000,5.545010986328125,-0.9965667724609375,0.00115966796875,-0.014373779296875
1773789991217977000,5.56497705078125,-0.995452880859375,0.00244140625,-0.01324462890625
1773789991237942000,5.58494189453125,-0.9956512451171875,0.0027618408203125,-0.0130767822265625
1773789991257907000,5.604906982421875,-0.9968109130859375,0.0022125244140625,-0.0145721435546875
1773789991277872000,5.6248720703125,-0.995391845703125,0.0012664794921875,-0.0134429931640625
1773789991297838000,5.644838134765625,-0.9957275390625,0.0030517578125,-0.0131072998046875
1773789991317803000,5.664802978515625,-0.996185302734375,0.00201416015625,-0.0134124755859375
1773789991337768200,5.684768310546875,-0.995391845703125,0.0020904541015625,-0.0135040283203125
1773789991357733000,5.704733154296875,-0.9964752197265625,0.00146484375,-0.0152435302734375
1773789991377698000,5.724697998046875,-0.996185302734375,0.0021514892578125,-0.01348876953125
1773789991397664000,5.7446640625,-0.9969329833984375,0.0021820068359375,-0.01336669921875
1773789991417629000,5.76462890625,-0.995513916015625,0.001800537109375,-0.013214111328125
1773789991437593900,5.78459375,-0.99615478515625,0.0009613037109375,-0.0135955810546875
1773789991457558800,5.804558837890625,-0.9947357177734375,0.0023040771484375,-0.013946533203125
1773789991477525000,5.82452490234375,-0.9959869384765625,0.001220703125,-0.0125732421875
1773789991497490000,5.844489990234375,-0.996185302734375,0.0027008056640625,-0.0135498046875
1773789991517455000,5.864455078125,-0.9961395263671875,0.0023651123046875,-0.0135498046875
1773789991537420000,5.884419921875,-0.9959869384765625,0.001190185546875,-0.01336669921875
1773789991557385000,5.904385009765625,-0.9964141845703125,0.0023040771484375,-0.0135498046875
1773789991577351200,5.92435107421875,-0.996124267578125,0.002166748046875,-0.013092041015625
1773789991597316000,5.944316162109375,-0.994293212890625,0.0009765625,-0.0135345458984375
1773789991617281000,5.964281005859375,-0.9973297119140625,0.0023040771484375,-0.0135650634765625
1773789991637246000,5.984245849609375,-0.9959716796875,0.0022735595703125,-0.0130157470703125
1773789991657212000,6.0042119140625,-0.99578857421875,0.0026092529296875,-0.01202392578125
1773789991677176800,6.0241767578125,-0.9953460693359375,0.001190185546875,-0.0136871337890625
1773789991697141800,6.044141845703125,-0.9957427978515625,0.002227783203125,-0.0137176513671875
1773789991717107000,6.06410693359375,-0.995269775390625,0.001861572265625,-0.014373779296875
1773789991737071900,6.08407177734375,-0.995025634765625,0.00164794921875,-0.012603759765625
1773789991757037800,6.104037841796875,-0.9964752197265625,0.00274658203125,-0.0123748779296875
1773789991777003000,6.1240029296875,-0.9949798583984375,0.0018310546875,-0.0136260986328125
1773789991796968000,6.143968017578125,-0.996002197265625,0.0018310546875,-0.0144195556640625
1773789991816932900,6.163932861328125,-0.996612548828125,0.00286865234375,-0.0133819580078125
1773789991836899000,6.183899169921875,-0.9957427978515625,0.001495361328125,-0.0132598876953125
1773789991856864000,6.203864013671875,-0.9955291748046875,0.0004425048828125,-0.0126800537109375
1773789991876829000,6.223828857421875,-0.9953155517578125,0.0019989013671875,-0.013427734375
1773789991896794000,6.243794189453125,-0.9958038330078125,0.001495361328125,-0.01348876953125
1773789991916759000,6.263759033203125,-0.9942626953125,0.00140380859375,-0.01422119140625
1773789991936725000,6.28372509765625,-0.995147705078125,0.0005645751953125,-0.0144500732421875
1773789991956690200,6.303690185546875,-0.9960784912109375,0.0022430419921875,-0.0137939453125
1773789991976655000,6.323655029296875,-0.995880126953125,0.002227783203125,-0.01263427734375
1773789991996620000,6.3436201171875,-0.9945220947265625,0.00250244140625,-0.013580322265625
1773789992016585000,6.3635849609375,-0.995574951171875,0.0022735595703125,-0.0132293701171875
1773789992036551000,6.383551025390625,-0.995880126953125,0.0017547607421875,-0.0141448974609375
1773789992056515800,6.403515869140625,-0.9961090087890625,0.0011749267578125,-0.013885498046875
1773789992076481000,6.42348095703125,-0.9959259033203125,0.0011749267578125,-0.0137176513671875
1773789992096446000,6.443446044921875,-0.997100830078125,0.0025177001953125,-0.01434326171875
1773789992116411000,6.463410888671875,-0.995330810546875,0.0018463134765625,-0.0144500732421875
1773789992136377000,6.483377197265625,-0.99493408203125,0.0021209716796875,-0.0142669677734375
1773789992156342000,6.503342041015625,-0.9962005615234375,0.001861572265625,-0.01263427734375
1773789992176307500,6.523307373046875,-0.996795654296875,0.0027008056640625,-0.0133209228515625
1773789992196272400,6.5432724609375,-0.99505615234375,0.0019683837890625,-0.0137786865234375
1773789992216238600,6.563238525390625,-0.995697021484375,0.0014495849609375,-0.0131378173828125
1773789992236203500,6.58320361328125,-0.99560546875,0.002532958984375,-0.0132598876953125
1773789992256168700,6.603168701171875,-0.9971466064453125,0.0019073486328125,-0.0134124755859375
1773789992276133600,6.623133544921875,-0.995391845703125,0.00250244140625,-0.0135498046875
1773789992296098600,6.6430986328125,-0.9949798583984375,0.0019073486328125,-0.01397705078125
1773789992316064500,6.663064453125,-0.9961090087890625,0.00262451171875,-0.0139923095703125
1773789992336029400,6.683029541015625,-0.9953460693359375,0.0023651123046875,-0.0142364501953125
1773789992355994400,6.702994384765625,-0.994873046875,0.0018463134765625,-0.01361083984375
1773789992375959300,6.722959228515625,-0.9941864013671875,0.0013275146484375,-0.0139312744140625
1773789992395924500,6.742924560546875,-0.9965057373046875,0.001007080078125,-0.0143890380859375
1773789992415890400,6.762890380859375,-0.9958343505859375,0.0020599365234375,-0.0135040283203125
1773789992435855400,6.78285546875,-0.9965362548828125,0.002349853515625,-0.0128021240234375
1773789992455820500,6.802820556640625,-0.99517822265625,0.0016632080078125,-0.013458251953125
1773789992475785500,6.822785400390625,-0.99627685546875,0.0010528564453125,-0.0128631591796875
1773789992495750400,6.84275048828125,-0.9954681396484375,0.0019073486328125,-0.0137786865234375
1773789992515715600,6.862715576171875,-0.997222900390625,0.0009918212890625,-0.0139312744140625
1773789992535681500,6.882681640625,-0.9958953857421875,0.001922607421875,-0.0125885009765625
1773789992555646500,6.902646484375,-0.9959716796875,0.001129150390625,-0.013427734375
1773789992575611600,6.922611572265625,-0.9950103759765625,0.0024261474609375,-0.0150299072265625
1773789992595576600,6.94257666015625,-0.9947357177734375,0.0019989013671875,-0.013519287109375
1773789992615541500,6.96254150390625,-0.996795654296875,0.0010986328125,-0.0136871337890625
1773789992635507500,6.982507568359375,-0.996368408203125,0.0025482177734375,-0.0139923095703125
1773789992655472600,7.00247265625,-0.9961700439453125,0.001861572265625,-0.0121917724609375
1773789992675437600,7.0224375,-0.994598388671875,0.001708984375,-0.01385498046875
1773789992695402500,7.042402587890625,-0.9967041015625,0.0024566650390625,-0.011871337890625
1773789992715367700,7.06236767578125,-0.99652099609375,0.00262451171875,-0.01251220703125
1773789992735333400,7.08233349609375,-0.99700927734375,0.0020294189453125,-0.0138397216796875
1773789992755298300,7.10229833984375,-0.9954986572265625,0.0020751953125,-0.0140228271484375
1773789992775263500,7.122263427734375,-0.9951171875,0.0027008056640625,-0.0131988525390625
1773789992795228400,7.142228515625,-0.9954071044921875,0.00189208984375,-0.0145263671875
1773789992815193300,7.162193359375,-0.9964141845703125,0.0012664794921875,-0.0128936767578125
1773789992835159600,7.18215966796875,-0.994964599609375,0.0026702880859375,-0.0129852294921875
1773789992855124500,7.20212451171875,-0.995574951171875,0.0026092529296875,-0.0128173828125
1773789992875089400,7.22208935546875,-0.996429443359375,0.001678466796875,-0.0132598876953125
1773789992895054600,7.2420546875,-0.996978759765625,0.0023040771484375,-0.01324462890625
1773789992915019500,7.26201953125,-0.9949951171875,0.001739501953125,-0.0139007568359375
1773789992934985500,7.2819853515625,-0.9954376220703125,0.003143310546875,-0.014312744140625
1773789992954950700,7.30195068359375,-0.99615478515625,0.002410888671875,-0.012481689453125
1773789992974915600,7.32191552734375,-0.9958953857421875,0.00164794921875,-0.0134735107421875
1773789992994880500,7.341880615234375,-0.995880126953125,0.0015716552734375,-0.01336669921875
1773789993014845400,7.361845458984375,-0.9945831298828125,0.0020904541015625,-0.0133514404296875
1773789993034811400,7.381811279296875,-0.9960479736328125,0.001220703125,-0.0134429931640625
1773789993054776300,7.4017763671875,-0.9949798583984375,0.0016021728515625,-0.0138702392578125
1773789993074741500,7.421741455078125,-0.9952239990234375,0.00115966796875,-0.0145416259765625
1773789993094706400,7.44170654296875,-0.99566650390625,0.002349853515625,-0.0137176513671875
1773789993114671400,7.46167138671875,-0.99554443359375,0.0021820068359375,-0.0139312744140625
1773789993134636300,7.48163623046875,-0.994354248046875,0.0027008056640625,-0.013427734375
1773789993154602500,7.5016025390625,-0.9957733154296875,0.001617431640625,-0.0129547119140625
1773789993174566400,7.52156640625,-0.99822998046875,0.0006866455078125,-0.0139007568359375
1773789993194531300,7.54153125,-0.9962005615234375,0.0025787353515625,-0.0129241943359375
1773789993214496500,7.56149658203125,-0.9944915771484375,0.0018768310546875,-0.013580322265625
1773789993234461400,7.58146142578125,-0.99542236328125,0.0013275146484375,-0.013092041015625
1773789993254426400,7.60142626953125,-0.995758056640625,0.0019683837890625,-0.014129638671875
1773789993274391300,7.621391357421875,-0.9951171875,0.0019989013671875,-0.0142059326171875
1773789993294357500,7.641357421875,-0.996612548828125,0.002288818359375,-0.0134124755859375
1773789993314322400,7.661322509765625,-0.9969635009765625,0.0025177001953125,-0.013427734375
1773789993334287600,7.68128759765625,-0.9948883056640625,0.0018768310546875,-0.01324462890625
1773789993354252500,7.70125244140625,-0.995452880859375,0.001708984375,-0.01220703125
1773789993374217500,7.721217529296875,-0.9954681396484375,0.001922607421875,-0.01312255859375
1773789993394182400,7.741182373046875,-0.9952850341796875,0.001739501953125,-0.0137481689453125
1773789993414148600,7.761148681640625,-0.9963531494140625,0.002532958984375,-0.0148773193359375
1773789993434113500,7.781113525390625,-0.9954681396484375,0.0012664794921875,-0.0125885009765625
1773789993454078500,7.801078369140625,-0.9952850341796875,0.00213623046875,-0.01409912109375
1773789993474043600,7.821043701171875,-0.9951934814453125,0.0008697509765625,-0.013946533203125
1773789993494008600,7.841008544921875,-0.99481201171875,0.001953125,-0.0129547119140625
1773789993513973500,7.860973388671875,-0.9984588623046875,0.0029754638671875,-0.012725830078125
1773789993533939700,7.880939697265625,-0.9946746826171875,0.00238037109375,-0.013397216796875
1773789993553904600,7.900904541015625,-0.99652099609375,0.0015869140625,-0.012725830078125
1773789993573869600,7.92086962890625,-0.995941162109375,0.002105712890625,-0.0128936767578125
1773789993593834800,7.940834716796875,-0.99530029296875,0.002410888671875,-0.01336669921875
1773789993613799700,7.960799560546875,-0.995361328125,0.0031280517578125,-0.0140533447265625
1773789993633764600,7.9807646484375,-0.9957275390625,0.001617431640625,-0.0144500732421875
1773789993653730600,8.00073046875,-0.995758056640625,0.0027313232421875,-0.0131378173828125
1773789993673695500,8.020695556640625,-0.99560546875,0.0026397705078125,-0.012847900390625
1773789993693660400,8.040660400390625,-0.99578857421875,0.0012359619140625,-0.0129241943359375
1773789993713625300,8.060625244140626,-0.996002197265625,0.0018157958984375,-0.0131072998046875
1773789993733590500,8.080590576171875,-0.99676513671875,0.0014190673828125,-0.01397705078125
1773789993753555500,8.100555419921875,-0.996063232421875,0.0015869140625,-0.0130615234375
1773789993773520400,8.120520263671875,-0.9966888427734375,0.00152587890625,-0.0131072998046875
1773789993793486600,8.140486572265624,-0.9962921142578125,0.0021820068359375,-0.0129852294921875
1773789993813451500,8.160451416015626,-0.9959259033203125,0.002777099609375,-0.01239013671875
1773789993833416400,8.18041650390625,-0.995849609375,0.002716064453125,-0.0129852294921875
1773789993853381600,8.200381591796875,-0.9954986572265625,0.0018768310546875,-0.01214599609375
1773789993873346600,8.2203466796875,-0.9961090087890625,0.0030517578125,-0.01446533203125
1773789993893311500,8.2403115234375,-0.996185302734375,0.0012054443359375,-0.012176513671875
1773789993913277700,8.260277587890625,-0.996337890625,0.0023651123046875,-0.013336181640625
1773789993933242600,8.28024267578125,-0.9951019287109375,0.0016632080078125,-0.013092041015625
1773789993953207600,8.30020751953125,-0.9962005615234375,0.000946044921875,-0.01300048828125
1773789993973172500,8.32017236328125,-0.9951629638671875,0.001953125,-0.0123291015625
1773789993993137700,8.3401376953125,-0.9963531494140625,0.001708984375,-0.012725830078125
1773789994013102600,8.3601025390625,-0.9951019287109375,0.0010833740234375,-0.0131072998046875
1773789994033067500,8.380067626953124,-0.995330810546875,0.0022125244140625,-0.013458251953125
1773789994053033500,8.400033447265624,-0.9973907470703125,0.00177001953125,-0.0139617919921875
1773789994072998400,8.419998291015625,-0.9962310791015625,0.0014801025390625,-0.0135650634765625
1773789994092963600,8.439963623046875,-0.9953460693359375,0.0013580322265625,-0.0134429931640625
1773789994112928500,8.459928466796875,-0.9956207275390625,0.0013580322265625,-0.0127410888671875
1773789994132893400,8.4798935546875,-0.9954986572265625,0.0016326904296875,-0.01409912109375
1773789994152858400,8.4998583984375,-0.99609375,0.002777099609375,-0.013885498046875
1773789994172823800,8.51982373046875,-0.9959869384765625,0.0013275146484375,-0.0142059326171875
1773789994192789800,8.539789794921875,-0.995147705078125,0.0032501220703125,-0.0140380859375
1773789994212755000,8.5597548828125,-0.99566650390625,0.0027313232421875,-0.0139617919921875
1773789994232720000,8.579719970703126,-0.9956207275390625,0.00201416015625,-0.0135498046875
1773789994252684800,8.599684814453125,-0.995880126953125,0.0026397705078125,-0.013031005859375
1773789994272649700,8.619649658203125,-0.996612548828125,0.001556396484375,-0.013885498046875
1773789994292615000,8.639614990234374,-0.994842529296875,0.00201416015625,-0.0138702392578125
1773789994312579800,8.659579833984376,-0.9963226318359375,0.001617431640625,-0.0130462646484375
1773789994332545800,8.6795458984375,-0.99542236328125,0.0019378662109375,-0.0130767822265625
1773789994352511000,8.699510986328125,-0.9961090087890625,0.0013885498046875,-0.014312744140625
1773789994372476000,8.719475830078125,-0.995025634765625,0.0005645751953125,-0.0133819580078125
1773789994392440800,8.73944091796875,-0.994903564453125,0.00201416015625,-0.0139007568359375
1773789994412406000,8.759406005859375,-0.9962310791015625,0.001708984375,-0.0133209228515625
1773789994432371000,8.779370849609375,-0.9966888427734375,0.001617431640625,-0.0135040283203125
1773789994452335900,8.7993359375,-0.9962310791015625,0.003662109375,-0.01324462890625
1773789994472302000,8.819302001953124,-0.99639892578125,0.0020294189453125,-0.0130462646484375
1773789994492267000,8.83926708984375,-0.996002197265625,0.0006866455078125,-0.0136566162109375
1773789994512232000,8.85923193359375,-0.9958648681640625,0.0017547607421875,-0.0132293701171875
1773789994532196900,8.87919677734375,-0.9956207275390625,0.0010528564453125,-0.0130767822265625
1773789994552162000,8.899162109375,-0.996063232421875,0.0017547607421875,-0.0132904052734375
1773789994572127000,8.919126953125,-0.9959869384765625,0.0011138916015625,-0.0128936767578125
1773789994592092000,8.939091796875,-0.9960479736328125,0.0021209716796875,-0.0131988525390625
1773789994612057000,8.95905712890625,-0.9961700439453125,0.0021514892578125,-0.0135345458984375
1773789994632022800,8.979022705078124,-0.9952545166015625,0.0023345947265625,-0.0137939453125
1773789994651987700,8.99898779296875,-0.9957733154296875,0.00189208984375,-0.014373779296875
1773789994671953000,9.018952880859375,-0.99578857421875,0.00201416015625,-0.0136871337890625
1773789994691917800,9.038917724609375,-0.9960784912109375,0.0010986328125,-0.014190673828125
1773789994711882800,9.0588828125,-0.9944915771484375,0.0014495849609375,-0.01373291015625
1773789994731847700,9.07884765625,-0.9959869384765625,0.00164794921875,-0.01300048828125
1773789994751812900,9.098812744140625,-0.995269775390625,0.00213623046875,-0.014068603515625
1773789994771778800,9.11877880859375,-0.9951019287109375,0.0007781982421875,-0.01214599609375
1773789994791743700,9.13874365234375,-0.995025634765625,0.0014495849609375,-0.01239013671875
1773789994811709000,9.158708984375,-0.9963226318359375,0.001251220703125,-0.013519287109375
1773789994831673900,9.178673828125,-0.995361328125,0.0012664794921875,-0.0136871337890625
1773789994851638800,9.198638671875,-0.99554443359375,0.0015411376953125,-0.01348876953125
1773789994871604000,9.21860400390625,-0.9957275390625,0.0027313232421875,-0.0135498046875
1773789994891569000,9.23856884765625,-0.996490478515625,0.000732421875,-0.0133056640625
1773789994911533800,9.258533935546875,-0.9959259033203125,0.0026092529296875,-0.01318359375
1773789994931500000,9.2785,-0.9954986572265625,0.001556396484375,-0.01318359375
1773789994951465000,9.29846484375,-0.995849609375,0.0014495849609375,-0.01275634765625
1773789994971430000,9.318429931640624,-0.9967193603515625,0.0004119873046875,-0.013671875
1773789994991394800,9.338394775390626,-0.995574951171875,0.002227783203125,-0.013336181640625
1773789995011360000,9.358360107421875,-0.997222900390625,0.00250244140625,-0.0131072998046875
1773789995031325000,9.378324951171875,-0.9955291748046875,0.0015106201171875,-0.0127410888671875
1773789995051289900,9.398289794921874,-0.9954833984375,0.001190185546875,-0.013092041015625
1773789995071255000,9.418255126953126,-0.9960174560546875,0.0023193359375,-0.01300048828125
1773789995091220000,9.438219970703125,-0.995635986328125,0.0018310546875,-0.012542724609375
1773789995111185700,9.458185546875,-0.996337890625,0.0005035400390625,-0.0128631591796875
1773789995131150800,9.47815087890625,-0.9951324462890625,0.0022735595703125,-0.01287841796875
1773789995151115800,9.49811572265625,-0.9953460693359375,0.0024871826171875,-0.013702392578125
1773789995171081500,9.51808154296875,-0.9975128173828125,0.003204345703125,-0.013580322265625
1773789995191046400,9.53804638671875,-0.996490478515625,0.001708984375,-0.0131072998046875
1773789995211011300,9.55801123046875,-0.9949798583984375,0.00128173828125,-0.01348876953125
1773789995230976500,9.5779765625,-0.995361328125,0.00225830078125,-0.014190673828125
1773789995250941400,9.59794140625,-0.9961090087890625,0.0011749267578125,-0.01373291015625
1773789995270907600,9.61790771484375,-0.9962921142578125,0.001739501953125,-0.01300048828125
1773789995290872600,9.63787255859375,-0.9956512451171875,0.002593994140625,-0.014190673828125
1773789995310837500,9.65783740234375,-0.9944915771484375,0.0012359619140625,-0.014373779296875
1773789995330802400,9.677802490234376,-0.996185302734375,0.0017547607421875,-0.0135955810546875
1773789995350767600,9.697767578125,-0.9952850341796875,0.0035247802734375,-0.0142669677734375
1773789995370732500,9.717732666015625,-0.9957733154296875,0.00146484375,-0.01470947265625
1773789995390697500,9.737697509765624,-0.9966278076171875,0.001312255859375,-0.01300048828125
1773789995410662400,9.757662353515625,-0.995208740234375,0.0024871826171875,-0.0136260986328125
1773789995430627600,9.777627685546875,-0.9962310791015625,0.00164794921875,-0.0133819580078125
1773789995450593500,9.797593505859375,-0.9962310791015625,0.000946044921875,-0.0130462646484375
1773789995470558700,9.817558837890624,-0.9957122802734375,0.0021820068359375,-0.0141448974609375
1773789995490523600,9.837523681640626,-0.995819091796875,0.0019073486328125,-0.0141754150390625
1773789995510488600,9.857488525390625,-0.9953765869140625,0.00213623046875,-0.0131072998046875
1773789995530453500,9.87745361328125,-0.995941162109375,0.0012359619140625,-0.013885498046875
1773789995550418700,9.897418701171874,-0.995819091796875,0.002471923828125,-0.0134429931640625
1773789995570383600,9.917383544921876,-0.9959564208984375,0.0007476806640625,-0.014984130859375
1773789995590348500,9.9373486328125,-0.9957733154296875,0.0025634765625,-0.013671875
1773789995610313500,9.9573134765625,-0.9959869384765625,0.001373291015625,-0.014801025390625
1773789995630278700,9.977278564453124,-0.995452880859375,0.0017547607421875,-0.0129241943359375
1773789995650244400,9.997244384765626,-0.9974212646484375,0.0009613037109375,-0.0140228271484375
1773789995670209500,10.01720947265625,-0.9954986572265625,0.00140380859375,-0.01318359375
1773789995690174500,10.037174560546875,-0.995758056640625,0.0016326904296875,-0.012664794921875
1773789995710139400,10.057139404296874,-0.9946136474609375,0.002838134765625,-0.0150604248046875
1773789995730104300,10.077104248046876,-0.9954071044921875,0.001739501953125,-0.0130462646484375
1773789995750069500,10.097069580078125,-0.9962158203125,0.002777099609375,-0.0131683349609375
1773789995770034400,10.117034423828125,-0.995819091796875,0.0012359619140625,-0.012969970703125
1773789995789999400,10.136999267578124,-0.9959869384765625,0.0024566650390625,-0.0127410888671875
1773789995809964500,10.156964599609376,-0.99591064453125,0.002227783203125,-0.0142364501953125
1773789995829930500,10.176930419921876,-0.9954376220703125,0.0018463134765625,-0.0134124755859375
1773789995849895400,10.1968955078125,-0.9954833984375,0.00213623046875,-0.0135345458984375
1773789995869860400,10.2168603515625,-0.9960174560546875,0.001190185546875,-0.0133209228515625
1773789995889825500,10.236825439453124,-0.9950408935546875,0.001617431640625,-0.0131378173828125
1773789995909790500,10.25679052734375,-0.9960479736328125,0.001708984375,-0.0132293701171875
1773789995929755400,10.27675537109375,-0.9965972900390625,0.0020904541015625,-0.01275634765625
1773789995949720600,10.296720458984375,-0.995849609375,0.000885009765625,-0.013671875
1773789995969685500,10.316685546875,-0.9965057373046875,0.00274658203125,-0.01458740234375
1773789995989650400,10.336650390625,-0.9962005615234375,0.0017852783203125,-0.0128173828125
1773789996009615400,10.356615478515625,-0.9959564208984375,0.0014190673828125,-0.013641357421875
1773789996029580500,10.37658056640625,-0.9965667724609375,0.0019378662109375,-0.012298583984375
1773789996049546500,10.39654638671875,-0.9966888427734375,0.0024566650390625,-0.0136871337890625
1773789996069511400,10.416511474609376,-0.9953460693359375,0.0013580322265625,-0.0129241943359375
1773789996089476600,10.4364765625,-0.996795654296875,0.002532958984375,-0.013702392578125
1773789996109441500,10.456441650390625,-0.994964599609375,0.0008544921875,-0.014404296875
1773789996129406500,10.476406494140624,-0.99554443359375,0.00286865234375,-0.0142974853515625
1773789996149371600,10.49637158203125,-0.99566650390625,0.002410888671875,-0.0137176513671875
1773789996169335800,10.516335693359375,-0.9957275390625,0.00274658203125,-0.013031005859375
1773789996189301000,10.536301025390625,-0.9956207275390625,0.0028839111328125,-0.0138702392578125
1773789996209266000,10.556265869140624,-0.9954071044921875,0.00091552734375,-0.0140838623046875
1773789996229230800,10.57623095703125,-0.9959259033203125,0.0021514892578125,-0.013214111328125
1773789996249197000,10.596197021484375,-0.9958343505859375,0.001739501953125,-0.0140228271484375
1773789996269162000,10.616161865234375,-0.9954833984375,0.0022430419921875,-0.012298583984375
1773789996289127000,10.636126953125,-0.9970550537109375,0.0019378662109375,-0.0144195556640625
1773789996309091800,10.656091796875,-0.9952239990234375,0.0016937255859375,-0.0139923095703125
1773789996329057000,10.67605712890625,-0.995513916015625,0.0020751953125,-0.01446533203125
1773789996349022000,10.69602197265625,-0.9971923828125,0.00164794921875,-0.011993408203125
1773789996368987000,10.71598681640625,-0.9950408935546875,0.0017852783203125,-0.0130462646484375
1773789996388952000,10.7359521484375,-0.9954833984375,0.0028839111328125,-0.014923095703125
1773789996408917000,10.7559169921875,-0.9962158203125,0.002197265625,-0.0126800537109375
1773789996428882000,10.7758818359375,-0.996246337890625,0.00299072265625,-0.0136871337890625
1773789996448846800,10.795846923828124,-0.9969024658203125,0.0023040771484375,-0.01324462890625
1773789996468813000,10.81581298828125,-0.996246337890625,0.0019073486328125,-0.01409912109375
1773789996488778000,10.835778076171875,-0.9959869384765625,0.001068115234375,-0.01361083984375
1773789996508743000,10.855742919921875,-0.9950714111328125,0.0009765625,-0.0146484375
1773789996528708000,10.8757080078125,-0.996002197265625,0.0013580322265625,-0.01318359375
1773789996548673000,10.895673095703126,-0.996368408203125,0.0015106201171875,-0.013946533203125
1773789996568638000,10.915637939453125,-0.9963836669921875,0.0023345947265625,-0.0134124755859375
1773789996588603100,10.93560302734375,-0.9962005615234375,0.0020751953125,-0.01300048828125
1773789996608568000,10.955568115234374,-0.9951934814453125,0.0021514892578125,-0.01434326171875
1773789996628533000,10.975532958984376,-0.995697021484375,0.0018310546875,-0.0137481689453125
1773789996648498000,10.995497802734375,-0.9950714111328125,0.002105712890625,-0.012451171875
1773789996668463000,11.015463134765625,-0.9967498779296875,0.00091552734375,-0.0125885009765625
1773789996688428000,11.035427978515624,-0.994171142578125,0.001251220703125,-0.0128326416015625
1773789996708393700,11.055393798828124,-0.9965362548828125,0.0018768310546875,-0.014007568359375
1773789996728359000,11.07535888671875,-0.9953765869140625,0.001953125,-0.0130767822265625
1773789996748323800,11.09532373046875,-0.9958038330078125,0.001800537109375,-0.012664794921875
1773789996768288800,11.115288818359375,-0.9950103759765625,0.0014801025390625,-0.013916015625
1773789996788254000,11.13525390625,-0.9962921142578125,0.0023040771484375,-0.0128631591796875
1773789996808219000,11.155218994140625,-0.9941253662109375,0.003448486328125,-0.0138397216796875
1773789996828183800,11.175183837890625,-0.9975128173828125,0.0014495849609375,-0.0124359130859375
1773789996848148700,11.195148681640624,-0.9963226318359375,0.0009765625,-0.0138092041015625
1773789996868115000,11.215114990234374,-0.9954071044921875,0.0019378662109375,-0.0131072998046875
1773789996888080000,11.235079833984376,-0.9949951171875,0.000762939453125,-0.01312255859375
1773789996908044800,11.255044921875,-0.9959259033203125,0.00177001953125,-0.013092041015625
1773789996928010000,11.275010009765625,-0.99530029296875,0.001861572265625,-0.0120849609375
1773789996947975000,11.294974853515624,-0.9959716796875,0.00128173828125,-0.013946533203125
1773789996967939800,11.31493994140625,-0.9947662353515625,0.0025787353515625,-0.013671875
1773789996987904800,11.33490478515625,-0.9946441650390625,0.001953125,-0.0139617919921875
1773789997007870000,11.354869873046875,-0.9971160888671875,0.001129150390625,-0.0128631591796875
1773789997027835000,11.3748349609375,-0.9947052001953125,0.0005645751953125,-0.013397216796875
1773789997047799800,11.3947998046875,-0.9953155517578125,0.0013580322265625,-0.0130462646484375
1773789997067765000,11.414764892578125,-0.995819091796875,0.0012054443359375,-0.0143280029296875
1773789997087730000,11.43472998046875,-0.9959716796875,0.0015716552734375,-0.0128631591796875
1773789997107694800,11.45469482421875,-0.9954376220703125,0.0017242431640625,-0.0139007568359375
1773789997127661000,11.4746611328125,-0.995513916015625,0.001983642578125,-0.0142822265625
1773789997147626000,11.4946259765625,-0.9952850341796875,0.0020294189453125,-0.0133209228515625
1773789997167591400,11.51459130859375,-0.9954986572265625,0.0021820068359375,-0.0138092041015625
1773789997187556400,11.534556396484374,-0.99456787109375,0.002899169921875,-0.012908935546875
1773789997207520300,11.554520263671876,-0.9966278076171875,0.0012969970703125,-0.0145721435546875
1773789997227486500,11.574486572265625,-0.9961700439453125,0.000701904296875,-0.01361083984375
1773789997247451400,11.594451416015625,-0.9950714111328125,0.0025634765625,-0.013641357421875
1773789997267416600,11.61441650390625,-0.9963836669921875,0.0018463134765625,-0.0130615234375
1773789997287381500,11.634381591796876,-0.9969482421875,0.0031585693359375,-0.013275146484375
1773789997307346400,11.654346435546875,-0.99560546875,0.001556396484375,-0.0137939453125
1773789997327311400,11.674311279296875,-0.9954071044921875,0.0017242431640625,-0.014373779296875
1773789997347276500,11.694276611328124,-0.995758056640625,0.001495361328125,-0.0138092041015625
1773789997367241500,11.714241455078126,-0.9947357177734375,0.0025634765625,-0.0127105712890625
1773789997387206400,11.734206298828125,-0.995758056640625,0.0022430419921875,-0.012664794921875
1773789997407171300,11.75417138671875,-0.9952239990234375,0.000823974609375,-0.013824462890625
1773789997427136500,11.774136474609374,-0.99700927734375,0.0019683837890625,-0.0135498046875
1773789997447101400,11.794101318359376,-0.995391845703125,0.0023651123046875,-0.0133209228515625
1773789997467066400,11.81406640625,-0.9947509765625,0.0010223388671875,-0.013580322265625
1773789997487031600,11.834031494140625,-0.99566650390625,0.0023345947265625,-0.014007568359375
1773789997506996500,11.85399658203125,-0.99639892578125,0.0016021728515625,-0.0121002197265625
1773789997526962200,11.873962158203126,-0.9963226318359375,0.0007171630859375,-0.0145263671875
1773789997546927400,11.89392724609375,-0.995697021484375,0.0011138916015625,-0.0131378173828125
1773789997566892300,11.913892333984375,-0.99554443359375,0.0016632080078125,-0.0127105712890625
1773789997586857200,11.933857177734374,-0.9960174560546875,0.00189208984375,-0.014373779296875
1773789997606822100,11.953822265625,-0.9957122802734375,0.0018310546875,-0.0129241943359375
1773789997626787300,11.973787353515625,-0.9956512451171875,0.00189208984375,-0.012115478515625
1773789997646752300,11.993752197265625,-0.995941162109375,0.001312255859375,-0.0137786865234375
1773789997666717200,12.01371728515625,-0.99444580078125,0.0015411376953125,-0.0133514404296875
1773789997686682400,12.033682373046876,-0.9965667724609375,0.002777099609375,-0.013458251953125
1773789997706647300,12.053647216796875,-0.9966583251953125,0.00250244140625,-0.0138397216796875
1773789997726612200,12.0736123046875,-0.9965362548828125,0.0015716552734375,-0.01312255859375
1773789997746577200,12.0935771484375,-0.9964447021484375,0.0017852783203125,-0.0131683349609375
1773789997766542300,12.113542236328126,-0.995849609375,0.002166748046875,-0.01336669921875
1773789997786507300,12.13350732421875,-0.99542236328125,0.001983642578125,-0.0143280029296875
1773789997806472200,12.15347216796875,-0.995758056640625,0.001739501953125,-0.0139007568359375
1773789997826437400,12.173437255859374,-0.99639892578125,0.0004730224609375,-0.0134735107421875
1773789997846403300,12.1934033203125,-0.9950714111328125,0.001708984375,-0.0140380859375
1773789997866368300,12.2133681640625,-0.9970550537109375,0.0020294189453125,-0.0142822265625
1773789997886333400,12.23333349609375,-0.9968719482421875,0.0024871826171875,-0.0136260986328125
1773789997906298400,12.25329833984375,-0.9960784912109375,0.00274658203125,-0.0127105712890625
1773789997926263300,12.27326318359375,-0.9960174560546875,0.0020904541015625,-0.0135040283203125
1773789997946228200,12.293228271484375,-0.995025634765625,0.0014495849609375,-0.0131988525390625
1773789997966193400,12.313193359375,-0.995697021484375,0.0020751953125,-0.012664794921875
1773789997986158300,12.333158447265625,-0.996612548828125,0.001861572265625,-0.0142974853515625
1773789998006123300,12.353123291015624,-0.9961395263671875,0.00128173828125,-0.0132904052734375
1773789998026088400,12.37308837890625,-0.9965667724609375,0.0023651123046875,-0.01458740234375
1773789998046053400,12.393053466796875,-0.9944305419921875,0.00201416015625,-0.013336181640625
1773789998066018300,12.413018310546875,-0.9951171875,0.0019073486328125,-0.013092041015625
1773789998085983200,12.432983154296876,-0.9966278076171875,0.0010223388671875,-0.013946533203125
1773789998105948400,12.452948486328125,-0.9951629638671875,0.0009918212890625,-0.0129547119140625
1773789998125913300,12.472913330078125,-0.9966278076171875,0.0020904541015625,-0.014556884765625
1773789998145878300,12.492878173828124,-0.99591064453125,0.0016632080078125,-0.0134735107421875
1773789998165843000,12.512843017578126,-0.99676513671875,0.002288818359375,-0.0140380859375
1773789998185808000,12.532807861328125,-0.996978759765625,0.0014190673828125,-0.0139617919921875
1773789998205773800,12.55277392578125,-0.9947509765625,0.000732421875,-0.0134429931640625
1773789998225739000,12.572739013671875,-0.995758056640625,0.0019378662109375,-0.0129547119140625
1773789998245704000,12.592703857421874,-0.99627685546875,0.001678466796875,-0.0133209228515625
1773789998265668900,12.6126689453125,-0.99676513671875,0.00274658203125,-0.013885498046875
1773789998285633800,12.6326337890625,-0.9951324462890625,0.0006561279296875,-0.01336669921875
1773789998305599000,12.652598876953125,-0.9952850341796875,0.0023345947265625,-0.0124969482421875
1773789998325564000,12.67256396484375,-0.9964141845703125,0.00238037109375,-0.0143280029296875
1773789998345528800,12.69252880859375,-0.9951324462890625,0.0018463134765625,-0.013427734375
1773789998365494000,12.712493896484375,-0.99578857421875,0.001190185546875,-0.0132904052734375
1773789998385459000,12.732458984375,-0.9960174560546875,0.0010528564453125,-0.0142364501953125
1773789998405423900,12.752423828125,-0.99493408203125,0.0020904541015625,-0.0142822265625
1773789998425388800,12.772388916015625,-0.9953155517578125,0.001312255859375,-0.0132598876953125
1773789998445354000,12.79235400390625,-0.9963531494140625,0.001739501953125,-0.014373779296875
1773789998465319000,12.81231884765625,-0.9957427978515625,0.002166748046875,-0.0130767822265625
1773789998485283800,12.832283935546876,-0.99591064453125,0.0019073486328125,-0.0137176513671875
1773789998505248800,12.852248779296875,-0.995849609375,0.001617431640625,-0.012603759765625
1773789998525214000,12.8722138671875,-0.9961700439453125,0.00213623046875,-0.01361083984375
1773789998545179000,12.892178955078125,-0.9947662353515625,0.00152587890625,-0.0135345458984375
1773789998565143800,12.912143798828126,-0.9966278076171875,0.002471923828125,-0.014404296875
1773789998585110000,12.932110107421876,-0.9959564208984375,0.002471923828125,-0.0130462646484375
1773789998605075000,12.952074951171875,-0.9956817626953125,0.001617431640625,-0.013092041015625
1773789998625040000,12.972039794921875,-0.9961090087890625,0.002349853515625,-0.0132293701171875
1773789998645005000,12.992005126953124,-0.996124267578125,0.001800537109375,-0.013275146484375
1773789998664970000,13.011969970703126,-0.99542236328125,0.002288818359375,-0.0131072998046875
1773789998684935000,13.031934814453125,-0.9965057373046875,0.0009918212890625,-0.0133819580078125
1773789998704899800,13.05189990234375,-0.9960784912109375,0.0015106201171875,-0.013824462890625
1773789998724865000,13.071864990234374,-0.994232177734375,0.0018310546875,-0.012664794921875
1773789998744830000,13.091829833984375,-0.9963226318359375,0.00213623046875,-0.013580322265625
1773789998764795000,13.111794921875,-0.9968414306640625,0.00262451171875,-0.0130615234375
1773789998784760000,13.131760009765625,-0.9965667724609375,0.001434326171875,-0.0126495361328125
1773789998804725000,13.15172509765625,-0.9963226318359375,0.0015869140625,-0.0138702392578125
1773789998824690000,13.17168994140625,-0.995758056640625,0.0023345947265625,-0.0139312744140625
1773789998844654800,13.19165478515625,-0.99566650390625,0.002349853515625,-0.0117950439453125
1773789998864620000,13.2116201171875,-0.995086669921875,0.00250244140625,-0.01373291015625
1773789998884585000,13.2315849609375,-0.9957122802734375,0.002105712890625,-0.0134124755859375
1773789998904550000,13.2515498046875,-0.993499755859375,0.0013580322265625,-0.01287841796875
1773789998924515000,13.27151513671875,-0.996673583984375,0.00225830078125,-0.01324462890625
1773789998944480000,13.29147998046875,-0.995361328125,0.0026397705078125,-0.0142974853515625
1773789998964445000,13.31144482421875,-0.996246337890625,0.00177001953125,-0.013671875
1773789998984409900,13.331409912109375,-0.99468994140625,0.00201416015625,-0.0141754150390625
1773789999004375000,13.351375,-0.997039794921875,0.0013427734375,-0.0130767822265625
1773789999024340000,13.371340087890625,-0.9939422607421875,0.00238037109375,-0.0120697021484375
1773789999044305000,13.391304931640626,-0.9955902099609375,0.0015106201171875,-0.0137786865234375
1773789999064270000,13.41127001953125,-0.99505615234375,0.0012969970703125,-0.0128936767578125
1773789999084235000,13.431235107421875,-0.995361328125,0.0028076171875,-0.013458251953125
1773789999104200000,13.451199951171875,-0.996856689453125,0.001373291015625,-0.013427734375
1773789999124166000,13.471165771484374,-0.9954071044921875,0.0021820068359375,-0.0130767822265625
1773789999144131000,13.491131103515626,-0.9972991943359375,0.001922607421875,-0.0140380859375
1773789999164096300,13.51109619140625,-0.99554443359375,0.002105712890625,-0.01202392578125
1773789999184061200,13.531061279296875,-0.9963226318359375,0.0021820068359375,-0.0137939453125
1773789999204026000,13.551026123046874,-0.9959869384765625,0.0020294189453125,-0.0124359130859375
1773789999223991300,13.5709912109375,-0.9954681396484375,0.0006866455078125,-0.0140380859375
1773789999243956200,13.590956298828125,-0.995147705078125,0.0022735595703125,-0.01409912109375
1773789999263921200,13.610921142578125,-0.9965057373046875,0.0027313232421875,-0.0128631591796875
1773789999283886000,13.630885986328124,-0.9955596923828125,0.0014801025390625,-0.0123291015625
1773789999303851300,13.650851318359376,-0.9967041015625,0.0022125244140625,-0.01312255859375
1773789999323816200,13.670816162109375,-0.994842529296875,0.000762939453125,-0.012481689453125
1773789999343781000,13.690781005859375,-0.995361328125,0.0022125244140625,-0.0138702392578125
1773789999363746000,13.71074609375,-0.9958038330078125,0.0016632080078125,-0.0142974853515625
1773789999383711200,13.730711181640626,-0.9958343505859375,0.0012969970703125,-0.012420654296875
1773789999403676200,13.75067626953125,-0.99615478515625,0.0023345947265625,-0.0146331787109375
1773789999423641000,13.77064111328125,-0.99542236328125,0.001922607421875,-0.0131072998046875
1773789999443606300,13.790606201171874,-0.995849609375,0.0008087158203125,-0.0132293701171875
1773789999463571200,13.8105712890625,-0.995147705078125,0.0028076171875,-0.011962890625
1773789999483536100,13.8305361328125,-0.9954833984375,0.0005645751953125,-0.0133819580078125
1773789999503501000,13.8505009765625,-0.9955291748046875,0.0028839111328125,-0.0135498046875
1773789999523466200,13.87046630859375,-0.9959259033203125,0.0020751953125,-0.013092041015625
1773789999543431200,13.89043115234375,-0.9949798583984375,0.0013580322265625,-0.0137939453125
1773789999563396000,13.91039599609375,-0.99481201171875,0.0023193359375,-0.013671875
1773789999583361300,13.930361328125,-0.995269775390625,0.0022430419921875,-0.01373291015625
1773789999603326200,13.950326171875,-0.9964599609375,0.00189208984375,-0.0138702392578125
1773789999623291100,13.970291015625,-0.995391845703125,0.0018768310546875,-0.01336669921875
1773789999643256000,13.990256103515625,-0.995697021484375,0.0022430419921875,-0.013916015625
1773789999663221200,14.01022119140625,-0.995849609375,0.0018463134765625,-0.012359619140625
1773789999683186200,14.030186279296874,-0.9949951171875,0.0020294189453125,-0.01422119140625
1773789999703151000,14.050151123046875,-0.9954986572265625,0.0008544921875,-0.012603759765625
1773789999723116000,14.070115966796875,-0.9952239990234375,0.0020904541015625,-0.0130767822265625
1773789999743081200,14.090081298828125,-0.996063232421875,0.002777099609375,-0.0132293701171875
1773789999763046100,14.110046142578126,-0.996734619140625,0.002197265625,-0.014312744140625
1773789999783011000,14.130010986328125,-0.9955596923828125,0.0017547607421875,-0.0123443603515625
1773789999802976300,14.149976318359375,-0.9953460693359375,0.0015106201171875,-0.012969970703125
1773789999822941200,14.169941162109374,-0.996002197265625,0.00225830078125,-0.0124359130859375
1773789999842906000,14.189906005859376,-0.9947357177734375,0.0022430419921875,-0.0137939453125
1773789999862871300,14.209871337890625,-0.9965057373046875,0.0023651123046875,-0.013458251953125
1773789999882836200,14.229836181640625,-0.9962615966796875,0.0017852783203125,-0.0134429931640625
1773789999902801200,14.24980126953125,-0.995635986328125,0.0022125244140625,-0.0133056640625
1773789999922766300,14.269766357421876,-0.9965057373046875,0.0023345947265625,-0.0133209228515625
1773789999942732300,14.289732177734376,-0.9951171875,0.00189208984375,-0.0135650634765625
1773789999962697200,14.309697265625,-0.9952239990234375,0.0027618408203125,-0.013153076171875
1773789999982662100,14.329662109375,-0.99542236328125,0.00048828125,-0.012939453125
1773790000002627300,14.34962744140625,-0.9949951171875,0.0030364990234375,-0.0125732421875
1773790000022592300,14.36959228515625,-0.99493408203125,0.0021209716796875,-0.013214111328125
1773790000042557200,14.38955712890625,-0.995361328125,0.00250244140625,-0.0152587890625
1773790000062522000,14.409522216796875,-0.9953155517578125,0.0011749267578125,-0.0117340087890625
1773790000082487300,14.4294873046875,-0.9949951171875,0.001861572265625,-0.01287841796875
1773790000102452200,14.4494521484375,-0.9962615966796875,0.0018157958984375,-0.0129547119140625
1773790000122417200,14.469417236328125,-0.9952239990234375,0.0002593994140625,-0.0138092041015625
1773790000142382300,14.48938232421875,-0.9966583251953125,0.0019683837890625,-0.0129241943359375
1773790000162347300,14.50934716796875,-0.9957427978515625,0.0018157958984375,-0.0130767822265625
1773790000182312700,14.529312744140626,-0.9967193603515625,0.00140380859375,-0.01336669921875
1773790000202277600,14.549277587890625,-0.995208740234375,0.00091552734375,-0.0127410888671875
1773790000222242800,14.569242919921875,-0.995269775390625,0.0016021728515625,-0.0140228271484375
1773790000242207700,14.589207763671874,-0.995269775390625,0.0009765625,-0.0143280029296875
1773790000262172700,14.609172607421876,-0.9962615966796875,0.001708984375,-0.0125579833984375
1773790000282137600,14.6291376953125,-0.9959259033203125,0.0011749267578125,-0.01385498046875
1773790000302102800,14.649102783203125,-0.9956512451171875,0.002777099609375,-0.0145263671875
1773790000322067700,14.669067626953124,-0.9959259033203125,0.0005645751953125,-0.01385498046875
1773790000342032600,14.68903271484375,-0.9943389892578125,0.0019073486328125,-0.0140228271484375
1773790000361997800,14.708997802734375,-0.9960784912109375,0.0022125244140625,-0.0136871337890625
1773790000381962800,14.728962646484375,-0.9966278076171875,0.0015716552734375,-0.0122222900390625
1773790000401927700,14.748927734375,-0.99554443359375,0.00079345703125,-0.013671875
1773790000421892600,14.768892578125,-0.996490478515625,0.0023193359375,-0.0134735107421875
1773790000441857800,14.78885791015625,-0.99639892578125,0.0006103515625,-0.0130767822265625
1773790000461822700,14.80882275390625,-0.995147705078125,0.002410888671875,-0.0129547119140625
1773790000481787600,14.82878759765625,-0.996185302734375,0.001922607421875,-0.012939453125
1773790000501752800,14.8487529296875,-0.994903564453125,0.0027008056640625,-0.0136260986328125
1773790000521717800,14.8687177734375,-0.9968414306640625,0.00152587890625,-0.012725830078125
1773790000541682700,14.8886826171875,-0.9953155517578125,0.001556396484375,-0.0128631591796875
1773790000561647600,14.908647705078126,-0.99652099609375,0.001373291015625,-0.014495849609375
1773790000581612800,14.92861279296875,-0.99481201171875,0.0015716552734375,-0.012420654296875
1773790000601577700,14.94857763671875,-0.9964447021484375,0.0012969970703125,-0.0142059326171875
1773790000621542700,14.968542724609375,-0.9948883056640625,0.0026702880859375,-0.014404296875
1773790000641507600,14.988507568359376,-0.99603271484375,0.0018463134765625,-0.01263427734375
1773790000661472800,15.00847265625,-0.996490478515625,0.0019073486328125,-0.014129638671875
1773790000681437700,15.028437744140625,-0.9961395263671875,0.0029449462890625,-0.0131072998046875
1773790000701402600,15.048402587890624,-0.99542236328125,0.0017547607421875,-0.0135345458984375
1773790000721367800,15.068367919921876,-0.9961090087890625,0.0022735595703125,-0.0131683349609375
1773790000741332700,15.088332763671875,-0.99676513671875,0.0030364990234375,-0.013763427734375
1773790000761297700,15.108297607421875,-0.995880126953125,0.002166748046875,-0.01385498046875
1773790000781262600,15.1282626953125,-0.9965362548828125,0.0017547607421875,-0.0125274658203125
1773790000801227800,15.148227783203126,-0.9954681396484375,0.003143310546875,-0.012481689453125
1773790000821192700,15.168192626953125,-0.99566650390625,0.0028228759765625,-0.013031005859375
1773790000841157600,15.18815771484375,-0.9954986572265625,0.001373291015625,-0.0136871337890625
1773790000861122800,15.208122802734374,-0.99566650390625,0.0010986328125,-0.013336181640625
1773790000881087700,15.228087646484376,-0.996368408203125,0.0024871826171875,-0.0135498046875
1773790000901052700,15.248052734375,-0.997039794921875,0.0017852783203125,-0.012359619140625
1773790000921017600,15.268017578125,-0.99609375,0.002105712890625,-0.0132598876953125
1773790000940982800,15.287982666015624,-0.9962921142578125,0.001708984375,-0.012969970703125
1773790000960947700,15.30794775390625,-0.9957427978515625,0.0012969970703125,-0.0139007568359375
1773790000980912600,15.32791259765625,-0.9954833984375,0.002197265625,-0.01409912109375
1773790001000877600,15.347877685546875,-0.995208740234375,0.0016021728515625,-0.013031005859375
1773790001020842800,15.3678427734375,-0.996124267578125,0.0016937255859375,-0.013214111328125
1773790001040807700,15.3878076171875,-0.9958343505859375,0.0022735595703125,-0.012847900390625
1773790001060772600,15.407772705078125,-0.99609375,0.0020599365234375,-0.01385498046875
1773790001080737800,15.42773779296875,-0.995880126953125,0.0016326904296875,-0.0139923095703125
1773790001100702700,15.44770263671875,-0.9954681396484375,0.0025177001953125,-0.0135345458984375
1773790001120667600,15.467667724609376,-0.995880126953125,0.001983642578125,-0.011688232421875
1773790001140632600,15.487632568359375,-0.9966888427734375,0.001556396484375,-0.0139007568359375
1773790001160597800,15.50759765625,-0.995880126953125,0.0021820068359375,-0.0143280029296875
1773790001180562400,15.5275625,-0.99554443359375,0.0024871826171875,-0.01287841796875
1773790001200527400,15.54752734375,-0.99664306640625,0.0020599365234375,-0.01385498046875
1773790001220492500,15.567492431640625,-0.996246337890625,0.0018310546875,-0.0123748779296875
1773790001240457500,15.58745751953125,-0.995849609375,0.00177001953125,-0.01226806640625
1773790001260422400,15.60742236328125,-0.9971923828125,0.0023956298828125,-0.01336669921875
1773790001280387300,15.62738720703125,-0.9949493408203125,0.001708984375,-0.0143280029296875
1773790001300352500,15.6473525390625,-0.99542236328125,0.00067138671875,-0.0131378173828125
1773790001320317400,15.6673173828125,-0.9942474365234375,0.0018768310546875,-0.0135955810546875
1773790001340282400,15.687282470703124,-0.9962921142578125,0.0017242431640625,-0.013092041015625
1773790001360247300,15.707247314453125,-0.996124267578125,0.001312255859375,-0.014739990234375
1773790001380212500,15.72721240234375,-0.99639892578125,0.0018157958984375,-0.012725830078125
1773790001400177400,15.747177490234375,-0.9956207275390625,0.002471923828125,-0.012603759765625
1773790001420142300,15.767142333984374,-0.9965362548828125,0.0016326904296875,-0.0136871337890625
1773790001440107500,15.787107421875,-0.9964447021484375,0.0029296875,-0.0130157470703125
1773790001460072400,15.807072509765625,-0.9955291748046875,0.001495361328125,-0.014312744140625
1773790001480037400,15.827037353515625,-0.9954376220703125,0.0022430419921875,-0.0119781494140625
1773790001500002300,15.847002197265626,-0.9962615966796875,0.002288818359375,-0.0125885009765625
1773790001519967500,15.866967529296875,-0.9957733154296875,0.00152587890625,-0.0151214599609375
1773790001539932400,15.886932373046875,-0.9957427978515625,0.0024871826171875,-0.0138092041015625
1773790001559897300,15.9068974609375,-0.9965667724609375,0.0021820068359375,-0.01263427734375
1773790001579862500,15.926862548828124,-0.995758056640625,0.0009307861328125,-0.0130615234375
1773790001599827500,15.946827392578125,-0.9947052001953125,0.0018463134765625,-0.01275634765625
1773790001619791600,15.96679150390625,-0.9958953857421875,0.0007476806640625,-0.0123443603515625
1773790001639756500,15.986756591796874,-0.99615478515625,0.002471923828125,-0.0128936767578125
1773790001659721500,16.006721435546876,-0.995330810546875,0.0021820068359375,-0.013824462890625
1773790001679686700,16.026686767578123,-0.9953155517578125,0.002349853515625,-0.01312255859375
1773790001699651600,16.046651611328127,-0.99505615234375,0.00250244140625,-0.014251708984375
1773790001719616500,16.066616455078126,-0.9965972900390625,0.001190185546875,-0.0129547119140625
1773790001739581700,16.086581787109374,-0.9954376220703125,0.0016937255859375,-0.012969970703125
1773790001759546600,16.106546630859373,-0.995758056640625,0.002349853515625,-0.01385498046875
1773790001779511600,16.126511474609377,-0.99578857421875,0.00177001953125,-0.013519287109375
1773790001799476500,16.1464765625,-0.9958038330078125,0.002044677734375,-0.01226806640625
1773790001819441700,16.166441650390624,-0.99566650390625,0.0023956298828125,-0.0146484375
1773790001839406600,16.186406494140623,-0.995361328125,0.001312255859375,-0.0135498046875
1773790001859371500,16.20637158203125,-0.9964752197265625,0.0025634765625,-0.0137786865234375
1773790001879336700,16.226336669921874,-0.9965667724609375,0.002197265625,-0.01422119140625
1773790001899301600,16.246301513671874,-0.9953460693359375,0.0021209716796875,-0.0128173828125
1773790001919266600,16.2662666015625,-0.997528076171875,0.0025634765625,-0.0135650634765625
1773790001939231500,16.2862314453125,-0.9948883056640625,0.00140380859375,-0.0131683349609375
1773790001959196700,16.30619677734375,-0.996063232421875,0.00323486328125,-0.012786865234375
1773790001979161600,16.32616162109375,-0.99652099609375,0.001495361328125,-0.0134124755859375
1773790001999126500,16.34612646484375,-0.99560546875,0.002685546875,-0.0144195556640625
1773790002019091500,16.366091552734375,-0.9961090087890625,0.002105712890625,-0.0142974853515625
1773790002039056600,16.386056640625,-0.9955902099609375,0.002593994140625,-0.01397705078125
1773790002059021600,16.406021484375,-0.99462890625,0.0014495849609375,-0.0155181884765625
1773790002078986500,16.425986572265625,-0.995574951171875,0.001190185546875,-0.0128631591796875
1773790002098951700,16.44595166015625,-0.99560546875,0.0023193359375,-0.012603759765625
1773790002118916600,16.46591650390625,-0.9956207275390625,0.000701904296875,-0.0121612548828125
1773790002138881500,16.485881591796876,-0.9960479736328125,0.00225830078125,-0.0142669677734375
1773790002158846500,16.505846435546875,-0.99603271484375,0.0004119873046875,-0.01348876953125
1773790002178811600,16.525811767578126,-0.9954833984375,0.0022125244140625,-0.013458251953125
1773790002198776600,16.545776611328126,-0.9961395263671875,0.0021209716796875,-0.012451171875
1773790002218741500,16.565741455078125,-0.9957275390625,0.0013427734375,-0.0132904052734375
1773790002238705700,16.58570556640625,-0.9969635009765625,0.0018768310546875,-0.0138397216796875
1773790002258670600,16.605670654296876,-0.99462890625,0.0017547607421875,-0.0125885009765625
1773790002278635500,16.625635498046876,-0.9963531494140625,0.001708984375,-0.01336669921875
1773790002298600400,16.645600341796875,-0.996002197265625,0.0021209716796875,-0.01409912109375
1773790002318565600,16.665565673828127,-0.9958648681640625,0.00091552734375,-0.0134735107421875
1773790002338530600,16.685530517578126,-0.996673583984375,0.001373291015625,-0.0135650634765625
1773790002358495500,16.70549560546875,-0.995758056640625,0.001068115234375,-0.01275634765625
1773790002378460700,16.725460693359373,-0.996551513671875,0.002532958984375,-0.01385498046875
1773790002398425600,16.745425537109377,-0.996246337890625,0.00140380859375,-0.012664794921875
1773790002418390500,16.765390625,-0.9949951171875,0.0019378662109375,-0.01318359375
1773790002438355500,16.78535546875,-0.995758056640625,0.0023651123046875,-0.0133514404296875
1773790002458320600,16.805320556640623,-0.998046875,0.001678466796875,-0.0134735107421875
1773790002478285600,16.82528564453125,-0.9966278076171875,0.002197265625,-0.011962890625
1773790002498250500,16.84525048828125,-0.9968109130859375,0.0009002685546875,-0.0126495361328125
1773790002518215400,16.86521533203125,-0.9954681396484375,0.0022735595703125,-0.0124053955078125
1773790002538180600,16.8851806640625,-0.9960174560546875,0.00146484375,-0.01324462890625
1773790002558145500,16.9051455078125,-0.995361328125,0.0021820068359375,-0.0129547119140625
1773790002578110500,16.9251103515625,-0.995269775390625,0.0008087158203125,-0.0135650634765625
1773790002598075600,16.94507568359375,-0.9955902099609375,0.0029449462890625,-0.0138702392578125
1773790002618040600,16.96504052734375,-0.9947509765625,0.002166748046875,-0.013763427734375
1773790002638005500,16.985005615234375,-0.9951324462890625,0.0023193359375,-0.0130157470703125
1773790002657970400,17.004970458984374,-0.9951934814453125,0.0014495849609375,-0.013214111328125
1773790002677934600,17.0249345703125,-0.99713134765625,0.0020599365234375,-0.0139923095703125
1773790002697899500,17.0448994140625,-0.9948883056640625,0.0008544921875,-0.013275146484375
1773790002717864400,17.064864501953124,-0.995330810546875,0.0010528564453125,-0.013702392578125
1773790002737829400,17.084829345703124,-0.996673583984375,0.0015411376953125,-0.0132904052734375
1773790002757794600,17.104794677734375,-0.9957427978515625,0.001068115234375,-0.0128631591796875
1773790002777759500,17.124759521484375,-0.99627685546875,0.00079345703125,-0.01263427734375
1773790002797724400,17.144724365234374,-0.9962921142578125,0.0019378662109375,-0.01263427734375
1773790002817689300,17.164689453125,-0.995361328125,0.0032958984375,-0.0125885009765625
1773790002837654500,17.184654541015625,-0.996429443359375,0.00164794921875,-0.0124359130859375
1773790002857619500,17.204619384765625,-0.9964141845703125,0.00189208984375,-0.0128021240234375
1773790002877584400,17.22458447265625,-0.99554443359375,0.001068115234375,-0.01251220703125
1773790002897549600,17.244549560546876,-0.9963531494140625,0.00177001953125,-0.0137939453125
1773790002917514500,17.264514404296875,-0.995391845703125,0.0009307861328125,-0.01318359375
1773790002937479400,17.2844794921875,-0.9960174560546875,0.001678466796875,-0.013458251953125
1773790002957444400,17.3044443359375,-0.9964141845703125,0.001708984375,-0.0127410888671875
1773790002977409500,17.324409423828126,-0.994659423828125,0.002288818359375,-0.0139007568359375
1773790002997374500,17.34437451171875,-0.9960784912109375,0.0024566650390625,-0.0130462646484375
1773790003017339400,17.36433935546875,-0.995941162109375,0.0025177001953125,-0.0148162841796875
1773790003037303600,17.384303466796876,-0.9960784912109375,0.0013275146484375,-0.01239013671875
1773790003057268700,17.404268798828124,-0.996368408203125,0.002288818359375,-0.0144805908203125
1773790003077233700,17.424233642578123,-0.9947357177734375,0.00128173828125,-0.0132293701171875
1773790003097198600,17.444198486328126,-0.9960479736328125,0.002044677734375,-0.0133209228515625
1773790003117163500,17.46416357421875,-0.9958648681640625,0.001312255859375,-0.012969970703125
1773790003137128700,17.484128662109374,-0.9958953857421875,0.0009765625,-0.0130615234375
1773790003157093600,17.50409375,-0.9957427978515625,0.002197265625,-0.0131378173828125
1773790003177058000,17.52405810546875,-0.9960174560546875,0.0018157958984375,-0.013427734375
1773790003197023000,17.54402294921875,-0.995819091796875,0.0022125244140625,-0.0141143798828125
1773790003216988200,17.56398828125,-0.9958648681640625,0.0006103515625,-0.0126190185546875
1773790003236953000,17.583953125,-0.9957427978515625,0.0017547607421875,-0.0137939453125
1773790003256918000,17.60391796875,-0.9949188232421875,0.0016021728515625,-0.012481689453125
1773790003276883000,17.623883056640626,-0.9958038330078125,0.002899169921875,-0.0126953125
1773790003296848100,17.64384814453125,-0.995574951171875,0.0015106201171875,-0.014404296875
1773790003316812000,17.66381201171875,-0.99603271484375,0.0009307861328125,-0.0123748779296875
1773790003336777000,17.68377685546875,-0.996551513671875,0.0002593994140625,-0.0125579833984375
1773790003356742000,17.703741943359375,-0.9959869384765625,0.0027618408203125,-0.0139312744140625
1773790003376707000,17.72370703125,-0.9958648681640625,0.001495361328125,-0.01416015625
1773790003396672000,17.743672119140626,-0.995697021484375,0.001800537109375,-0.0137939453125
1773790003416637000,17.763636962890626,-0.9967193603515625,0.001556396484375,-0.0125885009765625
1773790003436601900,17.783601806640625,-0.995574951171875,0.002899169921875,-0.0123138427734375
1773790003456567000,17.803567138671873,-0.9956817626953125,0.00262451171875,-0.0136871337890625
1773790003476532000,17.823531982421876,-0.995361328125,0.0009002685546875,-0.0132904052734375
1773790003496497000,17.843496826171876,-0.9953460693359375,0.0026702880859375,-0.013763427734375
1773790003516462000,17.863462158203124,-0.9951629638671875,0.0022125244140625,-0.012542724609375
1773790003536427000,17.883427001953127,-0.9969482421875,0.001953125,-0.013916015625
1773790003556392000,17.903391845703126,-0.993927001953125,0.00189208984375,-0.013885498046875
1773790003576356900,17.92335693359375,-0.9961395263671875,0.0015869140625,-0.01336669921875
1773790003596321000,17.943321044921873,-0.99615478515625,0.00286865234375,-0.01300048828125
1773790003616286000,17.963285888671876,-0.9953765869140625,0.001220703125,-0.0133819580078125
1773790003636251000,17.9832509765625,-0.9951171875,0.0011138916015625,-0.0121612548828125
1773790003656215800,18.0032158203125,-0.9970703125,0.0030670166015625,-0.01324462890625
1773790003676181000,18.023180908203123,-0.995361328125,0.000518798828125,-0.0141754150390625
1773790003696146000,18.04314599609375,-0.99481201171875,0.0027008056640625,-0.0132293701171875
1773790003716110800,18.06311083984375,-0.9958343505859375,0.0017242431640625,-0.0142974853515625
1773790003736075800,18.08307568359375,-0.99517822265625,0.0020294189453125,-0.013427734375
1773790003756041000,18.103041015625,-0.9955902099609375,0.002471923828125,-0.013916015625
1773790003776006000,18.123005859375,-0.9962615966796875,0.001800537109375,-0.0117645263671875
1773790003795970800,18.142970703125,-0.995941162109375,0.0027008056640625,-0.0133514404296875
1773790003815936000,18.16293603515625,-0.99603271484375,0.0018157958984375,-0.012908935546875
1773790003835901000,18.18290087890625,-0.9965362548828125,0.0019378662109375,-0.0138092041015625
1773790003855865000,18.202864990234374,-0.995635986328125,0.00103759765625,-0.0147552490234375
1773790003875830000,18.222830078125,-0.995147705078125,0.001434326171875,-0.0127410888671875
1773790003895795000,18.242794921875,-0.9945526123046875,0.0017547607421875,-0.01361083984375
1773790003915760000,18.262760009765625,-0.994781494140625,0.0012359619140625,-0.0132598876953125
1773790003935725000,18.28272509765625,-0.9960174560546875,0.001739501953125,-0.01361083984375
1773790003955690000,18.30268994140625,-0.9951629638671875,0.0023345947265625,-0.0139312744140625
1773790003975655200,18.3226552734375,-0.9957275390625,0.001861572265625,-0.01348876953125
1773790003995620000,18.3426201171875,-0.9955902099609375,0.0027618408203125,-0.01434326171875
1773790004015585000,18.3625849609375,-0.995208740234375,0.001190185546875,-0.013427734375
1773790004035550000,18.382550048828126,-0.995880126953125,0.00238037109375,-0.0121307373046875
1773790004055515100,18.40251513671875,-0.9952850341796875,0.0019989013671875,-0.013153076171875
1773790004075480000,18.42247998046875,-0.9952239990234375,0.0020904541015625,-0.013763427734375
1773790004095444000,18.44244384765625,-0.9972686767578125,0.002227783203125,-0.014373779296875
1773790004115409000,18.462408935546875,-0.9949188232421875,0.001922607421875,-0.0143280029296875
1773790004135374000,18.4823740234375,-0.9961395263671875,0.0023345947265625,-0.01348876953125
1773790004155339000,18.502339111328126,-0.9954681396484375,0.0003662109375,-0.0142822265625
1773790004175304200,18.52230419921875,-0.9954681396484375,0.0015106201171875,-0.013702392578125
1773790004195269000,18.54226904296875,-0.9964141845703125,0.002288818359375,-0.013671875
1773790004215234000,18.562234130859373,-0.996002197265625,0.003082275390625,-0.01324462890625
1773790004235199200,18.58219921875,-0.9966888427734375,0.002655029296875,-0.014862060546875
1773790004255164200,18.6021640625,-0.9966888427734375,0.0022735595703125,-0.013885498046875
1773790004275129000,18.622129150390624,-0.9961395263671875,0.001495361328125,-0.0138397216796875
1773790004295094000,18.642093994140627,-0.9958343505859375,0.0021209716796875,-0.013275146484375
1773790004315058000,18.662057861328126,-0.9952239990234375,0.0020294189453125,-0.0125732421875
1773790004335023000,18.682023193359374,-0.9962310791015625,0.000732421875,-0.01434326171875
1773790004354988000,18.701988037109373,-0.9955596923828125,0.0020294189453125,-0.0135955810546875
1773790004374953000,18.721952880859376,-0.9962615966796875,0.0016326904296875,-0.014251708984375
1773790004394918100,18.741918212890624,-0.9968414306640625,0.0005340576171875,-0.0122222900390625
1773790004414883000,18.761883056640624,-0.9966278076171875,0.001739501953125,-0.012603759765625
1773790004434848000,18.781847900390623,-0.995880126953125,0.0013427734375,-0.0121917724609375
1773790004454813000,18.80181298828125,-0.99578857421875,0.0016937255859375,-0.0130462646484375
1773790004474778000,18.821778076171874,-0.9952392578125,0.002044677734375,-0.0141754150390625
1773790004494743000,18.841742919921874,-0.9957427978515625,0.001983642578125,-0.01318359375
1773790004514707200,18.861707275390625,-0.9954376220703125,0.00079345703125,-0.0134735107421875
1773790004534672100,18.881672119140624,-0.99554443359375,0.002197265625,-0.0133514404296875
1773790004554637300,18.90163720703125,-0.99542236328125,0.002838134765625,-0.01220703125
1773790004574602200,18.921602294921875,-0.9956817626953125,0.0015106201171875,-0.0131072998046875
1773790004594567200,18.941567138671875,-0.9962921142578125,0.0014495849609375,-0.01373291015625
1773790004614532000,18.961531982421874,-0.995697021484375,0.002044677734375,-0.0135040283203125
1773790004634497300,18.981497314453126,-0.9948577880859375,0.0018310546875,-0.0125885009765625
1773790004654462200,19.001462158203125,-0.995819091796875,0.001708984375,-0.0127105712890625
1773790004674427100,19.02142724609375,-0.9953460693359375,0.001007080078125,-0.0128631591796875
1773790004694392300,19.041392333984376,-0.9965362548828125,0.0016937255859375,-0.0123443603515625
1773790004714356200,19.061356201171876,-0.99609375,0.001251220703125,-0.0138092041015625
1773790004734321200,19.081321044921875,-0.9947052001953125,0.001190185546875,-0.01336669921875
1773790004754286000,19.1012861328125,-0.9953460693359375,0.0010528564453125,-0.0133056640625
1773790004774251300,19.121251220703126,-0.9951629638671875,0.00115966796875,-0.0134124755859375
1773790004794216200,19.14121630859375,-0.99560546875,0.001129150390625,-0.0140228271484375
1773790004814181000,19.16118115234375,-0.99542236328125,0.002960205078125,-0.01300048828125
1773790004834146000,19.18114599609375,-0.9962005615234375,0.00164794921875,-0.0134429931640625
1773790004854111200,19.201111328125,-0.9961090087890625,0.0011444091796875,-0.014678955078125
1773790004874076200,19.221076171875,-0.9957122802734375,0.0007781982421875,-0.0130157470703125
1773790004894041000,19.241041015625,-0.9951171875,0.00146484375,-0.0139617919921875
1773790004914005000,19.2610048828125,-0.99542236328125,0.00189208984375,-0.01300048828125
1773790004933970200,19.28097021484375,-0.996429443359375,0.0020294189453125,-0.012908935546875
1773790004953935000,19.30093505859375,-0.9956207275390625,0.0019683837890625,-0.0135650634765625
1773790004973900000,19.320900146484377,-0.9954986572265625,0.0021820068359375,-0.01385498046875
1773790004993865000,19.340864990234376,-0.9957427978515625,0.001312255859375,-0.0124969482421875
1773790005013830100,19.360830078125,-0.996307373046875,0.0016021728515625,-0.0142364501953125
1773790005033795000,19.380795166015623,-0.996124267578125,0.0015716552734375,-0.0142364501953125
1773790005053760000,19.400760009765627,-0.9950714111328125,0.001373291015625,-0.0129241943359375
1773790005073725200,19.42072509765625,-0.9965667724609375,0.0024261474609375,-0.0134429931640625
1773790005093689000,19.440689208984374,-0.9959716796875,0.002105712890625,-0.0141448974609375
1773790005113654000,19.460654052734377,-0.9967193603515625,0.001739501953125,-0.0140838623046875
1773790005133619000,19.480618896484376,-0.996368408203125,0.0003814697265625,-0.0143585205078125
1773790005153584000,19.500584228515624,-0.9949188232421875,0.0015869140625,-0.0132904052734375
1773790005173549600,19.520549560546876,-0.99664306640625,0.0014495849609375,-0.01361083984375
1773790005193514500,19.540514404296875,-0.996856689453125,0.0009307861328125,-0.0122222900390625
1773790005213479400,19.5604794921875,-0.995758056640625,0.001373291015625,-0.0135955810546875
1773790005233444600,19.580444580078126,-0.997039794921875,0.0021209716796875,-0.0131072998046875
1773790005253409500,19.600409423828125,-0.995452880859375,0.0018157958984375,-0.0131988525390625
1773790005273373700,19.620373779296877,-0.99639892578125,0.0013427734375,-0.013641357421875
1773790005293338600,19.640338623046876,-0.9947357177734375,0.0028228759765625,-0.01318359375
1773790005313303800,19.6603037109375,-0.996826171875,0.0026702880859375,-0.0124664306640625
1773790005333268700,19.680268798828124,-0.9973907470703125,0.002593994140625,-0.0140533447265625
1773790005353233700,19.700233642578127,-0.99560546875,0.001434326171875,-0.012420654296875
1773790005373198600,19.720198486328126,-0.9961090087890625,0.00201416015625,-0.0128936767578125
1773790005393163800,19.740163818359374,-0.9960174560546875,0.001922607421875,-0.014068603515625
1773790005413128700,19.760128662109373,-0.997100830078125,0.0020294189453125,-0.01287841796875
1773790005433092600,19.780092529296876,-0.99615478515625,0.0015106201171875,-0.0144805908203125
1773790005453057500,19.8000576171875,-0.9940643310546875,0.002105712890625,-0.0145721435546875
1773790005473022700,19.820022705078124,-0.9947509765625,0.0019378662109375,-0.0133056640625
1773790005492987600,19.839987548828127,-0.9950103759765625,0.0014495849609375,-0.0139312744140625
1773790005512952600,19.85995263671875,-0.995635986328125,0.0007781982421875,-0.0131072998046875
1773790005532917500,19.87991748046875,-0.9966583251953125,0.0015411376953125,-0.0123443603515625
1773790005552882700,19.899882568359374,-0.9965972900390625,0.000518798828125,-0.01324462890625
1773790005572847600,19.91984765625,-0.99371337890625,0.002044677734375,-0.0134429931640625
1773790005592811500,19.9398115234375,-0.99481201171875,0.0011749267578125,-0.0133056640625
1773790005612776400,19.9597763671875,-0.9962310791015625,0.0022430419921875,-0.0126953125
1773790005632741600,19.97974169921875,-0.9951629638671875,0.00115966796875,-0.01318359375
1773790005652706600,19.99970654296875,-0.99664306640625,0.0017242431640625,-0.01434326171875
1773790005672671500,20.01967138671875,-0.99615478515625,0.0007476806640625,-0.01220703125
1773790005692636700,20.03963671875,-0.9956207275390625,0.0030517578125,-0.0135498046875
1773790005712601600,20.0596015625,-0.9951934814453125,0.0018768310546875,-0.0134124755859375
1773790005732565800,20.079565673828125,-0.9963531494140625,0.0017242431640625,-0.0133514404296875
1773790005752530700,20.09953076171875,-0.9947967529296875,0.001068115234375,-0.0136566162109375
1773790005772495600,20.11949560546875,-0.9954681396484375,0.000885009765625,-0.0138092041015625
1773790005792460800,20.139460693359375,-0.9957427978515625,0.0028839111328125,-0.0138397216796875
1773790005812425700,20.15942578125,-0.99505615234375,0.0027313232421875,-0.0145721435546875
1773790005832390700,20.179390625,-0.9959259033203125,0.0026397705078125,-0.0129241943359375
1773790005852355800,20.19935595703125,-0.9971771240234375,0.0020751953125,-0.0131988525390625
1773790005872320800,20.21932080078125,-0.9957275390625,0.001953125,-0.013458251953125
1773790005892284700,20.23928466796875,-0.9947052001953125,0.0023193359375,-0.0131378173828125
1773790005912249600,20.25924951171875,-0.9968109130859375,0.002227783203125,-0.013916015625
1773790005932214500,20.279214599609375,-0.99554443359375,0.000946044921875,-0.0135650634765625
1773790005952179700,20.2991796875,-0.9968109130859375,0.00250244140625,-0.014312744140625
1773790005972144600,20.31914453125,-0.9953155517578125,0.0017852783203125,-0.0135955810546875
1773790005992109600,20.339109619140626,-0.99481201171875,0.001495361328125,-0.01312255859375
1773790006012074800,20.35907470703125,-0.994873046875,0.001556396484375,-0.013641357421875
1773790006032038700,20.37903857421875,-0.996368408203125,0.002197265625,-0.01251220703125
1773790006052003600,20.399003662109376,-0.996246337890625,0.0021514892578125,-0.013031005859375
1773790006071968500,20.418968505859375,-0.995391845703125,0.00177001953125,-0.0129547119140625
1773790006091933700,20.43893359375,-0.9969635009765625,0.002044677734375,-0.0144805908203125
1773790006111898600,20.458898681640626,-0.9965667724609375,0.0022125244140625,-0.0150604248046875
1773790006131863600,20.478863525390626,-0.9950408935546875,0.001678466796875,-0.013641357421875
1773790006151828500,20.498828369140625,-0.9955902099609375,0.000579833984375,-0.01275634765625
1773790006171791600,20.51879150390625,-0.9966278076171875,0.0023193359375,-0.0139007568359375
1773790006191756800,20.5387568359375,-0.99639892578125,0.0023193359375,-0.01318359375
1773790006211721700,20.5587216796875,-0.9966583251953125,0.0018310546875,-0.0136566162109375
1773790006231686700,20.578686767578127,-0.9964141845703125,0.0018768310546875,-0.0141143798828125
1773790006251651600,20.598651611328126,-0.995880126953125,0.0010833740234375,-0.0135498046875
1773790006271616800,20.61861669921875,-0.996185302734375,0.002471923828125,-0.0128631591796875
1773790006291581700,20.638581787109374,-0.9962158203125,0.0019073486328125,-0.0121917724609375
1773790006311545600,20.658545654296876,-0.997283935546875,0.0016326904296875,-0.0138397216796875
1773790006331510500,20.678510498046876,-0.9959564208984375,0.00140380859375,-0.01287841796875
1773790006351475700,20.698475830078124,-0.9963226318359375,0.001983642578125,-0.0140380859375
1773790006371440600,20.718440673828123,-0.996185302734375,0.00201416015625,-0.013824462890625
1773790006391405600,20.738405517578126,-0.9972381591796875,0.0025177001953125,-0.0134735107421875
1773790006411370500,20.75837060546875,-0.9953155517578125,0.00091552734375,-0.013092041015625
1773790006431335700,20.778335693359374,-0.994232177734375,0.001922607421875,-0.0128173828125
1773790006451299600,20.798299560546877,-0.9967041015625,0.0018768310546875,-0.0145263671875
1773790006471264500,20.818264404296876,-0.9954071044921875,0.00225830078125,-0.01336669921875
1773790006491229400,20.8382294921875,-0.995697021484375,0.001617431640625,-0.012298583984375
1773790006511194600,20.858194580078123,-0.99591064453125,0.001861572265625,-0.013153076171875
1773790006531159600,20.87815966796875,-0.9953155517578125,0.0010986328125,-0.0128326416015625
1773790006551124500,20.89812451171875,-0.99493408203125,0.00238037109375,-0.01361083984375
1773790006571088600,20.918088623046874,-0.9965667724609375,0.0017852783203125,-0.0137786865234375
1773790006591053800,20.9380537109375,-0.995513916015625,0.0037689208984375,-0.012298583984375
1773790006611018800,20.958018798828125,-0.9967498779296875,0.001861572265625,-0.012420654296875
1773790006630983700,20.977983642578124,-0.9959716796875,0.0020599365234375,-0.0131988525390625
1773790006650948600,20.997948486328124,-0.99658203125,0.0002288818359375,-0.0126190185546875
1773790006670913800,21.017913818359375,-0.994903564453125,0.00079345703125,-0.013336181640625
1773790006690878700,21.037878662109375,-0.994781494140625,0.0016326904296875,-0.0136871337890625
1773790006710842600,21.057842529296874,-0.9957275390625,0.002685546875,-0.0139007568359375
1773790006730807600,21.0778076171875,-0.9958343505859375,0.003021240234375,-0.0135345458984375
1773790006750772700,21.097772705078125,-0.9966278076171875,0.0013427734375,-0.0139007568359375
1773790006770737700,21.117737548828124,-0.9956817626953125,0.002410888671875,-0.0133819580078125
1773790006790702600,21.13770263671875,-0.9957427978515625,0.0013427734375,-0.012054443359375
1773790006810667500,21.15766748046875,-0.9953155517578125,0.002532958984375,-0.013336181640625
1773790006830631400,21.17763134765625,-0.99609375,0.0004425048828125,-0.013519287109375
1773790006850596600,21.1975966796875,-0.9967498779296875,0.0019073486328125,-0.0122222900390625
1773790006870561500,21.2175615234375,-0.9956207275390625,0.0018310546875,-0.0128631591796875
1773790006890526500,21.2375263671875,-0.9956207275390625,0.00213623046875,-0.01385498046875
1773790006910491600,21.25749169921875,-0.9967041015625,0.00128173828125,-0.0128326416015625
1773790006930456600,21.27745654296875,-0.9952239990234375,0.001495361328125,-0.013916015625
1773790006950420700,21.297420654296875,-0.995758056640625,0.001434326171875,-0.012603759765625
1773790006970385700,21.3173857421875,-0.995941162109375,0.0018463134765625,-0.0136871337890625
1773790006990350800,21.337350830078126,-0.997161865234375,0.002349853515625,-0.01458740234375
1773790007010315800,21.357315673828126,-0.9967803955078125,0.0018157958984375,-0.0129547119140625
1773790007030280700,21.37728076171875,-0.9945831298828125,0.001861572265625,-0.0132293701171875
1773790007050245600,21.39724560546875,-0.9952545166015625,0.0025634765625,-0.0137786865234375
1773790007070209500,21.41720947265625,-0.9955596923828125,0.001434326171875,-0.012847900390625
1773790007090174700,21.4371748046875,-0.9958648681640625,0.00225830078125,-0.0134429931640625
1773790007110139600,21.4571396484375,-0.99560546875,0.0019989013671875,-0.01470947265625
1773790007130104600,21.4771044921875,-0.99566650390625,0.00286865234375,-0.0131683349609375
1773790007150069800,21.49706982421875,-0.9945068359375,0.002655029296875,-0.0134124755859375
1773790007170034700,21.51703466796875,-0.9957733154296875,0.0016632080078125,-0.0142059326171875
1773790007189998300,21.536998291015625,-0.997100830078125,0.0035247802734375,-0.012939453125
1773790007209963500,21.556963623046876,-0.99481201171875,0.0019683837890625,-0.0141143798828125
1773790007229928400,21.576928466796875,-0.996063232421875,0.00152587890625,-0.01348876953125
1773790007249893400,21.596893310546875,-0.9970855712890625,0.00189208984375,-0.0137176513671875
1773790007269858600,21.616858642578126,-0.99566650390625,0.002593994140625,-0.0133514404296875
1773790007289823500,21.636823486328126,-0.9956817626953125,0.00238037109375,-0.013214111328125
1773790007309787400,21.656787353515625,-0.9970703125,0.0013275146484375,-0.0123443603515625
1773790007329752300,21.67675244140625,-0.9958648681640625,0.0027618408203125,-0.0140228271484375
1773790007349717500,21.696717529296876,-0.99542236328125,0.0016021728515625,-0.013427734375
1773790007369682400,21.716682373046876,-0.99749755859375,0.0016021728515625,-0.0143890380859375
1773790007389647400,21.7366474609375,-0.9967498779296875,0.0015716552734375,-0.0131683349609375
1773790007409611500,21.756611572265626,-0.9965057373046875,0.001495361328125,-0.0136260986328125
1773790007429576400,21.776576416015626,-0.995880126953125,0.001739501953125,-0.01361083984375
1773790007449541600,21.796541748046874,-0.996124267578125,0.0010528564453125,-0.01336669921875
1773790007469506600,21.816506591796873,-0.99407958984375,0.0019683837890625,-0.0122222900390625
1773790007489471500,21.836471435546876,-0.99578857421875,0.0012359619140625,-0.0141448974609375
1773790007509436400,21.8564365234375,-0.9960174560546875,0.0007476806640625,-0.0134429931640625
1773790007529400600,21.876400634765623,-0.9954986572265625,0.0013427734375,-0.0139312744140625
1773790007549365500,21.896365478515627,-0.996307373046875,0.00140380859375,-0.0124359130859375
1773790007569330400,21.916330322265626,-0.9951934814453125,0.0017852783203125,-0.0134429931640625
1773790007589295400,21.93629541015625,-0.99676513671875,0.001251220703125,-0.0130615234375
1773790007609260500,21.956260498046873,-0.996429443359375,0.0005340576171875,-0.0138397216796875
1773790007629224400,21.976224365234376,-0.9954376220703125,0.0024261474609375,-0.0132293701171875
1773790007649189400,21.996189453125,-0.9959869384765625,0.001922607421875,-0.0122222900390625
1773790007669154300,22.016154296875,-0.9959564208984375,0.0030670166015625,-0.013885498046875
1773790007689119500,22.036119384765627,-0.995208740234375,0.0005340576171875,-0.0123138427734375
1773790007709084400,22.05608447265625,-0.9955596923828125,0.001617431640625,-0.0138397216796875
1773790007729049300,22.07604931640625,-0.9961090087890625,0.001434326171875,-0.0129547119140625
1773790007749013500,22.096013427734373,-0.996002197265625,0.0015716552734375,-0.0139007568359375
1773790007768978700,22.115978759765625,-0.9965362548828125,0.0019683837890625,-0.01312255859375
1773790007788943600,22.135943603515624,-0.994171142578125,0.0017242431640625,-0.0121612548828125
1773790007808908500,22.155908447265624,-0.9944610595703125,0.000885009765625,-0.0130767822265625
1773790007828873500,22.17587353515625,-0.9958038330078125,0.00128173828125,-0.0135650634765625
1773790007848837400,22.19583740234375,-0.9953155517578125,0.0012969970703125,-0.013641357421875
1773790007868802600,22.215802490234374,-0.99603271484375,0.0016937255859375,-0.0137939453125
1773790007888767500,22.235767578125,-0.9961090087890625,0.002410888671875,-0.0137176513671875
1773790007908732400,22.255732421875,-0.9953460693359375,0.0017547607421875,-0.01220703125
1773790007928697600,22.275697509765624,-0.9954986572265625,0.0018310546875,-0.01324462890625
1773790007948662500,22.29566259765625,-0.996673583984375,0.00140380859375,-0.0132904052734375
1773790007968626400,22.31562646484375,-0.9951934814453125,0.0014190673828125,-0.0128326416015625
1773790007988591400,22.33559130859375,-0.99542236328125,0.000823974609375,-0.0126800537109375
1773790008008556500,22.355556640625,-0.9957427978515625,0.0013580322265625,-0.012420654296875
1773790008028521500,22.375521484375,-0.9952239990234375,0.001495361328125,-0.0140228271484375
1773790008048486400,22.395486328125,-0.996551513671875,0.0015716552734375,-0.012939453125
1773790008068450600,22.415450439453124,-0.995819091796875,0.0018463134765625,-0.0129241943359375
1773790008088415500,22.43541552734375,-0.9957733154296875,0.0014190673828125,-0.0131378173828125
1773790008108380700,22.455380615234375,-0.996063232421875,0.0016326904296875,-0.013916015625
1773790008128345600,22.475345703125,-0.9957427978515625,0.0023193359375,-0.0137939453125
1773790008148310500,22.495310546875,-0.9964447021484375,0.00115966796875,-0.012664794921875
1773790008168275700,22.515275634765626,-0.9962005615234375,0.00225830078125,-0.0136566162109375
1773790008188240000,22.535239990234373,-0.9962158203125,0.00244140625,-0.014495849609375
1773790008208204800,22.555204833984376,-0.995849609375,0.00128173828125,-0.0130462646484375
1773790008228170000,22.575169921875,-0.996490478515625,0.0019073486328125,-0.012908935546875
1773790008248135000,22.595135009765624,-0.9953155517578125,0.0017242431640625,-0.013702392578125
1773790008268099800,22.615099853515623,-0.9958648681640625,0.0010223388671875,-0.013214111328125
1773790008288063700,22.635063720703126,-0.9951171875,0.0012359619140625,-0.0125732421875
1773790008308029000,22.65502880859375,-0.9958343505859375,0.0019683837890625,-0.012725830078125
1773790008327993900,22.674993896484374,-0.9954681396484375,0.001678466796875,-0.013427734375
1773790008347958800,22.694958740234377,-0.9969329833984375,0.001556396484375,-0.013397216796875
1773790008367924000,22.714924072265624,-0.9954833984375,0.000732421875,-0.0141754150390625
1773790008387889000,22.734888916015624,-0.995147705078125,0.0014801025390625,-0.01348876953125
1773790008407852800,22.754852783203123,-0.9952239990234375,0.0021820068359375,-0.01336669921875
1773790008427817700,22.774817626953126,-0.9957427978515625,0.0022430419921875,-0.0135955810546875
1773790008447782700,22.79478271484375,-0.9954376220703125,0.0030364990234375,-0.01361083984375
1773790008467747800,22.814747802734374,-0.9947662353515625,0.0019683837890625,-0.01373291015625
1773790008487712800,22.834712646484373,-0.99615478515625,0.0017242431640625,-0.01348876953125
1773790008507677000,22.854677001953124,-0.9951019287109375,0.0012054443359375,-0.0141143798828125
1773790008527641900,22.874641845703124,-0.9950408935546875,0.003326416015625,-0.0137939453125
1773790008547607000,22.89460693359375,-0.9967041015625,0.00103759765625,-0.0138397216796875
1773790008567572000,22.914572021484375,-0.9955902099609375,0.001953125,-0.0131072998046875
1773790008587537000,22.934536865234374,-0.9954833984375,0.001708984375,-0.0126190185546875
1773790008607501800,22.954501708984374,-0.9959869384765625,0.0023040771484375,-0.0137786865234375
1773790008627466000,22.974466064453125,-0.9955291748046875,0.000152587890625,-0.01300048828125
1773790008647431000,22.994430908203125,-0.9965972900390625,0.00152587890625,-0.014068603515625
1773790008667395800,23.014395751953124,-0.9958343505859375,0.0022125244140625,-0.0131378173828125
1773790008687360800,23.03436083984375,-0.9962310791015625,0.0021209716796875,-0.01348876953125
1773790008707326000,23.054325927734375,-0.9961700439453125,0.00164794921875,-0.01300048828125
1773790008727289900,23.074289794921874,-0.99560546875,0.0027313232421875,-0.01318359375
1773790008747254800,23.0942548828125,-0.99420166015625,0.0029144287109375,-0.012054443359375
1773790008767219700,23.1142197265625,-0.9961700439453125,0.0014190673828125,-0.01361083984375
1773790008787185000,23.134184814453125,-0.99432373046875,0.002288818359375,-0.01287841796875
1773790008807149800,23.15414990234375,-0.9958953857421875,0.00030517578125,-0.0134124755859375
1773790008827114800,23.17411474609375,-0.995574951171875,0.001678466796875,-0.012603759765625
1773790008847079000,23.194078857421875,-0.996063232421875,0.0027923583984375,-0.013671875
1773790008867044000,23.214044189453126,-0.9967193603515625,0.0015411376953125,-0.01373291015625
1773790008887009000,23.234009033203126,-0.9956817626953125,0.001922607421875,-0.01336669921875
1773790008906974000,23.253973876953125,-0.995880126953125,0.0019683837890625,-0.0129241943359375
1773790008926939000,23.27393896484375,-0.9960784912109375,0.000885009765625,-0.013580322265625
1773790008946904000,23.293904052734376,-0.995208740234375,0.000946044921875,-0.0123291015625
1773790008966868000,23.313867919921876,-0.99505615234375,0.0011138916015625,-0.014129638671875
1773790008986833000,23.3338330078125,-0.996307373046875,0.0025177001953125,-0.0124053955078125
1773790009006797800,23.3537978515625,-0.99566650390625,0.0012969970703125,-0.0137481689453125
1773790009026763000,23.373762939453126,-0.9967498779296875,0.0015106201171875,-0.0125732421875
1773790009046728000,23.39372802734375,-0.996917724609375,0.0006561279296875,-0.013580322265625
1773790009066692900,23.41369287109375,-0.9953155517578125,0.00115966796875,-0.0129241943359375
1773790009086656800,23.43365673828125,-0.9960479736328125,0.002227783203125,-0.0147857666015625
1773790009106622000,23.4536220703125,-0.9949798583984375,0.0012054443359375,-0.0130615234375
1773790009126587000,23.4735869140625,-0.99627685546875,0.001007080078125,-0.0134124755859375
1773790009146551800,23.4935517578125,-0.9968109130859375,0.0015869140625,-0.0143280029296875
1773790009166516700,23.513516845703126,-0.9948883056640625,0.00189208984375,-0.01300048828125
1773790009186481700,23.533481689453126,-0.995361328125,0.0015411376953125,-0.0131988525390625
1773790009206445600,23.553445556640625,-0.996063232421875,0.0008087158203125,-0.012725830078125
1773790009226410800,23.57341064453125,-0.9963226318359375,0.001861572265625,-0.013824462890625
1773790009246375700,23.593375732421876,-0.9965057373046875,0.00274658203125,-0.0137481689453125
1773790009266340600,23.613340576171876,-0.9952850341796875,0.0023040771484375,-0.014068603515625
1773790009286305800,23.633305908203123,-0.9966888427734375,0.0009002685546875,-0.013214111328125
1773790009306270700,23.653270751953126,-0.995941162109375,0.002899169921875,-0.0130767822265625
1773790009326235000,23.67323486328125,-0.9958953857421875,0.0013580322265625,-0.0130767822265625
1773790009346199800,23.69319970703125,-0.995635986328125,0.001434326171875,-0.0146636962890625
1773790009366164700,23.713164794921877,-0.9971160888671875,0.001708984375,-0.01513671875
1773790009386129700,23.733129638671876,-0.99566650390625,0.002166748046875,-0.0127716064453125
1773790009406094800,23.7530947265625,-0.994232177734375,0.001220703125,-0.01318359375
1773790009426059800,23.773059814453124,-0.9957122802734375,0.0010528564453125,-0.0128021240234375
1773790009446023700,23.793023681640626,-0.995208740234375,0.0010833740234375,-0.013885498046875
1773790009465988600,23.812988525390626,-0.996063232421875,0.0023345947265625,-0.0143280029296875
1773790009485953800,23.832953857421874,-0.9958343505859375,0.00262451171875,-0.012603759765625
1773790009505918700,23.852918701171873,-0.99603271484375,0.001708984375,-0.0123748779296875
1773790009525883600,23.872883544921876,-0.99560546875,0.0003662109375,-0.0139312744140625
1773790009545847600,23.89284765625,-0.9956512451171875,0.0022735595703125,-0.0124053955078125
1773790009565812700,23.912812744140624,-0.99652099609375,0.0021209716796875,-0.0127410888671875
1773790009585777700,23.932777587890627,-0.994384765625,0.00274658203125,-0.013702392578125
1773790009605742600,23.95274267578125,-0.9952850341796875,0.00152587890625,-0.013031005859375
1773790009625707500,23.97270751953125,-0.9972381591796875,0.0024261474609375,-0.013702392578125
1773790009645672700,23.992672607421873,-0.9950103759765625,0.002044677734375,-0.012847900390625
1773790009665636900,24.012636962890625,-0.9954071044921875,0.001556396484375,-0.0132293701171875
1773790009685601800,24.032601806640624,-0.9948272705078125,0.001983642578125,-0.0125579833984375
1773790009705566700,24.052566650390624,-0.995391845703125,0.0012969970703125,-0.0127716064453125
1773790009725532000,24.072531982421875,-0.9957275390625,0.0017547607421875,-0.0127716064453125
1773790009745496800,24.092496826171875,-0.995269775390625,0.0013580322265625,-0.0133056640625
1773790009765461800,24.112461669921874,-0.9952545166015625,0.002532958984375,-0.013763427734375
1773790009785425700,24.13242578125,-0.9961700439453125,0.002655029296875,-0.0132293701171875
1773790009805390800,24.152390869140625,-0.996246337890625,0.0010833740234375,-0.0139923095703125
1773790009825355800,24.172355712890624,-0.9940338134765625,0.0014495849609375,-0.0135345458984375
1773790009845320700,24.19232080078125,-0.99591064453125,0.0014495849609375,-0.01300048828125
1773790009865285600,24.21228564453125,-0.9948272705078125,0.002410888671875,-0.0135040283203125
1773790009885249800,24.232249755859375,-0.9945831298828125,0.001983642578125,-0.012908935546875
1773790009905214700,24.252214599609374,-0.9951171875,0.00115966796875,-0.0138397216796875
1773790009925179600,24.2721796875,-0.995208740234375,0.001434326171875,-0.0138092041015625
1773790009945144600,24.29214453125,-0.9956512451171875,0.0025482177734375,-0.0128631591796875
1773790009965109800,24.31210986328125,-0.9933013916015625,0.0023193359375,-0.0126190185546875
1773790009985074700,24.33207470703125,-0.9957427978515625,0.00213623046875,-0.013458251953125
1773790010005038800,24.352038818359375,-0.9959869384765625,0.0019683837890625,-0.0126190185546875
1773790010025003800,24.372003662109375,-0.9967803955078125,0.0019073486328125,-0.01263427734375
1773790010044969000,24.391968994140626,-0.9965667724609375,0.001800537109375,-0.01409912109375
1773790010064934000,24.411933837890626,-0.996185302734375,0.0014801025390625,-0.013885498046875
1773790010084898800,24.43189892578125,-0.995849609375,0.00164794921875,-0.0131072998046875
1773790010104863700,24.45186376953125,-0.996612548828125,0.002593994140625,-0.0125885009765625
1773790010124827600,24.47182763671875,-0.99517822265625,0.001556396484375,-0.014007568359375
1773790010144792800,24.491792724609375,-0.9968719482421875,0.002593994140625,-0.013153076171875
1773790010164757800,24.5117578125,-0.995513916015625,0.0018157958984375,-0.013885498046875
1773790010184722400,24.531722412109374,-0.9954986572265625,0.002349853515625,-0.01409912109375
1773790010204687600,24.5516875,-0.995697021484375,0.001678466796875,-0.0132598876953125
1773790010224651500,24.571651611328125,-0.996124267578125,0.002197265625,-0.0132293701171875
1773790010244616400,24.591616455078125,-0.99560546875,0.0010986328125,-0.01336669921875
1773790010264581400,24.611581298828124,-0.99652099609375,0.001220703125,-0.014801025390625
1773790010284546600,24.631546630859376,-0.9970703125,0.0012969970703125,-0.012969970703125
1773790010304511500,24.651511474609375,-0.9958343505859375,0.0020751953125,-0.013671875
1773790010324475600,24.6714755859375,-0.995513916015625,0.001983642578125,-0.012939453125
1773790010344440600,24.691440673828126,-0.9959564208984375,0.00189208984375,-0.0131988525390625
1773790010364405800,24.71140576171875,-0.9967498779296875,0.00177001953125,-0.01287841796875
1773790010384370700,24.73137060546875,-0.99493408203125,0.0023345947265625,-0.0121612548828125
1773790010404335600,24.751335693359376,-0.9958343505859375,0.0016326904296875,-0.013671875
1773790010424299500,24.771299560546876,-0.9964141845703125,0.0016021728515625,-0.0130462646484375
1773790010444264400,24.791264404296875,-0.996124267578125,0.0018310546875,-0.012939453125
1773790010464229600,24.811229736328126,-0.994964599609375,0.0023345947265625,-0.01397705078125
1773790010484194600,24.831194580078126,-0.9958648681640625,0.00091552734375,-0.0138092041015625
1773790010504159500,24.851159423828125,-0.995361328125,0.002716064453125,-0.013641357421875
1773790010524123400,24.871123291015625,-0.995513916015625,0.00250244140625,-0.0127716064453125
1773790010544088600,24.891088623046876,-0.995330810546875,0.0030517578125,-0.01361083984375
1773790010564053500,24.911053466796876,-0.995452880859375,0.0016326904296875,-0.0130767822265625
1773790010584018400,24.931018310546875,-0.9961700439453125,0.0018768310546875,-0.0131072998046875
1773790010603983600,24.950983642578127,-0.9962921142578125,0.0019073486328125,-0.0122833251953125
1773790010623947500,24.970947509765626,-0.995849609375,0.0024261474609375,-0.0133514404296875
1773790010643912400,24.990912353515625,-0.9960479736328125,0.0018310546875,-0.01312255859375
1773790010663877400,25.01087744140625,-0.9951019287109375,0.001861572265625,-0.0149688720703125
1773790010683842300,25.03084228515625,-0.996002197265625,0.0019378662109375,-0.0139923095703125
1773790010703807500,25.050807373046876,-0.9952392578125,0.002227783203125,-0.01312255859375
1773790010723772400,25.0707724609375,-0.9964141845703125,0.001190185546875,-0.013092041015625
1773790010743736600,25.090736572265627,-0.9959564208984375,0.0012359619140625,-0.0123748779296875
1773790010763701500,25.110701416015626,-0.9956207275390625,0.0024566650390625,-0.0132598876953125
1773790010783666700,25.130666748046874,-0.995819091796875,0.002471923828125,-0.0130462646484375
1773790010803631600,25.150631591796873,-0.9960784912109375,0.0023040771484375,-0.0131988525390625
1773790010823595500,25.170595458984376,-0.995574951171875,0.00201416015625,-0.0152740478515625
1773790010843560400,25.190560546875,-0.9962615966796875,0.0028076171875,-0.013671875
1773790010863525600,25.210525634765624,-0.997589111328125,0.0020751953125,-0.0127410888671875
1773790010883490600,25.230490478515627,-0.99566650390625,0.002716064453125,-0.01495361328125
1773790010903455500,25.25045556640625,-0.995849609375,0.0017547607421875,-0.0135955810546875
1773790010923419400,25.27041943359375,-0.9951171875,0.0022430419921875,-0.0134735107421875
1773790010943384600,25.290384521484373,-0.995269775390625,0.0020751953125,-0.0120086669921875
1773790010963349500,25.310349609375,-0.99603271484375,0.0012054443359375,-0.012481689453125
1773790010983314400,25.330314453125,-0.9971466064453125,0.0023345947265625,-0.0140380859375
1773790011003279400,25.350279296875,-0.994293212890625,0.001922607421875,-0.014068603515625
1773790011023243500,25.370243408203127,-0.997100830078125,0.002410888671875,-0.0138397216796875
1773790011043208700,25.390208740234375,-0.996002197265625,0.00244140625,-0.0133056640625
1773790011063173600,25.410173583984374,-0.99591064453125,0.0015869140625,-0.0146331787109375
1773790011083138600,25.430138671875,-0.996429443359375,0.001495361328125,-0.012939453125
1773790011103103700,25.450103759765625,-0.9951019287109375,0.00091552734375,-0.0134429931640625
1773790011123067600,25.470067626953124,-0.9953155517578125,0.0024261474609375,-0.0137939453125
1773790011143032600,25.490032470703124,-0.995758056640625,0.0012054443359375,-0.0139923095703125
1773790011162997500,25.50999755859375,-0.99530029296875,0.002532958984375,-0.01416015625
1773790011182963000,25.529962890625,-0.9952545166015625,0.0018768310546875,-0.013641357421875
1773790011202926800,25.5499267578125,-0.9953155517578125,0.0008392333984375,-0.0150909423828125
1773790011222891800,25.569891845703125,-0.9954681396484375,0.0019378662109375,-0.0134429931640625
1773790011242857000,25.58985693359375,-0.99505615234375,0.002716064453125,-0.013153076171875
1773790011262822000,25.60982177734375,-0.995330810546875,0.001556396484375,-0.01275634765625
1773790011282786800,25.629786865234376,-0.9959564208984375,0.0008392333984375,-0.0132598876953125
