time,seconds_elapsed,z,y,x
1773789985723776300,0.0707763671875,0.0004950816510245204,-0.003698331769555807,-0.004566788673400879
1773789985743741200,0.0907412109375,0.0003145193331874907,-0.0030977888964116573,-0.0054914383217692375
1773789985763707100,0.11070703125,-0.00007909588020993397,-0.003868241561576724,-0.005289836786687374
1773789985783672300,0.13067236328125,-0.0009864348685368896,-0.0013901700731366873,-0.005620601586997509
1773789985803637200,0.15063720703125,-0.00038482676609419286,-0.0026559706311672926,-0.0049795787781476974
1773789985823603500,0.170603515625,0.00037257623625919223,-0.0034818167332559824,-0.006406500469893217
1773789985843568400,0.190568359375,-0.0027395938523113728,-0.0027209515683352947,-0.005534847732633352
1773789985863533300,0.210533203125,0.0008884305134415627,-0.0026117621455341578,-0.0070216902531683445
1773789985883499300,0.230499267578125,0.0006095975404605269,-0.0027827369049191475,-0.005502090789377689
1773789985903464200,0.250464111328125,0.00039281626231968403,-0.004443218000233173,-0.006144445389509201
1773789985923429400,0.270429443359375,0.0002580603177193552,-0.002171541564166546,-0.006089850328862667
1773789985943395300,0.290395263671875,0.0006290386663749814,-0.002548911375924945,-0.007135407533496618
1773789985963360300,0.3103603515625,-0.0008918926469050348,-0.002439721953123808,-0.004788896068930626
1773789985983326200,0.330326171875,-0.00019094864546786994,-0.0022391858510673046,-0.005820338614284992
1773789986003291400,0.35029150390625,-0.000957939017098397,-0.0038107172586023808,-0.00612340634688735
1773789986023256300,0.37025634765625,0.0001459412305848673,-0.0029081718530505896,-0.006167348474264145
1773789986043222300,0.39022216796875,-0.0006322344415821135,-0.0017209346406161785,-0.004948153160512447
1773789986063187500,0.4101875,0.00001944107498275116,-0.003990480676293373,-0.005805424880236387
1773789986083152400,0.43015234375,0.00015899071877356619,-0.0023105584550648928,-0.005429386626929045
1773789986103118000,0.4501181640625,-0.0005350290448404849,-0.0026517093647271395,-0.005218730308115482
1773789986123083300,0.470083251953125,-0.00009480853623244911,-0.001996571896597743,-0.005396363325417042
1773789986143048200,0.490048095703125,-0.0012298477813601494,-0.0023441144730895758,-0.005766009911894798
1773789986163013400,0.510013427734375,0.0009337042574770749,-0.00407516909763217,-0.004765460267663002
1773789986182978300,0.529978271484375,-0.000284159294096753,-0.0032051142770797014,-0.006141782272607088
1773789986202943500,0.549943603515625,-0.0005283711361698806,-0.0024226775858551264,-0.0046602655202150345
1773789986222909400,0.569909423828125,0.000865793670527637,-0.0021734058391302824,-0.006742591038346291
1773789986242874400,0.589874267578125,0.0007158577209338546,-0.0035577169619500637,-0.005530053749680519
1773789986262839600,0.609839599609375,-0.0006703176186420023,-0.002624811604619026,-0.004775047767907381
1773789986282805500,0.629805419921875,-0.0011739213950932026,-0.001969940261915326,-0.0043806335888803005
1773789986302770400,0.6497705078125,0.00058323226403445,-0.003091397462412715,-0.004723649006336927
1773789986322735600,0.669735595703125,-0.0007238471880555153,-0.003358246060088277,-0.004452539142221212
1773789986342701300,0.689701416015625,-0.0002210423699580133,-0.001918807509355247,-0.0054727960377931595
1773789986362666500,0.70966650390625,0.00029640982393175364,-0.0028461201582103968,-0.006668821442872286
1773789986382631400,0.72963134765625,-0.0007605988066643476,-0.0025784724857658148,-0.006800381932407618
1773789986402597400,0.749597412109375,-0.0015339808305725455,-0.002130528911948204,-0.006105296779423952
1773789986422562600,0.7695625,0.0009155947482213378,-0.003543868428096175,-0.006274673622101545
1773789986442527500,0.789527587890625,-0.0002798982313834131,-0.003165965899825096,-0.00567066902294755
1773789986462493400,0.809493408203125,-0.0007584682898595929,-0.0028818065766245127,-0.006369748618453741
1773789986482458600,0.829458740234375,-0.0005877596559002995,-0.0036040558479726315,-0.006603574380278587
1773789986502423600,0.849423583984375,0.0003025351034011692,-0.003975833300501108,-0.005570001434534788
1773789986522389500,0.869389404296875,0.00016165387933142483,-0.0022778017446398735,-0.005654689855873585
1773789986542354700,0.889354736328125,-0.0010061422362923622,-0.002350505907088518,-0.004559065215289593
1773789986562319600,0.909319580078125,0.00021651499264407903,-0.001970472978428006,-0.0057529606856405735
1773789986582285300,0.929285400390625,-0.0013187973527237773,-0.0024740765802562237,-0.006313289515674114
1773789986602250500,0.94925048828125,-0.0018362496048212051,-0.002662894781678915,-0.006050169467926025
1773789986622215400,0.96921533203125,0.001324123702943325,-0.0037404096219688654,-0.006311159115284681
1773789986642181400,0.989181396484375,0.0008056062506511807,-0.0036916739773005247,-0.005512476898729801
1773789986662146600,1.009146484375,0.00011691277177305892,-0.003058906877413392,-0.005864813458174467
1773789986682111500,1.029111572265625,-0.0009765811264514923,-0.003940679598599672,-0.00646722037345171
1773789986702077400,1.049077392578125,-0.0005006743012927473,-0.001788312685675919,-0.005817675497382879
1773789986722042600,1.069042724609375,-0.0002681803307496011,-0.0032061797101050615,-0.007865379564464092
1773789986742007600,1.089007568359375,-0.0004037352045997977,-0.0004106594424229115,-0.006325540132820606
1773789986761973500,1.108973388671875,-0.0003193130251020193,-0.00401578051969409,-0.00675271125510335
1773789986781938400,1.1289384765625,-0.0008173241512849927,-0.002579271560534835,-0.006548180244863033
1773789986801903400,1.1489033203125,0.000022903184799361043,-0.00344479875639081,-0.005919940769672394
1773789986821869300,1.168869384765625,0.0007789746159687638,-0.002043443499132991,-0.005608084611594677
1773789986841834500,1.18883447265625,-0.0002609897928778082,-0.0022770026698708534,-0.006557767745107412
1773789986861799400,1.20879931640625,0.0013315805699676275,-0.0028277444653213024,-0.005927131045609713
1773789986881765600,1.228765625,-0.00012916330888401717,-0.0024596955627202988,-0.00549250328913331
1773789986901730600,1.24873046875,-0.0008873652550391853,-0.003215234261006117,-0.005939648021012545
1773789986921695500,1.268695556640625,-0.0012005530297756195,-0.0030807447619736195,-0.005875465925782919
1773789986941661700,1.28866162109375,0.0003307645965833217,-0.0035918052308261395,-0.006629939656704664
1773789986961626600,1.308626708984375,-0.0005273058777675033,-0.0024413196370005608,-0.006174272391945124
1773789986981591600,1.328591552734375,-0.0007480819476768374,-0.002968359272927046,-0.006016879808157682
1773789987001557500,1.3485576171875,0.00003888214996550232,-0.0023430490400642157,-0.0057068876922130585
1773789987021522400,1.3685224609375,-0.000523843802511692,-0.003040797309949994,-0.005516205448657274
1773789987041487400,1.3884873046875,-0.0008881642133928835,-0.0022008363157510757,-0.005003546830266714
1773789987061453600,1.40845361328125,-0.00049108691746369,-0.0021257351618260145,-0.006382265593856573
1773789987081418500,1.42841845703125,-0.0014322480419650674,-0.0027454528026282787,-0.007170028518885374
1773789987101383400,1.448383544921875,-0.0008692557457834482,-0.0026703516487032175,-0.004857605788856745
1773789987121349600,1.468349609375,-0.0006857639527879655,-0.0029830066487193108,-0.005219263024628162
1773789987141314600,1.488314453125,0.0016860472969710827,-0.0023134879302233458,-0.005547630600631237
1773789987161279700,1.50827978515625,0.00029055087361484766,-0.003163302782922983,-0.005434979218989611
1773789987181245700,1.52824560546875,-0.00044794369023293257,-0.003953462466597557,-0.006766825914382935
1773789987201210600,1.548210693359375,0.0007797735743224621,-0.002566754585132003,-0.006992129608988762
1773789987221175600,1.568175537109375,0.0010926949325948954,-0.0037414750549942255,-0.006045375484973192
1773789987241141800,1.588141845703125,-0.001193362521007657,-0.002356098499149084,-0.005693305749446154
1773789987261106700,1.608106689453125,0.0007219829712994397,-0.003369963960722089,-0.0061508365906775
1773789987281071600,1.628071533203125,-0.000520647969096899,-0.0024461133871227503,-0.005124987103044987
1773789987301037800,1.648037841796875,-0.0005760417552664876,-0.00333267985843122,-0.0055092815309762955
1773789987321002800,1.668002685546875,-0.0004724447790067643,-0.004308994393795729,-0.0070738885551691055
1773789987340967700,1.6879677734375,0.00011238539445912465,-0.0035902075469493866,-0.006313822232186794
1773789987360934000,1.707933837890625,0.00010599380766507238,-0.004549478180706501,-0.006345247384160757
1773789987380898800,1.72789892578125,-0.0005067995516583323,-0.003914846573024988,-0.004269313532859087
1773789987400863700,1.74786376953125,0.0009198558400385082,-0.00264798104763031,-0.005027781706303358
1773789987420829700,1.76782958984375,-0.0013108078856021166,-0.0027425233274698257,-0.006204632576555014
1773789987440794600,1.787794677734375,-0.0002490055630914867,-0.0032112395856529474,-0.005129780620336533
1773789987460759600,1.807759521484375,-0.00005193164179218002,-0.004052532371133566,-0.006857373286038637
1773789987480725800,1.827725830078125,0.00013315805699676275,-0.0036607813090085983,-0.007620369084179401
1773789987500690700,1.847690673828125,0.00013928332191426307,-0.003287938656285405,-0.005539907608181238
1773789987520655600,1.867655517578125,-0.0008703210623934865,-0.001496430253610015,-0.006346046458929777
1773789987540620800,1.887620849609375,0.0007861651247367263,-0.002293780678883195,-0.005227785091847181
1773789987560586800,1.907586669921875,-0.00033422670094296336,-0.0034530546981841326,-0.005539108533412218
1773789987580551700,1.9275517578125,0.0005749764968641102,-0.003668504301458597,-0.0057162088342010975
1773789987600516900,1.947516845703125,-0.0011241203173995018,-0.0028663603588938713,-0.0052296495996415615
1773789987620482600,1.967482666015625,0.0019595539197325706,-0.003626160090789199,-0.007817708887159824
1773789987640447700,1.98744775390625,-0.0006716492353007197,-0.003308977698907256,-0.004758802708238363
1773789987660412700,2.00741259765625,-0.0008953547803685069,-0.0030421288684010506,-0.006091182120144367
1773789987680378600,2.027378662109375,-0.0007408913807012141,-0.0030687605030834675,-0.0057167415507137775
1773789987700343800,2.04734375,-0.00036511936923488975,-0.0031041805632412434,-0.004942294210195541
1773789987720308700,2.067308837890625,0.0005539375124499202,-0.0033563817851245403,-0.006460562348365784
1773789987740274700,2.087274658203125,-0.0018618159228935838,-0.0034759577829390764,-0.005544435232877731
1773789987760239900,2.107239990234375,-0.00009454221435589716,-0.0032831449061632156,-0.005487177055329084
1773789987780204800,2.127204833984375,-0.0008013451588340104,-0.0022716764360666275,-0.004492220003157854
1773789987800170800,2.147170654296875,-0.00027616979787126184,-0.001942243310622871,-0.005727394018322229
1773789987820136000,2.167135986328125,-0.0009329052991233766,-0.001782453735359013,-0.006332730874419212
1773789987840100900,2.187100830078125,-0.0011406318517401814,-0.003524960018694401,-0.005350024439394474
1773789987860066600,2.207066650390625,-0.00003009372085216455,-0.0029577065724879503,-0.006100769154727459
1773789987880031700,2.22703173828125,0.0007355650886893272,-0.003200586885213852,-0.0057340520434081554
1773789987899996700,2.24699658203125,0.0005510080372914672,-0.003291134489700198,-0.005017129238694906
1773789987919962600,2.266962646484375,0.0009576727170497179,-0.0027214842848479748,-0.004181162919849157
1773789987939927800,2.286927734375,-0.0008833705214783549,-0.004142280668020248,-0.004078098572790623
1773789987959892700,2.306892822265625,-0.002049036091193557,-0.002600044244900346,-0.006963367108255625
1773789987979857700,2.326857666015625,-0.0007017429452389479,-0.0033715618774294853,-0.0064975805580616
1773789987999824000,2.346823974609375,-0.0009235842735506594,-0.0035151063930243254,-0.00549356872215867
1773789988019788800,2.366788818359375,-0.00020346550445538014,-0.0035779569298028946,-0.005648830905556679
1773789988039753700,2.386753662109375,0.00018508969515096396,-0.0025566346012055874,-0.005751628894358873
1773789988059719700,2.4067197265625,-0.002746251644566655,-0.0036695697344839573,-0.006380401086062193
1773789988079684600,2.4266845703125,-0.0007446198142133653,-0.001327053178101778,-0.0062973108142614365
1773789988099649800,2.44664990234375,-0.0004034689045511186,-0.003621100215241313,-0.005805957596749067
1773789988119615700,2.46661572265625,0.0009110674145631492,-0.0026293389964848757,-0.004387557972222567
1773789988139580700,2.48658056640625,-0.0005976133397780359,-0.0027798074297606945,-0.004545216914266348
1773789988159546400,2.50654638671875,-0.0006468818173743784,-0.0027656927704811096,-0.00577799417078495
1773789988179512600,2.5265126953125,-0.000003994741746282671,-0.0025502429343760014,-0.007318633142858744
1773789988199477500,2.5464775390625,0.0015851134667173028,-0.0028216191567480564,-0.005358812864869833
1773789988219442400,2.5664423828125,0.000006924218723725062,-0.002028796123340726,-0.005428054835647345
1773789988239407400,2.586407470703125,-0.0005374259199015796,-0.0022684806026518345,-0.005487177055329084
1773789988259373300,2.606373291015625,-0.00013182646944187582,-0.0023635553661733866,-0.004748416133224964
1773789988279338200,2.626338134765625,0.0005496764206327498,-0.002409361768513918,-0.007435812149196863
1773789988299303200,2.64630322265625,-0.000179230744834058,-0.002972087822854519,-0.005946039687842131
1773789988319269400,2.666269287109375,0.0004857605672441423,-0.0026549051981419325,-0.006067213602364063
1773789988339234300,2.686234375,0.00005299690383253619,-0.0025001754984259605,-0.007191866636276245
1773789988359199200,2.70619921875,0.00012543488992378116,-0.002810700098052621,-0.004908738657832146
1773789988379165400,2.72616552734375,-0.0022445120848715305,-0.0018604843644425273,-0.006730606779456139
1773789988399130400,2.74613037109375,-0.00036751621519215405,-0.0018908443162217736,-0.006104231346398592
1773789988419095600,2.766095458984375,-0.0003842941368930042,-0.0032631712965667248,-0.005150287412106991
1773789988439061500,2.7860615234375,0.0006636597099713981,-0.0025129588320851326,-0.005612878128886223
1773789988459026400,2.8060263671875,-0.0014809839194640517,-0.003440005239099264,-0.005379585549235344
1773789988478991600,2.82599169921875,0.00003435477628954686,-0.001976065570488572,-0.005820338614284992
1773789988498956500,2.84595654296875,0.0008783105295151472,-0.003011502558365464,-0.007203850895166397
1773789988518922200,2.865922119140625,-0.0007448861724697053,-0.0011976235546171665,-0.005063201766461134
1773789988538887400,2.885887451171875,-0.0011531487107276917,-0.0026490462478250265,-0.005440039094537497
1773789988558852400,2.905852294921875,-0.00008894957863958552,-0.003652791725471616,-0.005059739574790001
1773789988578818300,2.925818359375,0.00048123320448212326,-0.0016666061710566282,-0.004702077247202396
1773789988598783500,2.945783447265625,-0.0010788465151563287,-0.0031055121216923,-0.007119961082935333
1773789988618748400,2.96574853515625,-0.0011550129856914282,-0.0016759273130446672,-0.006314887665212154
1773789988638713300,2.98571337890625,-0.00016325176693499088,-0.002594451420009136,-0.005844040773808956
1773789988658679600,3.005679443359375,0.0006740460521541536,-0.004743356257677078,-0.006030195392668247
1773789988678644500,3.02564453125,0.0003070624661631882,-0.0033665020018815994,-0.005122057627886534
1773789988698609400,3.045609375,0.0009275790071114898,-0.0035151063930243254,-0.0039116512052714825
1773789988718575400,3.065575439453125,-0.00027537086862139404,-0.0031435952987521887,-0.007635815534740686
1773789988738540300,3.085540283203125,-0.0005568669876083732,-0.003972371108829975,-0.005883455276489258
1773789988758505500,3.10550537109375,0.00014753911818843335,-0.002287921728566289,-0.0054877097718417645
1773789988778471400,3.125471435546875,-0.00047058056225068867,-0.003242398612201214,-0.0062517705373466015
1773789988798436400,3.145436279296875,-0.00035712990211322904,-0.0022423816844820976,-0.005786782596260309
1773789988822145500,3.1691455078125,-0.000910268456209451,-0.00264824740588665,-0.004752677399665117
1773789988842110500,3.1891103515625,-0.0007270429632626474,-0.0027265443932265043,-0.004881840664893389
1773789988862076400,3.209076416015625,-0.0002537992550060153,-0.003026416292414069,-0.006018477492034435
1773789988882041300,3.229041259765625,-0.0009701895760372281,-0.0030189594253897667,-0.004450940992683172
1773789988902006300,3.24900634765625,0.00014940333494450897,-0.001475657569244504,-0.004983573220670223
1773789988921972500,3.268972412109375,-0.0009278453071601689,-0.004322310443967581,-0.0041428133845329285
1773789988941937400,3.2889375,0.0004929511342197657,-0.003165166825056076,-0.004345746245235205
1773789988961902300,3.30890234375,0.00023622238950338215,-0.0025161546654999256,-0.004276504274457693
1773789988981867300,3.3288671875,-0.000015180017726379447,-0.005013134330511093,-0.006102100946009159
1773789989001833500,3.34883349609375,0.00018642126815393567,-0.0021883193403482437,-0.006225671619176865
1773789989021798400,3.36879833984375,-0.0012351741315796971,-0.0018764632986858487,-0.0057191383093595505
1773789989041763300,3.388763427734375,-0.0006727144937030971,-0.0016072177095338702,-0.004233627114444971
1773789989061729500,3.4087294921875,-0.0008080030675046146,-0.0035095135681331158,-0.005540440324693918
1773789989081694500,3.428694580078125,0.0007371630053967237,-0.0018788601737469435,-0.00595562718808651
1773789989101659400,3.448659423828125,-0.00038642468280158937,-0.0017893778858706355,-0.005030711181461811
1773789989121624600,3.46862451171875,0.000006391586794052273,-0.003638410707935691,-0.006934338714927435
1773789989141590300,3.48859033203125,0.00010466222738614306,-0.003784351982176304,-0.006297843065112829
1773789989161555500,3.508555419921875,0.0009574064170010388,-0.003500991500914097,-0.003916444722563028
1773789989181520400,3.528520263671875,-0.00028522455249913037,-0.003263703780248761,-0.005377188324928284
1773789989201485300,3.5484853515625,0.0003890878288075328,-0.0036224317736923695,-0.006627542432397604
1773789989221451500,3.568451416015625,-0.0005406216951087117,-0.003260241821408272,-0.006917827297002077
1773789989241416400,3.58841650390625,0.0011622034944593906,-0.002775546396151185,-0.007513043470680714
1773789989261381400,3.60838134765625,0.0006215817993506789,-0.003471430391073227,-0.005862416233867407
1773789989281347600,3.62834765625,-0.0006538060260936618,-0.002037850907072425,-0.005279982928186655
1773789989301312500,3.6483125,0.0006348976166918874,-0.0034107104875147343,-0.004974252078682184
1773789989321277400,3.66827734375,-0.0008114652009680867,-0.002886333968490362,-0.006313555873930454
1773789989341242600,3.68824267578125,-0.0008045409340411425,-0.0029710223898291588,-0.005743106827139854
1773789989361208300,3.708208251953125,-0.0001334243715973571,-0.002808036981150508,-0.006454170681536198
1773789989381173200,3.72817333984375,-0.00004447478931979276,-0.0024711471050977707,-0.006075735669583082
1773789989401138400,3.748138427734375,-0.000571248063351959,-0.0029313412960618734,-0.00583818182349205
1773789989421104400,3.7681044921875,0.000603738590143621,-0.0036155073903501034,-0.006147907115519047
1773789989441069600,3.788069580078125,0.00012969593808520585,-0.0022234732750803232,-0.006530603393912315
1773789989461034500,3.808034423828125,0.000362988852430135,-0.0033894050866365433,-0.006102367304265499
1773789989480999400,3.82799951171875,-0.001074052881449461,-0.0031396006233990192,-0.00512791657820344
1773789989500965600,3.847965576171875,0.0004713795206043869,-0.004061320796608925,-0.00529676117002964
1773789989520930600,3.8679306640625,0.00003435477628954686,-0.002398442942649126,-0.006186789367347956
1773789989540895500,3.8878955078125,0.0010879012988880277,-0.004230164922773838,-0.004853877238929272
1773789989560860400,3.9078603515625,0.00035899411886930466,-0.0033888723701238632,-0.007378820329904556
1773789989580826600,3.92782666015625,-0.00006764429417671636,-0.004524976946413517,-0.0049034119583666325
1773789989600791600,3.94779150390625,-0.0005004079430364072,-0.00173717993311584,-0.006076002027839422
1773789989620756500,3.967756591796875,0.0002937466779258102,-0.003480218816548586,-0.006412891671061516
1773789989640722400,3.987722412109375,-0.0007523429812863469,-0.0022594258189201355,-0.005583050660789013
1773789989660687400,4.007687255859375,0.0015574166318401694,-0.0028397287242114544,-0.004893025849014521
1773789989680652300,4.02765234375,-0.0008721852791495621,-0.002561428351327777,-0.005474660079926252
1773789989700617500,4.047617431640625,-0.0005845638806931674,-0.0037348170299082994,-0.006477872841060162
1773789989720583400,4.06758349609375,0.0005382248782552779,-0.004022704903036356,-0.006984406150877476
1773789989740548400,4.08754833984375,0.00009880327706923708,-0.0023529028985649347,-0.003975034225732088
1773789989760513500,4.107513427734375,-0.001273523666895926,-0.00390259618870914,-0.006895190104842186
1773789989780478500,4.127478515625,-0.000054328484111465514,-0.0026615632232278585,-0.006301305256783962
1773789989800444700,4.147444580078125,-0.0005083974683657289,-0.002400839701294899,-0.0070520504377782345
1773789989820409600,4.16740966796875,-0.0009502158500254154,-0.0034051176626235247,-0.006824882701039314
1773789989840374500,4.18737451171875,-0.0006034722900949419,-0.0020181434229016304,-0.005274390336126089
1773789989860340500,4.207340576171875,-0.0007091998122632504,-0.0029057750944048166,-0.0051596080884337425
1773789989880305400,4.227305419921875,-0.0003504719934426248,-0.002037051832303405,-0.00629012007266283
1773789989900270300,4.247270263671875,-0.0005970807396806777,-0.0018676748732104897,-0.005302087403833866
1773789989920235500,4.267235595703125,-0.0007544735562987626,-0.0023491743486374617,-0.007364172954112291
1773789989940201500,4.287201416015625,-0.0023270701058208942,-0.0021550299134105444,-0.005081844050437212
1773789989960166400,4.30716650390625,0.0004063983797095716,-0.0030482541769742966,-0.003811249742284417
1773789989980131300,4.32713134765625,-0.00010679275874281302,-0.0020242687314748764,-0.005002748221158981
1773789990000096500,4.347096435546875,-0.0016724651213735342,-0.0025654230266809464,-0.007757521700114012
1773789990020062500,4.3670625,0.0006285060080699623,-0.0040442761965096,-0.005322327371686697
1773789990040027400,4.38702734375,-0.0007773766992613673,-0.004170776344835758,-0.005649629980325699
1773789990059992600,4.40699267578125,0.0005403553950600326,-0.0031670311000198126,-0.005309810396283865
1773789990079957500,4.42695751953125,0.00041731735109351575,-0.002653307281434536,-0.005919141694903374
1773789990099923500,4.44692333984375,0.000574177538510412,-0.0027840686962008476,-0.0054272557608783245
1773789990119888600,4.466888671875,-0.0003073287953156978,-0.0035537220537662506,-0.005331115797162056
1773789990139853600,4.486853515625,-0.00005965480886516161,-0.004229632206261158,-0.006530603393912315
1773789990159819000,4.506819091796875,-0.00005246427463134751,-0.004547081422060728,-0.005519667640328407
1773789990179784000,4.526783935546875,0.0013568805297836661,-0.0026160231791436672,-0.005908755585551262
1773789990199749000,4.5467490234375,-0.0012487561907619238,-0.0018346516881138086,-0.004210457671433687
1773789990219714000,4.566714111328125,-0.0005163869354873896,-0.002160090021789074,-0.005243764258921146
1773789990239680000,4.586679931640625,0.000770452490542084,-0.003210440743714571,-0.005647765472531319
1773789990259645000,4.60664501953125,0.0005917543894611299,-0.002359294332563877,-0.005167065188288689
1773789990279609900,4.62660986328125,-0.00021305288828443736,-0.0023454460315406322,-0.005336974747478962
1773789990299575000,4.646574951171875,-0.00029587719473056495,-0.0029324067290872335,-0.006080529186874628
1773789990319541000,4.666541015625,-0.0005464806454256177,-0.0028655612841248512,-0.006487993057817221
1773789990339506000,4.686505859375,-0.0011121360585093498,-0.0037997981999069452,-0.006878412328660488
1773789990359471000,4.70647119140625,-0.0012775183422490954,-0.003020557342097163,-0.006105563137680292
1773789990379436000,4.72643603515625,-0.0007315703551284969,-0.0033715618774294853,-0.006155896931886673
1773789990399402000,4.746402099609375,-0.0009070726810023189,-0.004239486064761877,-0.005332181230187416
1773789990419367200,4.7663671875,-0.001484179636463523,-0.0020445086993277073,-0.0051931641064584255
1773789990439332000,4.78633203125,0.0016982977977022529,-0.003035204717889428,-0.0052235242910683155
1773789990459297000,4.806297119140625,-0.0015078817959874868,-0.0021760689560323954,-0.005420598201453686
1773789990479263000,4.826262939453125,0.0005328985280357301,-0.0016668725293129683,-0.00683207344263792
1773789990499228000,4.846227783203125,-0.0005893575726076961,-0.00270683690905571,-0.0049036783166229725
1773789990519192800,4.86619287109375,-0.00038589202449657023,-0.0032056469935923815,-0.005939914379268885
1773789990539158000,4.886157958984375,-0.00042290997225791216,-0.0029830066487193108,-0.006924751214683056
1773789990559124000,4.9061240234375,0.00010812433902174234,-0.002660231664776802,-0.004970257636159658
1773789990579089000,4.9260888671875,-0.0008974852971732616,-0.0031814121175557375,-0.0057351174764335155
1773789990599054000,4.94605419921875,-0.0007677893154323101,-0.0023787354584783316,-0.005914614535868168
1773789990619019000,4.96601904296875,-0.0011262508342042565,-0.0020506340079009533,-0.005931392312049866
1773789990638985000,4.98598486328125,-0.0007440872141160071,-0.0022913836874067783,-0.007004912476986647
1773789990658950100,5.0059501953125,0.00003861583536490798,-0.003537210635840893,-0.005799299571663141
1773789990678915000,5.0259150390625,-0.00019201391842216253,-0.002746518002822995,-0.005248557776212692
1773789990698880000,5.0458798828125,-0.00005379585491027683,-0.003674629610031843,-0.004733502399176359
1773789990718846200,5.06584619140625,0.00016005597717594355,-0.002820287598297,-0.005876797717064619
1773789990738811100,5.08581103515625,-0.0003480751474853605,-0.002142513170838356,-0.006136189214885235
1773789990758776000,5.105776123046875,0.0021369203459471464,-0.002954244613647461,-0.006133259739726782
1773789990778741000,5.125740966796875,-0.00046924897469580173,-0.0026557042729109526,-0.004788896068930626
1773789990798707000,5.14570703125,-0.000520647969096899,-0.002965163439512253,-0.0070219566114246845
1773789990818671900,5.165671875,-0.0010130665032193065,-0.00290444353595376,-0.005870672408491373
1773789990838636800,5.18563671875,0.0011968245962634683,-0.003727892879396677,-0.007078149355947971
1773789990858602000,5.20560205078125,-0.0004924184759147465,-0.002954510971903801,-0.0036884781438857317
1773789990878568000,5.22556787109375,-0.0011997540714219213,-0.002679938916116953,-0.005477323196828365
1773789990898533000,5.245533203125,0.0010937602492049336,-0.002016545506194234,-0.005894640926271677
1773789990918498000,5.265498046875,-0.0006050702068023384,-0.003191798459738493,-0.007270962465554476
1773789990938463000,5.285462890625,-0.0007539408979937434,-0.0025603631511330605,-0.006388390902429819
1773789990958429200,5.30542919921875,-0.0008543420699425042,-0.0029023129027336836,-0.004820321686565876
1773789990978394000,5.32539404296875,0.00009267800487577915,-0.003141731023788452,-0.004809935111552477
1773789990998359000,5.345359130859375,0.0011749867117032409,-0.0018309232546016574,-0.004978246986865997
1773789991018324000,5.365323974609375,-0.001356347929686308,-0.0032927324064075947,-0.005574262235313654
1773789991038289200,5.3852890625,0.00035659727291204035,-0.0024775387719273567,-0.005535380449146032
1773789991058254800,5.4052548828125,0.00009241169027518481,-0.0043899547308683395,-0.005794506054371595
1773789991078219800,5.4252197265625,-0.0007970841252245009,-0.0023518374655395746,-0.005510879214853048
1773789991098185000,5.44518505859375,0.0009118663729168475,-0.002855974016711116,-0.004768922459334135
1773789991118150000,5.46514990234375,-0.0003430151555221528,-0.004139351192861795,-0.005804892163723707
1773789991138115800,5.48511572265625,0.0005491438205353916,-0.0034237599465996027,-0.005562810692936182
1773789991158081000,5.5050810546875,-0.0002759034978225827,-0.002490055514499545,-0.00683100800961256
1773789991178046000,5.5250458984375,-0.0023821976501494646,-0.00270657055079937,-0.005688778590410948
1773789991198011000,5.545010986328125,-0.0007523429812863469,-0.0039015309885144234,-0.006061887368559837
1773789991217977000,5.56497705078125,0.0008551410282962024,-0.0034911378752440214,-0.006244846619665623
1773789991237942000,5.58494189453125,-0.00023968449386302382,-0.0033459956757724285,-0.005368666257709265
1773789991257907000,5.604906982421875,0.0003888215287588537,-0.0027920580469071865,-0.0064387246966362
1773789991277872000,5.6248720703125,-0.000603738590143621,-0.0014892396284267306,-0.00580835435539484
1773789991297838000,5.644838134765625,-0.00020879182557109743,-0.0026991136837750673,-0.0057199373841285706
1773789991317803000,5.664802978515625,0.0018911106744781137,-0.003305515507236123,-0.0032692966051399708
1773789991337768200,5.684768310546875,-0.00018109494703821838,-0.0027545075863599777,-0.005391569808125496
1773789991357733000,5.704733154296875,-0.00021758026559837162,-0.0027225494850426912,-0.006926882080733776
1773789991377698000,5.724697998046875,0.0006498112925328314,-0.004294347018003464,-0.005910086911171675
1773789991397664000,5.7446640625,-0.00043063313933089375,-0.002356631215661764,-0.0065436530858278275
1773789991417629000,5.76462890625,-0.0010727213229984045,-0.0020724718924611807,-0.004926049150526524
1773789991437593900,5.78459375,-0.0005278385360725224,-0.0043984767980873585,-0.005765477195382118
1773789991457558800,5.804558837890625,0.00039787625428289175,-0.0035388083197176456,-0.006358829792588949
1773789991477525000,5.82452490234375,0.0004117247008252889,-0.002910302486270666,-0.007212639320641756
1773789991497490000,5.844489990234375,0.000474575295811519,-0.002653573639690876,-0.005105546209961176
1773789991517455000,5.864455078125,-0.0016306535108014941,-0.004524976946413517,-0.0035981968976557255
1773789991537420000,5.884419921875,-0.0009614011505618691,-0.0025182850658893585,-0.007562312297523022
1773789991557385000,5.904385009765625,-0.0016479641199111938,-0.0024919197894632816,-0.005163336638361216
1773789991577351200,5.92435107421875,-0.0004239752306602895,-0.0029113676864653826,-0.005743106827139854
1773789991597316000,5.944316162109375,-0.0009179916232824326,-0.003139334265142679,-0.007191067561507225
1773789991617281000,5.964281005859375,0.00007643271965207532,-0.0018668759148567915,-0.006628607865422964
1773789991637246000,5.984245849609375,0.0009693906176835299,-0.003023220458999276,-0.0051774512976408005
1773789991657212000,6.0042119140625,-0.00037470675306394696,-0.0033449302427470684,-0.00577772781252861
1773789991677176800,6.0241767578125,0.00037044569035060704,-0.0029148298781365156,-0.00689119566231966
1773789991697141800,6.044141845703125,-0.0002950782363768667,-0.002897785510867834,-0.004652808886021376
1773789991717107000,6.06410693359375,0.0009084042394533753,-0.0019853864796459675,-0.006145776715129614
1773789991737071900,6.08407177734375,-0.001344896387308836,-0.0044288369826972485,-0.005095692351460457
1773789991757037800,6.104037841796875,-0.0006194512825459242,-0.002576075727120042,-0.0062677497044205666
1773789991777003000,6.1240029296875,-0.0005257080192677677,-0.00287434970960021,-0.0063005066476762295
1773789991796968000,6.143968017578125,-0.0007621967233717442,-0.0024884575977921486,-0.006069344002753496
1773789991816932900,6.163932861328125,-0.0001030643325066194,-0.0029001825023442507,-0.006734068971127272
1773789991836899000,6.183899169921875,-0.00007829693640815094,-0.0036852823104709387,-0.005154281854629517
1773789991856864000,6.203864013671875,0.00019574233738239855,-0.0035811527632176876,-0.006038983818143606
1773789991876829000,6.223828857421875,0.0005906891310587525,-0.0028660940006375313,-0.007019559852778912
1773789991896794000,6.243794189453125,-0.0005600627628155053,-0.0029550434555858374,-0.006411560345441103
1773789991916759000,6.263759033203125,-0.001246892032213509,-0.003073021536692977,-0.005301821045577526
1773789991936725000,6.28372509765625,0.0008005462004803121,-0.0022471752017736435,-0.0038842204958200455
1773789991956690200,6.303690185546875,0.0006186523241922259,-0.002073803450912237,-0.006356698926538229
1773789991976655000,6.323655029296875,-0.0005440838285721838,-0.0031337416730821133,-0.006909038871526718
1773789991996620000,6.3436201171875,0.0005888249143026769,-0.0033369408920407295,-0.0049185920506715775
1773789992016585000,6.3635849609375,-0.00020959076937288046,-0.00415373221039772,-0.0059961071237921715
1773789992036551000,6.383551025390625,0.00041278995922766626,-0.002679938916116953,-0.007033142261207104
1773789992056515800,6.403515869140625,0.00003808320252574049,-0.002261290093883872,-0.005151885095983744
1773789992076481000,6.42348095703125,-0.000764593540225178,-0.0027443873696029186,-0.004357996862381697
1773789992096446000,6.443446044921875,0.00013448962999973446,-0.003689543344080448,-0.00589730404317379
1773789992116411000,6.463410888671875,-0.000592020689509809,-0.0033593112602829933,-0.007452323567122221
1773789992136377000,6.483377197265625,-0.00028043086058460176,-0.003578755771741271,-0.00737349409610033
1773789992156342000,6.503342041015625,0.000630636524874717,-0.0023366576060652733,-0.006200638134032488
1773789992176307500,6.523307373046875,-0.0008857673965394497,-0.002653573639690876,-0.005046157632023096
1773789992196272400,6.5432724609375,-0.0002740392810665071,-0.002532133599743247,-0.006465356331318617
1773789992216238600,6.563238525390625,0.0001382180635118857,-0.0022386531345546246,-0.004352404270321131
1773789992236203500,6.58320361328125,0.0010282464791089296,-0.002394448034465313,-0.003343598684296012
1773789992256168700,6.603168701171875,0.0005688511882908642,-0.0025861957110464573,-0.005405950825661421
1773789992276133600,6.623133544921875,-0.0006165218073874712,-0.0025566346012055874,-0.006529804784804583
1773789992296098600,6.6430986328125,0.0004471447318792343,-0.0025070998817682266,-0.005339371506124735
1773789992316064500,6.663064453125,-0.0001608549355296418,-0.0030804784037172794,-0.0051958272233605385
1773789992336029400,6.683029541015625,-0.0006482133758254349,-0.0017944378778338432,-0.006091714836657047
1773789992355994400,6.702994384765625,-0.00029348034877330065,-0.002555835759267211,-0.004261057823896408
1773789992375959300,6.722959228515625,-0.0005273058777675033,-0.002606702037155628,-0.00552179804071784
1773789992395924500,6.742924560546875,0.000782436749432236,-0.0030485205352306366,-0.0061521683819592
1773789992415890400,6.762890380859375,0.0005933523061685264,-0.0029491845052689314,-0.005564408842474222
1773789992435855400,6.78285546875,0.00035233621019870043,-0.0029763488564640284,-0.005657619331032038
1773789992455820500,6.802820556640625,0.0008370315190404654,-0.0017688715597614646,-0.0060150157660245895
1773789992475785500,6.822785400390625,-0.00021411814668681473,-0.004454669542610645,-0.005093561951071024
1773789992495750400,6.84275048828125,0.00015952334797475487,-0.0027233485598117113,-0.005338306538760662
1773789992515715600,6.862715576171875,-0.0009398295660503209,-0.0036045885644853115,-0.00589543953537941
1773789992535681500,6.882681640625,-0.0010010822443291545,-0.004794755019247532,-0.0049164616502821445
1773789992555646500,6.902646484375,0.0008364989189431071,-0.002507898723706603,-0.004253600724041462
1773789992575611600,6.922611572265625,0.0013851100811734796,-0.0030988543294370174,-0.005589975044131279
1773789992595576600,6.94257666015625,-0.0007816377910785377,-0.004320446401834488,-0.005576925817877054
1773789992615541500,6.96254150390625,-0.000013582121027866378,-0.00276169809512794,-0.005911418702453375
1773789992635507500,6.982507568359375,0.001273523666895926,-0.0024983114562928677,-0.004797418136149645
1773789992655472600,7.00247265625,-0.0009771138429641724,-0.00224877311848104,-0.00631861574947834
1773789992675437600,7.0224375,0.00044607947347685695,-0.0031249532476067543,-0.005614476278424263
1773789992695402500,7.042402587890625,-0.0008727178792469203,-0.0030602384358644485,-0.004941495135426521
1773789992715367700,7.06236767578125,-0.0015094797126948833,-0.0034056503791362047,-0.006313822232186794
1773789992735333400,7.08233349609375,-0.00034194986801594496,-0.003537476761266589,-0.005452556069940329
1773789992755298300,7.10229833984375,-0.0001549959706608206,-0.0031185615807771683,-0.005564142484217882
1773789992775263500,7.122263427734375,-0.0020034960471093655,-0.0029473204631358385,-0.006806773599237204
1773789992795228400,7.142228515625,0.00027057717670686543,-0.00404480891302228,-0.006077333353459835
1773789992815193300,7.162193359375,0.0006828344776295125,-0.002118011936545372,-0.005678392015397549
1773789992835159600,7.18215966796875,0.0005816344055347145,-0.0018157431622967124,-0.005652559455484152
1773789992855124500,7.20212451171875,0.0004396878939587623,-0.002567020943388343,-0.005784652195870876
1773789992875089400,7.22208935546875,-0.0006221143994480371,-0.0036882117856293917,-0.004989698529243469
1773789992895054600,7.2420546875,0.0008641957538202405,-0.0027742148377001286,-0.0044019389897584915
1773789992915019500,7.26201953125,-0.0016045545926317573,-0.002127865795046091,-0.0046999468468129635
1773789992934985500,7.2819853515625,0.0003254382754676044,-0.002383262850344181,-0.006588927004486322
1773789992954950700,7.30195068359375,0.0014868428697809577,-0.0036940707359462976,-0.005757221486419439
1773789992974915600,7.32191552734375,-0.0008886968716979027,-0.002584864152595401,-0.006551376078277826
1773789992994880500,7.341880615234375,-0.000355532014509663,-0.002834135899320245,-0.00506932707503438
1773789993014845400,7.361845458984375,-0.0021883193403482437,-0.003240001853555441,-0.005654689855873585
1773789993034811400,7.381811279296875,0.00027856664382852614,-0.003338006092235446,-0.005347094964236021
1773789993054776300,7.4017763671875,-0.00035446672700345516,-0.002547047333791852,-0.0057132793590426445
1773789993074741500,7.421741455078125,-0.0013976269401609898,-0.0027292075101286173,-0.004752411041408777
1773789993094706400,7.44170654296875,-0.0006612628931179643,-0.0033420007675886154,-0.005654956214129925
1773789993114671400,7.46167138671875,0.00025300029665231705,-0.0036392095498740673,-0.005757487844675779
1773789993134636300,7.48163623046875,-0.000568052229937166,-0.0018287927377969027,-0.0046456181444227695
1773789993154602500,7.5016025390625,-0.00015659387281630188,-0.002368082758039236,-0.005565207917243242
1773789993174566400,7.52156640625,-0.0001573928166180849,-0.004366252571344376,-0.006419816054403782
1773789993194531300,7.54153125,-0.0007938882918097079,-0.004084490239620209,-0.004298341926187277
1773789993214496500,7.56149658203125,0.00017710021347738802,-0.0035329493694007397,-0.006129531655460596
1773789993234461400,7.58146142578125,-0.00039974047103896737,-0.003459978848695755,-0.004849083721637726
1773789993254426400,7.60142626953125,-0.0003733751946128905,-0.0030834078788757324,-0.007043794728815556
1773789993274391300,7.621391357421875,-0.0006958839949220419,-0.0033928672783076763,-0.006939398590475321
1773789993294357500,7.641357421875,-0.0012964267516508698,-0.0019459717441350222,-0.00726403808221221
1773789993314322400,7.661322509765625,-0.000474575295811519,-0.004113518632948399,-0.005643771030008793
1773789993334287600,7.68128759765625,-0.0017086841398850083,-0.002071140334010124,-0.005894108209758997
1773789993354252500,7.70125244140625,0.00042317630141042173,-0.0019944412633776665,-0.006442186422646046
1773789993374217500,7.721217529296875,0.00119602563790977,-0.0031411985401064157,-0.004667722620069981
1773789993394182400,7.741182373046875,0.0004814995336346328,-0.003254116512835026,-0.0054853130131959915
1773789993414148600,7.761148681640625,-0.0008325041271746159,-0.0033534523099660873,-0.005858954507857561
1773789993434113500,7.781113525390625,-0.0003400856803636998,-0.002802710747346282,-0.006214752793312073
1773789993454078500,7.801078369140625,-0.0004165183927398175,-0.001520398654974997,-0.00515801040455699
1773789993474043600,7.821043701171875,0.000928377965465188,-0.00310497940517962,-0.006398510653525591
1773789993494008600,7.841008544921875,-0.00007590009045088664,-0.003197923768311739,-0.0051803807727992535
1773789993513973500,7.860973388671875,0.0005480785621330142,-0.001549959764815867,-0.004993160720914602
1773789993533939700,7.880939697265625,-0.0005163869354873896,-0.0041646515019237995,-0.0049468218348920345
1773789993553904600,7.900904541015625,0.0002948119363281876,-0.0022711437195539474,-0.0054429685696959496
1773789993573869600,7.92086962890625,-0.00022743394947610795,-0.0030330740846693516,-0.006160424090921879
1773789993593834800,7.940834716796875,-0.00012090751260984689,-0.0036045885644853115,-0.00643899105489254
1773789993613799700,7.960799560546875,0.00010199906682828441,-0.002088983543217182,-0.006812898442149162
1773789993633764600,7.9807646484375,0.000005858954409632133,-0.0037971350830048323,-0.006564692128449678
1773789993653730600,8.00073046875,-0.00022317290131468326,-0.0026165556628257036,-0.006596117280423641
1773789993673695500,8.020695556640625,-0.0005885586142539978,-0.00392816262319684,-0.007150321267545223
1773789993693660400,8.040660400390625,0.00004207794336252846,-0.0017683389596641064,-0.0059865196235477924
1773789993713625300,8.060625244140626,-0.0006226470577530563,-0.003719370812177658,-0.005981992464512587
1773789993733590500,8.080590576171875,-0.0007850998663343489,-0.0043505397625267506,-0.006809703074395657
1773789993753555500,8.100555419921875,-0.000952080066781491,-0.002861566608771682,-0.005667206831276417
1773789993773520400,8.120520263671875,-0.00004713794987765141,-0.002965429797768593,-0.006185191683471203
1773789993793486600,8.140486572265624,-0.0002210423699580133,-0.0039041941054165363,-0.005441637244075537
1773789993813451500,8.160451416015626,-0.00020266656065359712,-0.0028069717809557915,-0.00672421557828784
1773789993833416400,8.18041650390625,-0.00014194648247212172,-0.0036887445021420717,-0.006386526394635439
1773789993853381600,8.200381591796875,0.00013555490295402706,-0.0017153420485556126,-0.004760666750371456
1773789993873346600,8.2203466796875,-0.0003225088003091514,-0.003157443832606077,-0.005166532471776009
1773789993893311500,8.2403115234375,-0.0005147890187799931,-0.0018133464036509395,-0.006583068054169416
1773789993913277700,8.260277587890625,0.000010652644050423987,-0.0017212009988725185,-0.0044235107488930225
1773789993933242600,8.28024267578125,-0.0002889529860112816,-0.002532399957999587,-0.0055034225806593895
1773789993953207600,8.30020751953125,-0.0001603222917765379,-0.00230816169641912,-0.006336725316941738
1773789993973172500,8.32017236328125,-0.0007070692372508347,-0.0037374801468104124,-0.006047506351023912
1773789993993137700,8.3401376953125,0.0006436860421672463,-0.002400306984782219,-0.0041675809770822525
1773789994013102600,8.3601025390625,0.0005475459038279951,-0.004036553204059601,-0.0059811933897435665
1773789994033067500,8.380067626953124,0.0001776328426785767,-0.003528422210365534,-0.005825398489832878
1773789994053033500,8.400033447265624,-0.0008229167433455586,-0.0028871328104287386,-0.005331648513674736
1773789994072998400,8.419998291015625,-0.0007994809420779347,-0.003462908323854208,-0.006201436743140221
1773789994092963600,8.439963623046875,-0.0004753742541652173,-0.003579554846510291,-0.0056890444830060005
1773789994112928500,8.459928466796875,0.0002085255109705031,-0.0029177593532949686,-0.006358030717819929
1773789994132893400,8.4798935546875,0.0013986921403557062,-0.0026082999538630247,-0.0059990365989506245
1773789994152858400,8.4998583984375,0.00018668759730644524,-0.002490055514499545,-0.0051803807727992535
1773789994172823800,8.51982373046875,-0.001050617080181837,-0.0036658411845564842,-0.006113552488386631
1773789994192789800,8.539789794921875,-0.0006354302167892456,-0.0035979305393993855,-0.007125287316739559
1773789994212755000,8.5597548828125,0.0005390237784013152,-0.002400573343038559,-0.006143912672996521
1773789994232720000,8.579719970703126,-0.00032144354190677404,-0.0020442423410713673,-0.006286657880991697
1773789994252684800,8.599684814453125,-0.0007896272582001984,-0.002546514617279172,-0.0070246197283267975
1773789994272649700,8.619649658203125,-0.00029587719473056495,-0.003352120751515031,-0.0062547000125050545
1773789994292615000,8.639614990234374,-0.0003581951605156064,-0.0031041805632412434,-0.004762530792504549
1773789994312579800,8.659579833984376,-0.0002335592289455235,-0.001955026527866721,-0.005844573490321636
1773789994332545800,8.6795458984375,0.0004348942020442337,-0.003430684097111225,-0.00520701240748167
1773789994352511000,8.699510986328125,0.0004021373169962317,-0.001642371411435306,-0.006333795841783285
1773789994372476000,8.719475830078125,-0.0005792375304736197,-0.0028549085836857557,-0.007748466916382313
1773789994392440800,8.73944091796875,-0.0001613875647308305,-0.0022413162514567375,-0.004550809506326914
1773789994412406000,8.759406005859375,-0.0011281149927526712,-0.003451190423220396,-0.006314088590443134
1773789994432371000,8.779370849609375,-0.0006348976166918874,-0.002375007141381502,-0.006065881811082363
1773789994452335900,8.7993359375,0.0000399474156438373,-0.003936951048672199,-0.006683735176920891
1773789994472302000,8.819302001953124,0.0007664577569812536,-0.001437041675671935,-0.0054328483529388905
1773789994492267000,8.83926708984375,-0.0003091930120717734,-0.002438922878354788,-0.005642971955239773
1773789994512232000,8.85923193359375,-0.00025779398856684566,-0.0032402679789811373,-0.005983057431876659
1773789994532196900,8.87919677734375,-0.00043755737715400755,-0.0035563854034990072,-0.005089034326374531
1773789994552162000,8.899162109375,0.0007627293234691024,-0.002205097349360585,-0.006286657880991697
1773789994572127000,8.919126953125,0.0003211772127542645,-0.0029830066487193108,-0.00446851784363389
1773789994592092000,8.939091796875,-0.0010159959783777595,-0.002843989757820964,-0.006457366514950991
1773789994612057000,8.95905712890625,-0.00022690132027491927,-0.002341451123356819,-0.006725813262164593
1773789994632022800,8.979022705078124,0.0008988168556243181,-0.0022146848496049643,-0.005930326879024506
1773789994651987700,8.99898779296875,-0.00043595946044661105,-0.002572613535448909,-0.0065170214511454105
1773789994671953000,9.018952880859375,-0.0001613875647308305,-0.0033505228348076344,-0.005540173966437578
1773789994691917800,9.038917724609375,-0.0011166634503751993,-0.0021371867042034864,-0.005922870244830847
1773789994711882800,9.0588828125,0.0010122675448656082,-0.0017949705943465233,-0.007059507537633181
1773789994731847700,9.07884765625,-0.0013187973527237773,-0.0028815402183681726,-0.005660815164446831
1773789994751812900,9.098812744140625,0.0002490055630914867,-0.0022855247370898724,-0.0048951562494039536
1773789994771778800,9.11877880859375,-0.0006551376427523792,-0.0020652813836932182,-0.0054640076123178005
1773789994791743700,9.13874365234375,0.00039734362508170307,-0.0041489386931061745,-0.007191866636276245
1773789994811709000,9.158708984375,-0.000045273736759554595,-0.0027257453184574842,-0.00717642018571496
1773789994831673900,9.178673828125,-0.00210602767765522,-0.0009289105655625463,-0.004737497307360172
1773789994851638800,9.198638671875,0.00022210762836039066,-0.002755040070042014,-0.005060005933046341
1773789994871604000,9.21860400390625,0.0005925533478148282,-0.0018871158827096224,-0.005271194502711296
1773789994891569000,9.23856884765625,-0.0005893575726076961,-0.0030511836521327496,-0.004959604702889919
1773789994911533800,9.258533935546875,0.0004367584188003093,-0.002843989757820964,-0.005164402071386576
1773789994931500000,9.2785,-0.0005531385540962219,-0.002266349969431758,-0.007439540233463049
1773789994951465000,9.29846484375,0.000006125270374468528,-0.003413107246160507,-0.004203266929835081
1773789994971430000,9.318429931640624,-0.0009824400767683983,-0.00304612354375422,-0.004830441437661648
1773789994991394800,9.338394775390626,-0.00030413299100473523,-0.002368615474551916,-0.006449377164244652
1773789995011360000,9.358360107421875,-0.00006604639202123508,-0.004372910596430302,-0.007902131415903568
1773789995031325000,9.378324951171875,-0.0009294432238675654,-0.002270611235871911,-0.005593170877546072
1773789995051289900,9.398289794921874,-0.0012237224727869034,-0.0035369442775845528,-0.00606348505243659
1773789995071255000,9.418255126953126,-0.0015190670965239406,-0.002448510378599167,-0.0044410875998437405
1773789995091220000,9.438219970703125,0.00030839405371807516,-0.002351038623601198,-0.005545766558498144
1773789995111185700,9.458185546875,0.000046339002437889576,-0.003876497270539403,-0.004393683280795813
1773789995131150800,9.47815087890625,-0.0011345066595822573,-0.003870371961966157,-0.00561048137024045
1773789995151115800,9.49811572265625,-0.0014796522445976734,-0.0021497036796063185,-0.007529288996011019
1773789995171081500,9.51808154296875,0.0012373046483844519,-0.0032024511601775885,-0.005601160228252411
1773789995191046400,9.53804638671875,-0.00056219327962026,-0.0029257487040013075,-0.005618204362690449
1773789995211011300,9.55801123046875,0.00013076121103949845,-0.004188885912299156,-0.006136189214885235
1773789995230976500,9.5779765625,0.0007595335482619703,-0.002281263703480363,-0.004625910893082619
1773789995250941400,9.59794140625,-0.0006287723081186414,-0.0032567796297371387,-0.005864280741661787
1773789995270907600,9.61790771484375,0.000070307454734575,-0.0020690099336206913,-0.006199839059263468
1773789995290872600,9.63787255859375,0.00007536746124969795,-0.0021049624774605036,-0.006777212489396334
1773789995310837500,9.65783740234375,0.00041332258842885494,-0.002751844236627221,-0.006527673918753862
1773789995330802400,9.677802490234376,-0.0006498112925328314,-0.0025334651581943035,-0.004769987892359495
1773789995350767600,9.697767578125,-0.0008503473363816738,-0.0037987329997122288,-0.006048837676644325
1773789995370732500,9.717732666015625,0.0008799084462225437,-0.0022538332268595695,-0.005878129042685032
1773789995390697500,9.737697509765624,-0.001463939668610692,-0.0035321505274623632,-0.00637827068567276
1773789995410662400,9.757662353515625,-0.001734250457957387,-0.002971821464598179,-0.006067479960620403
1773789995430627600,9.777627685546875,0.0000798948312876746,-0.003088467987254262,-0.004837099462747574
1773789995450593500,9.797593505859375,-0.00044554684427566826,-0.0033755565527826548,-0.004416053649038076
1773789995470558700,9.817558837890624,0.0006617955514229834,-0.002269279444590211,-0.007041131611913443
1773789995490523600,9.837523681640626,-0.002311623888090253,-0.0022533005103468895,-0.004796353168785572
1773789995510488600,9.857488525390625,-0.001130511867813766,-0.003703658003360033,-0.00631941482424736
1773789995530453500,9.87745361328125,-0.0007504787645302713,-0.0028655612841248512,-0.006629939656704664
1773789995550418700,9.897418701171874,0.00006338323146337643,-0.001547030289657414,-0.005759884603321552
1773789995570383600,9.917383544921876,0.00008069378236541525,-0.0022591594606637955,-0.005033907014876604
1773789995590348500,9.9373486328125,-0.0014215953415259719,-0.0029265477787703276,-0.0049561429768800735
1773789995610313500,9.9573134765625,0.0003049319493584335,-0.000743554555810988,-0.00609437795355916
1773789995630278700,9.977278564453124,-0.0004889564006589353,-0.0028245486319065094,-0.00529542937874794
1773789995650244400,9.997244384765626,-0.00042530681821517646,-0.002532133599743247,-0.0075689698569476604
1773789995670209500,10.01720947265625,-0.001201884588226676,-0.003540672594681382,-0.006397712044417858
1773789995690174500,10.037174560546875,-0.0008237157016992569,-0.003067162586376071,-0.004945223685353994
1773789995710139400,10.057139404296874,-0.001535312389023602,-0.003457315731793642,-0.006403038278222084
1773789995730104300,10.077104248046876,0.0003121224872302264,-0.0036852823104709387,-0.006325806491076946
1773789995750069500,10.097069580078125,-0.0009161274065263569,-0.0025308020412921906,-0.00595642626285553
1773789995770034400,10.117034423828125,0.00009214537567459047,-0.002808569697663188,-0.005045624915510416
1773789995789999400,10.136999267578124,-0.00025513084256090224,-0.0025449167005717754,-0.0062970444560050964
1773789995809964500,10.156964599609376,-0.00022157499915920198,-0.003490072675049305,-0.0054275221191346645
1773789995829930500,10.176930419921876,-0.0007249124464578927,-0.00253426400013268,-0.004909005016088486
1773789995849895400,10.1968955078125,-0.00044288369826972485,-0.003853327827528119,-0.006095442920923233
1773789995869860400,10.2168603515625,0.00034221619716845453,-0.0020793962758034468,-0.005018726922571659
1773789995889825500,10.236825439453124,0.0004703142330981791,-0.003406449221074581,-0.005741509143263102
1773789995909790500,10.25679052734375,0.00022503710351884365,-0.003846669802442193,-0.004944690968841314
1773789995929755400,10.27675537109375,-0.00012144014181103557,-0.003085538512095809,-0.006678675301373005
1773789995949720600,10.296720458984375,0.00021518341964110732,-0.002889796160161495,-0.006313555873930454
1773789995969685500,10.316685546875,0.0004953479510731995,-0.0019598202779889107,-0.006431533955037594
1773789995989650400,10.336650390625,0.000018109494703821838,-0.0019832560792565346,-0.006581469904631376
1773789996009615400,10.356615478515625,-0.00024447820032946765,-0.004057858604937792,-0.006335660349577665
1773789996029580500,10.37658056640625,-0.00007163903501350433,-0.0023845944087952375,-0.006580404471606016
1773789996049546500,10.39654638671875,-0.0006711165769957006,-0.0037558560725301504,-0.005930326879024506
1773789996069511400,10.416511474609376,-0.0002623213513288647,-0.0035121769178658724,-0.0057372478768229485
1773789996089476600,10.4364765625,-0.0015105449128895998,-0.0026881948579102755,-0.005253351293504238
1773789996109441500,10.456441650390625,-0.00025779398856684566,-0.0037646444980055094,-0.005351622123271227
1773789996129406500,10.476406494140624,-0.0003989415417890996,-0.002189118415117264,-0.005662146955728531
1773789996149371600,10.49637158203125,0.0010753844399005175,-0.0024413196370005608,-0.006687730085104704
1773789996169335800,10.516335693359375,0.00001944107498275116,-0.0037502634804695845,-0.00544403400272131
1773789996189301000,10.536301025390625,-0.0002061286650132388,-0.0028783443849533796,-0.00567066902294755
1773789996209266000,10.556265869140624,-0.0003206445835530758,-0.004545749630779028,-0.0057255299761891365
1773789996229230800,10.57623095703125,0.0003757720405701548,-0.004299673717468977,-0.004840028937906027
1773789996249197000,10.596197021484375,-0.0003856257244478911,-0.001568069215863943,-0.005622998345643282
1773789996269162000,10.616161865234375,-0.000060986389144090936,-0.003297259798273444,-0.005353220272809267
1773789996289127000,10.636126953125,-0.0005821670056320727,-0.003049319377169013,-0.005502623505890369
1773789996309091800,10.656091796875,0.00041545313433744013,-0.0017635452095419168,-0.006843524985015392
1773789996329057000,10.67605712890625,-0.001204547705128789,-0.0028868666850030422,-0.005502357147634029
1773789996349022000,10.69602197265625,0.00028096348978579044,-0.003020024625584483,-0.005994775798171759
1773789996368987000,10.71598681640625,0.0005275722360238433,-0.0032716933637857437,-0.006058957893401384
1773789996388952000,10.7359521484375,0.0005339637864381075,-0.0035843485966324806,-0.005320196971297264
1773789996408917000,10.7559169921875,0.00020719393796753138,-0.002641855739057064,-0.005803294479846954
1773789996428882000,10.7758818359375,-0.0004495415778364986,-0.003144660498946905,-0.005902630276978016
1773789996448846800,10.795846923828124,-0.00020053602929692715,-0.0023180153220891953,-0.005607019178569317
1773789996468813000,10.81581298828125,-0.0004857605672441423,-0.0022298647090792656,-0.004620318301022053
1773789996488778000,10.835778076171875,-0.0009797769598662853,-0.0021699436474591494,-0.004927114117890596
1773789996508743000,10.855742919921875,-0.0009078715811483562,-0.003460245206952095,-0.0034354778472334146
1773789996528708000,10.8757080078125,-0.0005930859479121864,-0.003102582646533847,-0.004473045468330383
1773789996548673000,10.895673095703126,-0.00034887410583905876,-0.003129746997728944,-0.005056543741375208
1773789996568638000,10.915637939453125,-0.0010378338629379869,-0.003081543603911996,-0.005344964098185301
1773789996588603100,10.93560302734375,0.0010151970200240612,-0.0022533005103468895,-0.005532717332243919
1773789996608568000,10.955568115234374,0.0012719257501885295,-0.00401631323620677,-0.006044310517609119
1773789996628533000,10.975532958984376,0.0002061286650132388,-0.0007155913626775146,-0.004454669542610645
1773789996648498000,10.995497802734375,-0.0003685815026983619,-0.003308977698907256,-0.003774498123675585
1773789996668463000,11.015463134765625,-0.0007547398563474417,-0.0028884646017104387,-0.004602475091814995
1773789996688428000,11.035427978515624,-0.00020426444825716317,-0.003418699838221073,-0.006779342889785767
1773789996708393700,11.055393798828124,0.00041305628838017583,-0.003808320267125964,-0.005548429675400257
1773789996728359000,11.07535888671875,-0.0003126551164314151,-0.003031476167961955,-0.005839779507368803
1773789996748323800,11.09532373046875,0.0002463423879817128,-0.0036432044580578804,-0.006597449071705341
1773789996768288800,11.115288818359375,-0.000147272803587839,-0.0025784724857658148,-0.005135905928909779
1773789996788254000,11.13525390625,-0.0000679106087773107,-0.001008805469609797,-0.0055002267472445965
1773789996808219000,11.155218994140625,0.000018908443962573074,-0.002240517409518361,-0.004956675227731466
1773789996828183800,11.175183837890625,-0.0006628608098253608,-0.0032770195975899696,-0.005281314719468355
1773789996848148700,11.195148681640624,0.0004527373821474612,-0.00270630419254303,-0.007375091779977083
1773789996868115000,11.215114990234374,0.0013848437229171395,-0.0015773903578519821,-0.005230980925261974
1773789996888080000,11.235079833984376,-0.0018932411912828684,-0.003340402850881219,-0.005930593237280846
1773789996908044800,11.255044921875,0.000474575295811519,-0.0029230855870991945,-0.006051767151802778
1773789996928010000,11.275010009765625,0.0004934837343171239,-0.0027622305788099766,-0.006420082412660122
1773789996947975000,11.294974853515624,0.0004625910660251975,-0.001823466387577355,-0.004421912599354982
1773789996967939800,11.31493994140625,-0.00022184131375979632,-0.0023845944087952375,-0.004878378473222256
1773789996987904800,11.33490478515625,-0.0014684670604765415,-0.002891926560550928,-0.006372678093612194
1773789997007870000,11.354869873046875,-0.00032570460462011397,-0.0035950010642409325,-0.005789712071418762
1773789997027835000,11.3748349609375,0.000824248360004276,-0.002523078816011548,-0.005570001434534788
1773789997047799800,11.3947998046875,0.00088976213010028,-0.0030477214604616165,-0.005961752496659756
1773789997067765000,11.414764892578125,-0.0001294296234846115,-0.0034525219816714525,-0.0060387179255485535
1773789997087730000,11.43472998046875,0.00031851406674832106,-0.003465571440756321,-0.0057287258096039295
1773789997107694800,11.45469482421875,0.000002663161012605997,-0.0035862126387655735,-0.006054696626961231
1773789997127661000,11.4746611328125,-0.00032650353386998177,-0.0019566244445741177,-0.006007025949656963
1773789997147626000,11.4946259765625,0.0003677825443446636,-0.0024413196370005608,-0.005648564547300339
1773789997167591400,11.51459130859375,0.0004644552827812731,-0.002070607617497444,-0.005835252348333597
1773789997187556400,11.534556396484374,-0.0007217166712507606,-0.002276203827932477,-0.0046876962296664715
1773789997207520300,11.554520263671876,-0.000639691308606416,-0.0022620889358222485,-0.005431250669062138
1773789997227486500,11.574486572265625,-0.0004876247840002179,-0.0031787490006536245,-0.005554022267460823
1773789997247451400,11.594451416015625,0.0010466222884133458,-0.004416320007294416,-0.0062640211544930935
1773789997267416600,11.61441650390625,0.00014088122406974435,-0.0036842171102762222,-0.004744421225041151
1773789997287381500,11.634381591796876,-0.0006471481174230576,-0.003175020683556795,-0.007114634849131107
1773789997307346400,11.654346435546875,-0.0006378270918503404,-0.003343865042552352,-0.006036054342985153
1773789997327311400,11.674311279296875,-0.000883636821527034,-0.0018221348291262984,-0.00532632227987051
1773789997347276500,11.694276611328124,-0.0009771138429641724,-0.0015134743880480528,-0.005827262531965971
1773789997367241500,11.714241455078126,-0.0023752732668071985,-0.002168612089008093,-0.005432049743831158
1773789997387206400,11.734206298828125,0.0007965514669194818,-0.003224022686481476,-0.006317550782114267
1773789997407171300,11.75417138671875,0.0006167881074361503,-0.002925216220319271,-0.004622981417924166
1773789997427136500,11.774136474609374,0.0005328985280357301,-0.004720186814665794,-0.006097573786973953
1773789997447101400,11.794101318359376,-0.000922252656891942,-0.0022181468084454536,-0.005007541738450527
1773789997467066400,11.81406640625,-0.0013709953054785728,-0.004379035905003548,-0.007483748719096184
1773789997487031600,11.834031494140625,0.0000828243064461276,-0.00290364446118474,-0.004710332956165075
1773789997506996500,11.85399658203125,0.0002897519152611494,-0.0032858080230653286,-0.005629922728985548
1773789997526962200,11.873962158203126,0.00001651159800530877,-0.0031015174463391304,-0.007830758579075336
1773789997546927400,11.89392724609375,-0.00026525085559114814,-0.0022836606949567795,-0.0052024852484464645
1773789997566892300,11.913892333984375,-0.0004551342281047255,-0.0029885992407798767,-0.006256298162043095
1773789997586857200,11.933857177734374,-0.0003038666909560561,-0.0020764668006449938,-0.005379585549235344
1773789997606822100,11.953822265625,0.0001102548703784123,-0.0028602350503206253,-0.007006510626524687
1773789997626787300,11.973787353515625,-0.0007811051327735186,-0.0038181741256266832,-0.0028961875941604376
1773789997646752300,11.993752197265625,-0.001136370818130672,-0.003308444982394576,-0.006387059111148119
1773789997666717200,12.01371728515625,-0.0016823188634589314,-0.0031132353469729424,-0.00705711031332612
1773789997686682400,12.033682373046876,-0.000657534459605813,-0.0031137678306549788,-0.006604905705899
1773789997706647300,12.053647216796875,-0.001288171042688191,-0.0037561224307864904,-0.007150587625801563
1773789997726612200,12.0736123046875,0.0006021407316438854,-0.0024671524297446012,-0.005524461157619953
1773789997746577200,12.0935771484375,-0.0005475459038279951,-0.0017712684348225594,-0.006749249063432217
1773789997766542300,12.113542236328126,-0.0006290386663749814,-0.001401355373673141,-0.005359345115721226
1773789997786507300,12.13350732421875,-0.00014674017438665032,-0.003575826296582818,-0.005588111001998186
1773789997806472200,12.15347216796875,-0.000251402409048751,-0.0024628913961350918,-0.00490287970751524
1773789997826437400,12.173437255859374,-0.0005150553770363331,-0.0034442662727087736,-0.006089317612349987
1773789997846403300,12.1934033203125,-0.00016298545233439654,-0.0025771409273147583,-0.0046874298714101315
1773789997866368300,12.2133681640625,0.0005070658517070115,-0.0037089844699949026,-0.005860285833477974
1773789997886333400,12.23333349609375,0.0003376888344064355,-0.002675145398825407,-0.005392901133745909
1773789997906298400,12.25329833984375,0.00034168356796726584,-0.0032349417451769114,-0.005646966863423586
1773789997926263300,12.27326318359375,-0.0005060005933046341,-0.003582217963412404,-0.005312207154929638
1773789997946228200,12.293228271484375,0.00040666470886208117,-0.0031198931392282248,-0.00564110791310668
1773789997966193400,12.313193359375,-0.00011052118497900665,-0.002418416552245617,-0.006704241503030062
1773789997986158300,12.333158447265625,-0.00007243797881528735,-0.002907373011112213,-0.006050701718777418
1773789998006123300,12.353123291015624,-0.0007227819296531379,-0.0020903151016682386,-0.0054277884773910046
1773789998026088400,12.37308837890625,-0.001050617080181837,-0.0035486621782183647,-0.006328469607979059
1773789998046053400,12.393053466796875,-0.001969141187146306,-0.0023209447972476482,-0.006010754499584436
1773789998066018300,12.413018310546875,-0.00024501082953065634,-0.003034672001376748,-0.006375873927026987
1773789998085983200,12.432983154296876,-0.00024527712957933545,-0.0021046961192041636,-0.00663499953225255
1773789998105948400,12.452948486328125,0.00026498452643863857,-0.003565173828974366,-0.0054815844632685184
1773789998125913300,12.472913330078125,0.00009614011651137844,-0.002025600289925933,-0.004823783412575722
1773789998145878300,12.492878173828124,0.000362988852430135,-0.0032977922819554806,-0.005046423990279436
1773789998165843000,12.512843017578126,-0.001487375469878316,-0.002523611532524228,-0.006595318205654621
1773789998185808000,12.532807861328125,0.000553404854144901,-0.002263420494273305,-0.005911418702453375
1773789998205773800,12.55277392578125,-0.00006444849714171141,-0.003978230059146881,-0.005774265620857477
1773789998225739000,12.572739013671875,-0.0013928331900388002,-0.002460228279232979,-0.005343899130821228
1773789998245704000,12.592703857421874,-0.0003888215287588537,-0.0035454663448035717,-0.005429386626929045
1773789998265668900,12.6126689453125,-0.0007731156656518579,-0.002287921728566289,-0.0065439194440841675
1773789998285633800,12.6326337890625,0.00023409185814671218,-0.003397927153855562,-0.005438441410660744
1773789998305599000,12.652598876953125,-0.0006482133758254349,-0.0031878037843853235,-0.00697774812579155
1773789998325564000,12.67256396484375,-0.0006535397260449827,-0.00307541829533875,-0.005273059010505676
1773789998345528800,12.69252880859375,0.0007443535141646862,-0.0030631679110229015,-0.004515655804425478
1773789998365494000,12.712493896484375,-0.0005731122801080346,-0.00350392097607255,-0.005288771353662014
1773789998385459000,12.732458984375,-0.0008881642133928835,-0.0020700751338154078,-0.005852829199284315
1773789998405423900,12.752423828125,0.00026258768048137426,-0.002779274946078658,-0.005356415640562773
1773789998425388800,12.772388916015625,-0.00126766471657902,-0.0029502499382942915,-0.006201170384883881
1773789998445354000,12.79235400390625,-0.0015851134667173028,-0.0028706213925033808,-0.006167881190776825
1773789998465319000,12.81231884765625,-0.0005262406193651259,-0.002921754028648138,-0.00580915343016386
1773789998485283800,12.832283935546876,-0.0007992146420292556,-0.0031856733839958906,-0.0062704128213226795
1773789998505248800,12.852248779296875,-5.326322138898831e-7,-0.003353186184540391,-0.0057279267348349094
1773789998525214000,12.8722138671875,-0.0012599414912983775,-0.0022120214998722076,-0.00618199585005641
1773789998545179000,12.892178955078125,0.0007523429812863469,-0.0028719529509544373,-0.004510862287133932
1773789998565143800,12.912143798828126,-0.0006498112925328314,-0.001651159836910665,-0.005255482159554958
1773789998585110000,12.932110107421876,-0.000648479734081775,-0.004889563657343388,-0.004030694253742695
1773789998605075000,12.952074951171875,0.0006250438746064901,-0.0018431737553328276,-0.006583866663277149
1773789998625040000,12.972039794921875,-0.0008684568456374109,-0.0030892668291926384,-0.005270928610116243
1773789998645005000,12.992005126953124,-0.00040240364614874125,-0.0031100395135581493,-0.004367318004369736
1773789998664970000,13.011969970703126,0.0017840516520664096,-0.0026525084394961596,-0.005708219483494759
1773789998684935000,13.031934814453125,-0.00026312030968256295,-0.002198705682530999,-0.004791293293237686
1773789998704899800,13.05189990234375,-0.0008625978953205049,-0.0026764769572764635,-0.0054389736615121365
1773789998724865000,13.071864990234374,-0.0003379551344551146,-0.003940413240343332,-0.006640059407800436
1773789998744830000,13.091829833984375,-0.0007552724564447999,-0.0018668759148567915,-0.004196076653897762
1773789998764795000,13.111794921875,0.0009257147903554142,-0.0028935244772583246,-0.005666407756507397
1773789998784760000,13.131760009765625,-0.00023861923546064645,-0.002543052425608039,-0.006533000618219376
1773789998804725000,13.15172509765625,0.0003480751474853605,-0.002841060282662511,-0.0043838294222950935
1773789998824690000,13.17168994140625,-0.0015675366157665849,-0.0041247038170695305,-0.005156146362423897
1773789998844654800,13.19165478515625,-0.00012650014832615852,-0.003837615018710494,-0.005351089406758547
1773789998864620000,13.2116201171875,0.0007592672482132912,-0.001910019083879888,-0.004837632179260254
1773789998884585000,13.2315849609375,0.0003789678157772869,-0.002499376656487584,-0.006369215901941061
1773789998904550000,13.2515498046875,0.001032507512718439,-0.0035534559283405542,-0.0052951630204916
1773789998924515000,13.27151513671875,0.0015486282063648105,-0.0035574506036937237,-0.005455751903355122
1773789998944480000,13.29147998046875,-0.0004090615548193455,-0.0023486416321247816,-0.00580782163888216
1773789998964445000,13.31144482421875,-0.00009241169027518481,-0.0026285399217158556,-0.00631914846599102
1773789998984409900,13.331409912109375,-0.00009400958515470847,-0.0028487835079431534,-0.005064267199486494
1773789999004375000,13.351375,-0.000029294771593413316,-0.0030602384358644485,-0.004861334338784218
1773789999024340000,13.371340087890625,-0.0003936151915695518,-0.0036695697344839573,-0.005615274887531996
1773789999044305000,13.391304931640626,0.0007632619817741215,-0.0033489251509308815,-0.006148706190288067
1773789999064270000,13.41127001953125,0.00031878036679700017,-0.002981142606586218,-0.0051806471310555935
1773789999084235000,13.431235107421875,0.0004950816510245204,-0.0020698087755590677,-0.006347111891955137
1773789999104200000,13.451199951171875,0.00011877698125317693,-0.003162503708153963,-0.005425391718745232
1773789999124166000,13.471165771484374,0.0009480853332206607,-0.0034016557037830353,-0.005311674904078245
1773789999144131000,13.491131103515626,0.0010628675809130073,-0.003227751236408949,-0.005816610064357519
1773789999164096300,13.51109619140625,-0.0006660565850324929,-0.00036485306918621063,-0.006554305553436279
1773789999184061200,13.531061279296875,-0.0016801883466541767,-0.003037601476535201,-0.004804342519491911
1773789999204026000,13.551026123046874,-0.0006735134520567954,-0.003921238239854574,-0.006162820849567652
1773789999223991300,13.5709912109375,-0.0013254552613943815,-0.002673813607543707,-0.004569718148559332
1773789999243956200,13.590956298828125,-0.0008415589109063148,-0.0027254789602011442,-0.007529821712523699
1773789999263921200,13.610921142578125,0.0011211908422410488,-0.0024802018888294697,-0.0057191383093595505
1773789999283886000,13.630885986328124,-0.0005313006113283336,-0.0026343988720327616,-0.0054123420268297195
1773789999303851300,13.650851318359376,-0.002186188939958811,-0.002651176881045103,-0.005107410252094269
1773789999323816200,13.670816162109375,-0.00024767397553659976,-0.0019896477460861206,-0.007861385121941566
1773789999343781000,13.690781005859375,0.00013209278404247016,-0.0027148264925926924,-0.004293282050639391
1773789999363746000,13.71074609375,-0.0012058793799951673,-0.003641340183094144,-0.006059490609914064
1773789999383711200,13.730711181640626,-0.0008098672842606902,-0.003680222202092409,-0.006900516804307699
1773789999403676200,13.75067626953125,-0.0006580671179108322,-0.0026554379146546125,-0.005860285833477974
1773789999423641000,13.77064111328125,-0.000589091214351356,-0.002801911672577262,-0.006614493206143379
1773789999443606300,13.790606201171874,-0.00021198761533014476,-0.002296177437528968,-0.005449626594781876
1773789999463571200,13.8105712890625,-0.00017496968212071806,-0.003584614722058177,-0.005425125360488892
1773789999483536100,13.8305361328125,-0.0004980111261829734,-0.002654106356203556,-0.0048978193663060665
1773789999503501000,13.8505009765625,-0.0007701861904934049,-0.002531867241486907,-0.005739111918956041
1773789999523466200,13.87046630859375,-0.0003150519623886794,-0.0023694143164902925,-0.0047849016264081
1773789999543431200,13.89043115234375,0.0007595335482619703,-0.0012753878254443407,-0.00566880451515317
1773789999563396000,13.91039599609375,-0.0012599414912983775,-0.002141980454325676,-0.006111155729740858
1773789999583361300,13.930361328125,-0.0008724515791982412,-0.002802977105602622,-0.00487278588116169
1773789999603326200,13.950326171875,0.00040266994619742036,-0.0027324033435434103,-0.005674397107213736
1773789999623291100,13.970291015625,0.00040426786290481687,-0.0021851237397640944,-0.007218231912702322
1773789999643256000,13.990256103515625,-0.000218645524000749,-0.0038951393216848373,-0.0057260626927018166
1773789999663221200,14.01022119140625,-0.0017989652696996927,-0.0026285399217158556,-0.006028064992278814
1773789999683186200,14.030186279296874,0.0003403519804123789,-0.002968891989439726,-0.005394765175879002
1773789999703151000,14.050151123046875,-0.0000881506348378025,-0.0030623688362538815,-0.005121524911373854
1773789999723116000,14.070115966796875,-0.0009411611245013773,-0.003707652911543846,-0.004456267226487398
1773789999743081200,14.090081298828125,-0.00003728425508597866,-0.001844505313783884,-0.005819273181259632
1773789999763046100,14.110046142578126,0.0000929443194763735,-0.002928145695477724,-0.004781972151249647
1773789999783011000,14.130010986328125,0.0001496696495451033,-0.0023305322974920273,-0.00672315014526248
1773789999802976300,14.149976318359375,-0.0010066748363897204,-0.0029433255549520254,-0.0055090151727199554
1773789999822941200,14.169941162109374,-0.0007922904333099723,-0.0016098808264359832,-0.005367867648601532
1773789999842906000,14.189906005859376,0.00043329631444066763,-0.0004924184759147465,-0.006170810665935278
1773789999862871300,14.209871337890625,-0.000907338981050998,-0.0027630296535789967,-0.006132993847131729
1773789999882836200,14.229836181640625,0.0005041363765485585,-0.0012306467397138476,-0.007140733767300844
1773789999902801200,14.24980126953125,0.0008215851848945022,-0.002237587934359908,-0.005274123977869749
1773789999922766300,14.269766357421876,-0.0001728391507640481,-0.0027260116767138243,-0.005458681378513575
1773789999942732300,14.289732177734376,0.0008543420699425042,-0.0033417344093322754,-0.004612328484654427
1773789999962697200,14.309697265625,0.0007267766632139683,-0.0033129723742604256,-0.004824049770832062
1773789999982662100,14.329662109375,-0.0004063983797095716,-0.002600044244900346,-0.007149788551032543
1773790000002627300,14.34962744140625,-0.0006095975404605269,-0.004416320007294416,-0.005878395400941372
1773790000022592300,14.36959228515625,0.000018908443962573074,-0.0019835224375128746,-0.006163087207823992
1773790000042557200,14.38955712890625,-0.0008415589109063148,-0.0038123151753097773,-0.005516738165169954
1773790000062522000,14.409522216796875,-0.000031957933970261365,-0.003370763035491109,-0.006386260036379099
1773790000082487300,14.4294873046875,-0.0016178702935576439,-0.002683134749531746,-0.004892493132501841
1773790000102452200,14.4494521484375,-0.0004625910660251975,-0.0032538501545786858,-0.005405684467405081
1773790000122417200,14.469417236328125,-0.0019353191601112485,-0.003064499469473958,-0.004719920456409454
1773790000142382300,14.48938232421875,0.0007661914569325745,-0.0031033814884722233,-0.006472280248999596
1773790000162347300,14.50934716796875,-0.0009486179915256798,-0.0031827439088374376,-0.005579855293035507
1773790000182312700,14.529312744140626,0.0008631304954178631,-0.003287672298029065,-0.005328186322003603
1773790000202277600,14.549277587890625,0.00032330775866284966,-0.00387303507886827,-0.005204349290579557
1773790000222242800,14.569242919921875,-0.0005310343112796545,-0.003718305379152298,-0.005342300981283188
1773790000242207700,14.589207763671874,0.0007800398743711412,-0.0017132115317508578,-0.005089567042887211
1773790000262172700,14.609172607421876,0.00009507485083304346,-0.0033017871901392937,-0.006030994467437267
1773790000282137600,14.6291376953125,-0.0002426139690214768,-0.001785116852261126,-0.0062578958459198475
1773790000302102800,14.649102783203125,-0.0007440872141160071,-0.0026346652302891016,-0.006155896931886673
1773790000322067700,14.669067626953124,0.00000852211542223813,-0.0035502600949257612,-0.006894391495734453
1773790000342032600,14.68903271484375,0.0002002697146963328,-0.003239202778786421,-0.006272010505199432
1773790000361997800,14.708997802734375,-0.0007725830073468387,-0.0024232103023678064,-0.005036836490035057
1773790000381962800,14.728962646484375,-0.001683916780166328,-0.003376888344064355,-0.006075469311326742
1773790000401927700,14.748927734375,-0.0015068164793774486,-0.003591006388887763,-0.005511678289622068
1773790000421892600,14.768892578125,-0.00022663500567432493,-0.0034165694378316402,-0.004803809802979231
1773790000441857800,14.78885791015625,0.00020240024605300277,-0.003166498616337776,-0.004049336537718773
1773790000461822700,14.80882275390625,0.00040480049210600555,-0.0035888757556676865,-0.0054363105446100235
1773790000481787600,14.82878759765625,-0.0009890979854390025,-0.0031425300985574722,-0.006194246467202902
1773790000501752800,14.8487529296875,-0.0007363640470430255,-0.0035547874867916107,-0.006715959403663874
1773790000521717800,14.8687177734375,-0.000020772657080669887,-0.003245061729103327,-0.006197708658874035
1773790000541682700,14.8886826171875,-0.00019494339358061552,-0.0037883466575294733,-0.005696767941117287
1773790000561647600,14.908647705078126,-0.0011880361707881093,-0.0027614317368716,-0.005732454359531403
1773790000581612800,14.92861279296875,-0.0014942996203899384,-0.0022772690281271935,-0.006071208510547876
1773790000601577700,14.94857763671875,-0.0002948119363281876,-0.002746251644566655,-0.006962302140891552
1773790000621542700,14.968542724609375,-0.00019494339358061552,-0.0035278894938528538,-0.004757470916956663
1773790000641507600,14.988507568359376,0.0009161274065263569,-0.0028644960839301348,-0.005633650813251734
1773790000661472800,15.00847265625,0.00031558459158986807,-0.001955559244379401,-0.006911968346685171
1773790000681437700,15.028437744140625,-0.00027057717670686543,-0.0026437200140208006,-0.004575310740619898
1773790000701402600,15.048402587890624,-0.0001536643976578489,-0.003195260651409626,-0.004286091309040785
1773790000721367800,15.068367919921876,-0.0012412993237376213,-0.003546797903254628,-0.005376656074076891
1773790000741332700,15.088332763671875,-0.0016492956783622503,-0.003404052462428808,-0.006982542108744383
1773790000761297700,15.108297607421875,0.0000399474156438373,-0.003576092654839158,-0.005065598525106907
1773790000781262600,15.1282626953125,0.000758734589908272,-0.002697515767067671,-0.007155114784836769
1773790000801227800,15.148227783203126,0.0009118663729168475,-0.002909503411501646,-0.004761732183396816
1773790000821192700,15.168192626953125,0.00011238539445912465,-0.004269846249371767,-0.005702626891434193
1773790000841157600,15.18815771484375,-0.0005291700945235789,-0.0025427863001823425,-0.005855492316186428
1773790000861122800,15.208122802734374,-0.00020293287525419146,-0.004578240215778351,-0.0067780110985040665
1773790000881087700,15.228087646484376,-0.0005286374944262207,-0.0027142937760800123,-0.00475400872528553
1773790000901052700,15.248052734375,0.00021971078240312636,-0.0028879318851977587,-0.005483182147145271
1773790000921017600,15.268017578125,-0.0009456885163672268,-0.0038120488170534372,-0.005420065484941006
1773790000940982800,15.287982666015624,-0.0005020058597438037,-0.002472745021805167,-0.005774531979113817
1773790000960947700,15.30794775390625,0.000857005245052278,-0.002132925670593977,-0.00523683987557888
1773790000980912600,15.32791259765625,-0.00040746363811194897,-0.002931075170636177,-0.007485080510377884
1773790001000877600,15.347877685546875,-0.0007813714328221977,-0.00307648372836411,-0.004788629710674286
1773790001020842800,15.3678427734375,0.0012202603975310922,-0.002894589677453041,-0.0049558766186237335
1773790001040807700,15.3878076171875,0.0005571332876570523,-0.003406981937587261,-0.004610730800777674
1773790001060772600,15.407772705078125,-0.00020346550445538014,-0.0028815402183681726,-0.0049247173592448235
1773790001080737800,15.42773779296875,0.0004743089957628399,-0.0030599720776081085,-0.00683047529309988
1773790001100702700,15.44770263671875,0.0003062635369133204,-0.00375958438962698,-0.005062669049948454
1773790001120667600,15.467667724609376,0.0007358313887380064,-0.003460511565208435,-0.005371862091124058
1773790001140632600,15.487632568359375,0.00020959076937288046,-0.0022778017446398735,-0.006680805701762438
1773790001160597800,15.50759765625,-0.0006002765148878098,-0.0020042951218783855,-0.006556968670338392
1773790001180562400,15.5275625,-0.00013635384675581008,-0.0013930995482951403,-0.005096491426229477
1773790001200527400,15.54752734375,-0.0014114753575995564,-0.0026346652302891016,-0.005786516238003969
1773790001220492500,15.567492431640625,-0.0018437063554301858,-0.0032019184436649084,-0.00544430036097765
1773790001240457500,15.58745751953125,-0.0007901599165052176,-0.004051466938108206,-0.00609251344576478
1773790001260422400,15.60742236328125,-0.0007773766992613673,-0.002484196564182639,-0.0054333810694515705
1773790001280387300,15.62738720703125,-0.0008309062686748803,-0.0040735709480941296,-0.00615190202370286
1773790001300352500,15.6473525390625,0.0003062635369133204,-0.003861317178234458,-0.007243265397846699
1773790001320317400,15.6673173828125,0.00003355582884978503,-0.0029883331153541803,-0.005884254351258278
1773790001340282400,15.687282470703124,0.001139300293289125,-0.00279099284671247,-0.003967577591538429
1773790001360247300,15.707247314453125,-0.0004215783847030252,-0.004038151353597641,-0.005891178734600544
1773790001380212500,15.72721240234375,0.0005464806454256177,-0.0035337484441697598,-0.005694637540727854
1773790001400177400,15.747177490234375,-0.0005089300684630871,-0.0035111114848405123,-0.004194744862616062
1773790001420142300,15.767142333984374,-0.00024980452144518495,-0.0037968687247484922,-0.004850149154663086
1773790001440107500,15.787107421875,-0.002433863002806902,-0.0014911039033904672,-0.006475209724158049
1773790001460072400,15.807072509765625,-0.0018556906143203378,-0.0033270870335400105,-0.004000600427389145
1773790001480037400,15.827037353515625,0.00019467707898002118,-0.003156644757837057,-0.005399026442319155
1773790001500002300,15.847002197265626,-0.0002926813904196024,-0.0028032432310283184,-0.006636330857872963
1773790001519967500,15.866967529296875,-0.001466869143769145,-0.004673581570386887,-0.005754292011260986
1773790001539932400,15.886932373046875,-0.0011587414192035794,-0.0021377194207161665,-0.0057281930930912495
1773790001559897300,15.9068974609375,-0.0010783139150589705,-0.004396879114210606,-0.005651227664202452
1773790001579862500,15.926862548828124,-0.001068193931132555,-0.0030594393610954285,-0.0065535069443285465
1773790001599827500,15.946827392578125,0.0006452839006669819,-0.002710032742470503,-0.005093295592814684
1773790001619791600,15.96679150390625,-0.0005901564727537334,-0.0027089675422757864,-0.005446963477879763
1773790001639756500,15.986756591796874,-0.0013752563390880823,-0.0034914042335003614,-0.005225654691457748
1773790001659721500,16.006721435546876,0.0004308994684834033,-0.002880475018173456,-0.00663553224876523
1773790001679686700,16.026686767578123,-0.0009081379394046962,-0.0027387947775423527,-0.006679208017885685
1773790001699651600,16.046651611328127,0.0014884406700730324,-0.0033776871860027313,-0.006157228257507086
1773790001719616500,16.066616455078126,0.00015286543930415064,-0.0025806031189858913,-0.004767324775457382
1773790001739581700,16.086581787109374,-0.0002109223569277674,-0.00281975488178432,-0.006293315906077623
1773790001759546600,16.106546630859373,-0.00041971419705078006,-0.0033068470656871796,-0.005197159014642239
1773790001779511600,16.126511474609377,-0.0008668589289300144,-0.002365952357649803,-0.0049345712177455425
1773790001799476500,16.1464765625,-0.0007901599165052176,-0.0016437029698863626,-0.005864014383405447
1773790001819441700,16.166441650390624,0.0005432848702184856,-0.00330338510684669,-0.005727127660065889
1773790001839406600,16.186406494140623,0.0012261193478479981,-0.004355333745479584,-0.007464840542525053
1773790001859371500,16.20637158203125,0.00021544973424170166,-0.002519616624340415,-0.006068544927984476
1773790001879336700,16.226336669921874,-0.0012620720081031322,-0.0031193606555461884,-0.006154298782348633
1773790001899301600,16.246301513671874,-0.002091646660119295,-0.0029979203827679157,-0.0057281930930912495
1773790001919266600,16.2662666015625,0.00043302998528815806,-0.002638926263898611,-0.005593969952315092
1773790001939231500,16.2862314453125,-0.0006197175825946033,-0.003945206757634878,-0.005459479987621307
1773790001959196700,16.30619677734375,0.0009672601008787751,-0.0032147017773240805,-0.004744421225041151
1773790001979161600,16.32616162109375,-0.00014753911818843335,-0.0027686222456395626,-0.006631537340581417
1773790001999126500,16.34612646484375,-0.0002508697798475623,-0.002092179376631975,-0.005478122271597385
1773790002019091500,16.366091552734375,0.0005874933558516204,-0.0018431737553328276,-0.004574511665850878
1773790002039056600,16.386056640625,0.0002942793071269989,-0.003272492438554764,-0.0054429685696959496
1773790002059021600,16.406021484375,-0.0001150485550169833,-0.003091131104156375,-0.0046906257048249245
1773790002078986500,16.425986572265625,-0.0011065434664487839,-0.0015997608425095677,-0.0054666707292199135
1773790002098951700,16.44595166015625,0.00045140579459257424,-0.002948119305074215,-0.006938599981367588
1773790002118916600,16.46591650390625,-0.0011470235185697675,-0.002773149637505412,-0.005941778887063265
1773790002138881500,16.485881591796876,0.0001382180635118857,-0.0025686188600957394,-0.006369482260197401
1773790002158846500,16.505846435546875,-0.0011835087789222598,-0.004911135416477919,-0.005858421791344881
1773790002178811600,16.525811767578126,-0.0006261091912165284,-0.0024762072134763002,-0.005368133541196585
1773790002198776600,16.545776611328126,-0.001091896090656519,-0.004180363845080137,-0.005209143273532391
1773790002218741500,16.565741455078125,-0.0008452873444184661,-0.003063966752961278,-0.006197974551469088
1773790002238705700,16.58570556640625,0.000004793690095539205,-0.0025566346012055874,-0.006400108803063631
1773790002258670600,16.605670654296876,-0.0007115966291166842,-0.003242931328713894,-0.005388906225562096
1773790002278635500,16.625635498046876,-0.0012338425731286407,-0.0032812808640301228,-0.005765743553638458
1773790002298600400,16.645600341796875,0.00027563716867007315,-0.003184075467288494,-0.005044027231633663
1773790002318565600,16.665565673828127,-0.0012977584265172482,-0.002377403900027275,-0.005315669346600771
1773790002338530600,16.685530517578126,-0.0011851066956296563,-0.00290364446118474,-0.0054791877046227455
1773790002358495500,16.70549560546875,0.00028575718170031905,-0.0016197345685213804,-0.0029052423778921366
1773790002378460700,16.725460693359373,-0.0013345100451260805,-0.0027507790364325047,-0.0056925066746771336
1773790002398425600,16.745425537109377,-0.00003888214996550232,-0.0022082931827753782,-0.006128199864178896
1773790002418390500,16.765390625,-0.00015393071225844324,-0.003881557146087289,-0.007161240093410015
1773790002438355500,16.78535546875,-0.000821318884845823,-0.0020503676496446133,-0.006162820849567652
1773790002458320600,16.805320556640623,0.0000929443194763735,-0.0015880429418757558,-0.005135905928909779
1773790002478285600,16.82528564453125,-0.0004599279200192541,-0.003861849894747138,-0.005735916085541248
1773790002498250500,16.84525048828125,0.0003001382574439049,-0.003032008884474635,-0.0062216767109930515
1773790002518215400,16.86521533203125,-0.0005795038305222988,-0.00227886694483459,-0.0065742796286940575
1773790002538180600,16.8851806640625,-0.0005579322460107505,-0.0023792681749910116,-0.0057156761176884174
1773790002558145500,16.9051455078125,-0.0014732606941834092,-0.003014432033523917,-0.006610498297959566
1773790002578110500,16.9251103515625,0.0007243797881528735,-0.002326537622138858,-0.005799033213406801
1773790002598075600,16.94507568359375,0.0014913701452314854,-0.0023694143164902925,-0.0070853400975465775
1773790002618040600,16.96504052734375,0.00007163903501350433,-0.0037997981999069452,-0.004716990981251001
1773790002638005500,16.985005615234375,-0.0002569950302131474,-0.0024027039762586355,-0.004009388852864504
1773790002657970400,17.004970458984374,-0.0001597896625753492,-0.0031380027066916227,-0.0063785370439291
1773790002677934600,17.0249345703125,-0.0007536745979450643,-0.002924949862062931,-0.006425675004720688
1773790002697899500,17.0448994140625,0.00038642468280158937,-0.0029822078067809343,-0.006321545224636793
1773790002717864400,17.064864501953124,-0.000580036488827318,-0.0025270734913647175,-0.004905809182673693
1773790002737829400,17.084829345703124,-0.0011867046123370528,-0.0015246596885845065,-0.0051809134893119335
1773790002757794600,17.104794677734375,-0.0011291803093627095,-0.002960369922220707,-0.004278368316590786
1773790002777759500,17.124759521484375,-0.000523577444255352,-0.0016711335629224777,-0.003431216813623905
1773790002797724400,17.144724365234374,-0.0008620652370154858,-0.003126551164314151,-0.007262706756591797
1773790002817689300,17.164689453125,-0.0007858988246880472,-0.002942793071269989,-0.005085838492959738
1773790002837654500,17.184654541015625,0.00037470675306394696,-0.0031899344176054,-0.005328452680259943
1773790002857619500,17.204619384765625,0.0006660565850324929,-0.0026501116808503866,-0.006039782892912626
1773790002877584400,17.22458447265625,-0.0003486077766865492,-0.0041183121502399445,-0.006318349856883287
1773790002897549600,17.244549560546876,-0.0000929443194763735,-0.003591272747144103,-0.0062578958459198475
1773790002917514500,17.264514404296875,0.00046392265358008444,-0.002715625334531069,-0.005846171174198389
1773790002937479400,17.2844794921875,-0.00009267800487577915,-0.003141731023788452,-0.005829659756273031
1773790002957444400,17.3044443359375,-0.0009033442474901676,-0.0029531794134527445,-0.005058674607425928
1773790002977409500,17.324409423828126,0.00012144014181103557,-0.003974767867475748,-0.0059684100560843945
1773790002997374500,17.34437451171875,0.0009622001089155674,-0.002743322169408202,-0.006018477492034435
1773790003017339400,17.36433935546875,0.0002889529860112816,-0.0029646309558302164,-0.005922603886574507
1773790003037303600,17.384303466796876,0.0007523429812863469,-0.003053047927096486,-0.0057564228773117065
1773790003057268700,17.404268798828124,0.0004135889175813645,-0.0031438616570085287,-0.00424241553992033
1773790003077233700,17.424233642578123,0.00034887410583905876,-0.0022945795208215714,-0.00567093538120389
1773790003097198600,17.444198486328126,0.0020274645648896694,-0.0012679309584200382,-0.006389722228050232
1773790003117163500,17.46416357421875,0.00030067088664509356,-0.0027601001784205437,-0.006383064668625593
1773790003137128700,17.484128662109374,-0.0004878911131527275,-0.0034381409641355276,-0.005835252348333597
1773790003157093600,17.50409375,0.0008476841612718999,-0.003051982494071126,-0.005109807010740042
1773790003177058000,17.52405810546875,-0.0010484865633770823,-0.0031198931392282248,-0.006460029631853104
1773790003197023000,17.54402294921875,-0.00022210762836039066,-0.0031827439088374376,-0.004540157038718462
1773790003216988200,17.56398828125,0.0011885687708854675,-0.003025617217645049,-0.005535912699997425
1773790003236953000,17.583953125,0.0004111920716241002,-0.0020160130225121975,-0.005241633392870426
1773790003256918000,17.60391796875,-0.00013555490295402706,-0.0022277343086898327,-0.0060030315071344376
1773790003276883000,17.623883056640626,-0.0005811017472296953,-0.002653307281434536,-0.006114085204899311
1773790003296848100,17.64384814453125,-0.00028096348978579044,-0.003111637430265546,-0.005332181230187416
1773790003316812000,17.66381201171875,-0.001058872789144516,-0.004064250271767378,-0.005546032916754484
1773790003336777000,17.68377685546875,-0.00016884441720321774,-0.002341451123356819,-0.005675728898495436
1773790003356742000,17.703741943359375,-0.0010010822443291545,-0.0025366609916090965,-0.006061887368559837
1773790003376707000,17.72370703125,0.000603738590143621,-0.002889263443648815,-0.005958023946732283
1773790003396672000,17.743672119140626,-0.0002716424351092428,-0.0038280277512967587,-0.0070366039872169495
1773790003416637000,17.763636962890626,-0.000045273736759554595,-0.0036019254475831985,-0.005146825220435858
1773790003436601900,17.783601806640625,-0.0012668657582253218,-0.003040264593437314,-0.005285841878503561
1773790003456567000,17.803567138671873,0.0006348976166918874,-0.002573678968474269,-0.005395031534135342
1773790003476532000,17.823531982421876,0.00045593318645842373,-0.003471430391073227,-0.00504056503996253
1773790003496497000,17.843496826171876,-5.326322138898831e-7,-0.0038402783684432507,-0.005539641249924898
1773790003516462000,17.863462158203124,0.0000021305288555595325,-0.002162486780434847,-0.005635781679302454
1773790003536427000,17.883427001953127,0.0004849616379942745,-0.003305781865492463,-0.004494084510952234
1773790003556392000,17.903391845703126,-0.00005885586142539978,-0.001434112200513482,-0.005997705273330212
1773790003576356900,17.92335693359375,-0.0016676714876666665,-0.0035228293854743242,-0.00498011102899909
1773790003596321000,17.943321044921873,0.0005448827287182212,-0.00318966805934906,-0.0041212416253983974
1773790003616286000,17.963285888671876,-0.000502804818097502,-0.0022186795249581337,-0.006923153530806303
1773790003636251000,17.9832509765625,-0.0010910971323028207,-0.00247567449696362,-0.007195062469691038
1773790003656215800,18.0032158203125,-0.000945954816415906,-0.0036522590089589357,-0.005397162400186062
1773790003676181000,18.023180908203123,0.0007278419216163456,-0.002817624481394887,-0.006614493206143379
1773790003696146000,18.04314599609375,-0.00023169501218944788,-0.0020546286832541227,-0.005743106827139854
1773790003716110800,18.06311083984375,0.00015899071877356619,-0.0028850024100393057,-0.006342051550745964
1773790003736075800,18.08307568359375,0.00011771172285079956,-0.002959837205708027,-0.0063210129737854
1773790003756041000,18.103041015625,0.00009427589975530282,-0.0030514500103890896,-0.006150570698082447
1773790003776006000,18.123005859375,-0.000031691615731688216,-0.0030511836521327496,-0.00500940578058362
1773790003795970800,18.142970703125,0.0013675332302227616,-0.003847468877211213,-0.006465089973062277
1773790003815936000,18.16293603515625,0.000215716048842296,-0.003139334265142679,-0.00618039770051837
1773790003835901000,18.18290087890625,-0.0004753742541652173,-0.002810966456308961,-0.005609150044620037
1773790003855865000,18.202864990234374,-0.0006444850005209446,-0.0025419872254133224,-0.005428853910416365
1773790003875830000,18.222830078125,-0.0003336940717417747,-0.003382480936124921,-0.005591839086264372
1773790003895795000,18.242794921875,0.0013235911028459668,-0.0024074974935501814,-0.0060144830495119095
1773790003915760000,18.262760009765625,0.0005190501105971634,-0.002814428647980094,-0.005982525181025267
1773790003935725000,18.28272509765625,-0.0005331648280844092,-0.002590989461168647,-0.005967877805233002
1773790003955690000,18.30268994140625,-0.0015840481501072645,-0.004348675720393658,-0.004668521229177713
1773790003975655200,18.3226552734375,-0.0002508697798475623,-0.0032767534721642733,-0.00631941482424736
1773790003995620000,18.3426201171875,-0.00040746363811194897,-0.0020668793004006147,-0.0054123420268297195
1773790004015585000,18.3625849609375,-0.0010420948965474963,-0.0027276095934212208,-0.007506385911256075
1773790004035550000,18.382550048828126,0.0012159993639215827,-0.0032264196779578924,-0.006266151554882526
1773790004055515100,18.40251513671875,-0.0009651295840740204,-0.0031095067970454693,-0.004054396413266659
1773790004075480000,18.42247998046875,0.0000679106087773107,-0.0031198931392282248,-0.0032322786282747984
1773790004095444000,18.44244384765625,0.00016192019393201917,-0.0022455775178968906,-0.006760966964066029
1773790004115409000,18.462408935546875,-0.0013552826130762696,-0.0028759476263076067,-0.007290403358638287
1773790004135374000,18.4823740234375,0.0002873550693038851,-0.0010301107540726662,-0.005230448208749294
1773790004155339000,18.502339111328126,0.0002271676348755136,-0.0027507790364325047,-0.004582235123962164
1773790004175304200,18.52230419921875,-0.0013763216556981206,-0.00267780851572752,-0.004357996862381697
1773790004195269000,18.54226904296875,-0.0011938951211050153,-0.0004013383586425334,-0.004563592839986086
1773790004215234000,18.562234130859373,-0.0016887104138731956,-0.002594451420009136,-0.0060088904574513435
1773790004235199200,18.58219921875,-0.0003355582884978503,-0.003293797606602311,-0.005572930909693241
1773790004255164200,18.6021640625,-0.00011185276525793597,-0.0022567627020180225,-0.005330583080649376
1773790004275129000,18.622129150390624,0.000007723167072981596,-0.0031902005430310965,-0.005329784471541643
1773790004295094000,18.642093994140627,-0.0001246359315700829,-0.002251968951895833,-0.006440322380512953
1773790004315058000,18.662057861328126,-0.000690291344653815,-0.002372077666223049,-0.006353237200528383
1773790004335023000,18.682023193359374,-0.00012729909212794155,-0.002537726191803813,-0.005472263321280479
1773790004354988000,18.701988037109373,-0.00039228363311849535,-0.0023550332989543676,-0.0057103498838841915
1773790004374953000,18.721952880859376,-0.000020772657080669887,-0.0031260184478014708,-0.005720470100641251
1773790004394918100,18.741918212890624,-0.0004063983797095716,-0.0032264196779578924,-0.00552126532420516
1773790004414883000,18.761883056640624,-0.000931041082367301,-0.0030599720776081085,-0.005346828605979681
1773790004434848000,18.781847900390623,0.000865793670527637,-0.003683950752019882,-0.005513009615242481
1773790004454813000,18.80181298828125,0.000107858024421148,-0.004175570327788591,-0.005309011787176132
1773790004474778000,18.821778076171874,-0.0019542276859283447,-0.0032000544015318155,-0.0060150157660245895
1773790004494743000,18.841742919921874,-0.0002825613773893565,-0.003931624814867973,-0.005853894166648388
1773790004514707200,18.861707275390625,-0.00035952674807049334,-0.0018785938154906034,-0.004863198380917311
1773790004534672100,18.881672119140624,-0.0007430219557136297,-0.0024927188642323017,-0.006126069463789463
1773790004554637300,18.90163720703125,-0.0015012238873168826,-0.0033862092532217503,-0.004462925251573324
1773790004574602200,18.921602294921875,-0.0012751214671880007,-0.0026405241806060076,-0.006342317909002304
1773790004594567200,18.941567138671875,-0.0013219931861385703,-0.0035236284602433443,-0.004751079250127077
1773790004614532000,18.961531982421874,0.00045140579459257424,-0.002406698651611805,-0.006055229343473911
1773790004634497300,18.981497314453126,-0.00011851066665258259,-0.0039049931801855564,-0.007366569712758064
1773790004654462200,19.001462158203125,-0.00001651159800530877,-0.0021811288315802813,-0.0054754591546952724
1773790004674427100,19.02142724609375,-0.00130947632715106,-0.003230414353311062,-0.0060323262587189674
1773790004694392300,19.041392333984376,0.00022077605535741895,-0.0027688886038959026,-0.004857073072344065
1773790004714356200,19.061356201171876,-0.0004918858758173883,-0.0021169467363506556,-0.005879727192223072
1773790004734321200,19.081321044921875,-0.00017869810108095407,-0.0031220237724483013,-0.005601692944765091
1773790004754286000,19.1012861328125,-0.0001483380765421316,-0.003724697045981884,-0.005811816547065973
1773790004774251300,19.121251220703126,-0.0010277138790115714,-0.002232261700555682,-0.004567055031657219
1773790004794216200,19.14121630859375,-0.0014266553334891796,-0.0035563854034990072,-0.005281581077724695
1773790004814181000,19.16118115234375,-0.0011488876771181822,-0.002715625334531069,-0.006076801102608442
1773790004834146000,19.18114599609375,0.0007494135061278939,-0.0021169467363506556,-0.007099987473338842
1773790004854111200,19.201111328125,0.000021837920940015465,-0.0018311894964426756,-0.007149255834519863
1773790004874076200,19.221076171875,0.001719603082165122,-0.0036365464329719543,-0.006431001238524914
1773790004894041000,19.241041015625,-0.00030652983696199954,-0.003221359569579363,-0.0067937239073216915
1773790004914005000,19.2610048828125,0.0011504855938255787,-0.0031302794814109802,-0.005595301277935505
1773790004933970200,19.28097021484375,0.00009347695595351979,-0.002198173198848963,-0.004768656101077795
1773790004953935000,19.30093505859375,-0.0005882922559976578,-0.002332130214199424,-0.004893292207270861
1773790004973900000,19.320900146484377,-0.0008351673022843897,-0.003005110891535878,-0.005378520116209984
1773790004993865000,19.340864990234376,-0.0006804376607760787,-0.0027177559677511454,-0.0054544201120734215
1773790005013830100,19.360830078125,0.0005083974683657289,-0.0029316076543182135,-0.005961486138403416
1773790005033795000,19.380795166015623,0.0015510249650105834,-0.002918291836977005,-0.0054885088466107845
1773790005053760000,19.400760009765627,0.0018093516118824482,-0.003344131400808692,-0.004650145769119263
1773790005073725200,19.42072509765625,-0.0011829761788249016,-0.0028394623659551144,-0.006794789340347052
1773790005093689000,19.440689208984374,0.0004266384057700634,-0.00290417717769742,-0.005805424880236387
1773790005113654000,19.460654052734377,0.0006854976527392864,-0.003569700988009572,-0.005682653281837702
1773790005133619000,19.480618896484376,-0.0009166600648313761,-0.003350256709381938,-0.005256014876067638
1773790005153584000,19.500584228515624,-0.00036458674003370106,-0.003937483765184879,-0.005902896635234356
1773790005173549600,19.520549560546876,-0.0015701997326686978,-0.003846403444185853,-0.005766542628407478
1773790005193514500,19.540514404296875,-0.0010751180816441774,-0.003165166825056076,-0.004662395920604467
1773790005213479400,19.5604794921875,-0.0008668589289300144,-0.003442934714257717,-0.00586747657507658
1773790005233444600,19.580444580078126,-0.0014197311829775572,-0.002040247665718198,-0.005320196971297264
1773790005253409500,19.600409423828125,-0.0005526058957912028,-0.0032642364967614412,-0.006581203546375036
1773790005273373700,19.620373779296877,0.0006056028068996966,-0.0026849990244954824,-0.005450425669550896
1773790005293338600,19.640338623046876,0.00001944107498275116,-0.003230414353311062,-0.006676811259239912
1773790005313303800,19.6603037109375,0.0005643238546326756,-0.002409894485026598,-0.005644570104777813
1773790005333268700,19.680268798828124,-0.0012447615154087543,-0.0032469260040670633,-0.0073503246530890465
1773790005353233700,19.700233642578127,-0.0005462143453769386,-0.003174754325300455,-0.005622731987386942
1773790005373198600,19.720198486328126,-0.0016556872287765145,-0.0041284323669970036,-0.005049886181950569
1773790005393163800,19.740163818359374,-0.0004679173871409148,-0.003308178624138236,-0.005089034326374531
1773790005413128700,19.760128662109373,0.0004665858286898583,-0.0023270701058208942,-0.006647250149399042
1773790005433092600,19.780092529296876,-0.000056459015468135476,-0.0021406488958746195,-0.00691942498087883
1773790005453057500,19.8000576171875,-0.0007115966291166842,-0.003233610186725855,-0.005795304663479328
1773790005473022700,19.820022705078124,-0.0010277138790115714,-0.0031907332595437765,-0.007822769694030285
1773790005492987600,19.839987548828127,0.001419198582880199,-0.0024202808272093534,-0.005902097560465336
1773790005512952600,19.85995263671875,-0.00022956448083277792,-0.0038629150949418545,-0.005001416429877281
1773790005532917500,19.87991748046875,-0.0007890945998951793,-0.0032413334120064974,-0.006113019771873951
1773790005552882700,19.899882568359374,0.0009004147723317146,-0.003796602366492152,-0.005359345115721226
1773790005572847600,19.91984765625,-0.0008641957538202405,-0.002694586291909218,-0.004930576309561729
1773790005592811500,19.9398115234375,-0.0017584852175787091,-0.0020122844725847244,-0.006324474699795246
1773790005612776400,19.9597763671875,0.0011254518758505583,-0.0028791434597223997,-0.005824333056807518
1773790005632741600,19.97974169921875,-0.00029587719473056495,-0.0023497070651501417,-0.006075202953070402
1773790005652706600,19.99970654296875,0.0001395496365148574,-0.003287672298029065,-0.0046695866622030735
1773790005672671500,20.01967138671875,-0.0006836334359832108,-0.002290851203724742,-0.005029379855841398
1773790005692636700,20.03963671875,0.0009749832679517567,-0.0025963156949728727,-0.004517253953963518
1773790005712601600,20.0596015625,0.00038775624125264585,-0.0024977787397801876,-0.005496231839060783
1773790005732565800,20.079565673828125,-0.0003350256592966616,-0.0032197616528719664,-0.00765845226123929
1773790005752530700,20.09953076171875,-0.000037550569686573,-0.002921754028648138,-0.005094626918435097
1773790005772495600,20.11949560546875,0.0003294330381322652,-0.0024865935556590557,-0.0038362834602594376
1773790005792460800,20.139460693359375,-0.0013315805699676275,-0.001862614881247282,-0.0062453788705170155
1773790005812425700,20.15942578125,0.00032730249222368,-0.002232261700555682,-0.00558065390214324
1773790005832390700,20.179390625,0.0009209210984408855,-0.002718554809689522,-0.00631861574947834
1773790005852355800,20.19935595703125,-0.0010428938549011946,-0.002517219865694642,-0.006060289219021797
1773790005872320800,20.21932080078125,0.000648479734081775,-0.0032205607276409864,-0.0062797339633107185
1773790005892284700,20.23928466796875,0.00011877698125317693,-0.004285292699933052,-0.005975867155939341
1773790005912249600,20.25924951171875,-0.0001739044237183407,-0.003325755475088954,-0.004863198380917311
1773790005932214500,20.279214599609375,-0.0006985471700318158,-0.0029734193813055754,-0.006202235817909241
1773790005952179700,20.2991796875,0.0008703210623934865,-0.0014929680619388819,-0.006940197665244341
1773790005972144600,20.31914453125,0.000559263804461807,-0.003013899317011237,-0.006281331647187471
1773790005992109600,20.339109619140626,-0.0006050702068023384,-0.002232261700555682,-0.007027283310890198
1773790006012074800,20.35907470703125,0.000019707391402334906,-0.0024232103023678064,-0.006274939980357885
1773790006032038700,20.37903857421875,-0.00030067088664509356,-0.0034735610242933035,-0.005455751903355122
1773790006052003600,20.399003662109376,0.0013648699969053268,-0.003810983384028077,-0.005766276270151138
1773790006071968500,20.418968505859375,0.0010349043877795339,-0.00296303303912282,-0.0052352421917021275
1773790006091933700,20.43893359375,0.000499875342939049,-0.0016556872287765145,-0.0060384515672922134
1773790006111898600,20.458898681640626,0.0009685916593298316,-0.0024322650860995054,-0.007327687460929155
1773790006131863600,20.478863525390626,0.0010697918478399515,-0.002948119305074215,-0.00672315014526248
1773790006151828500,20.498828369140625,-0.0008111988427117467,-0.0035324168857187033,-0.0060328589752316475
1773790006171791600,20.51879150390625,0.0007518103811889887,-0.002088983543217182,-0.004761199466884136
1773790006191756800,20.5387568359375,0.0007789746159687638,-0.0028221518732607365,-0.0063154203817248344
1773790006211721700,20.5587216796875,-0.00019760655413847417,-0.0018322548130527139,-0.005851763766258955
1773790006231686700,20.578686767578127,0.00002103897168126423,-0.0026458504144102335,-0.005437109619379044
1773790006251651600,20.598651611328126,0.0008884305134415627,-0.0013638047967106104,-0.006216350477188826
1773790006271616800,20.61861669921875,-0.0009760485263541341,-0.0031201594974845648,-0.005555354058742523
1773790006291581700,20.638581787109374,0.00032384038786403835,-0.003287938656285405,-0.005370264407247305
1773790006311545600,20.658545654296876,-0.000176301269675605,-0.003132410114631057,-0.006237389519810677
1773790006331510500,20.678510498046876,-0.00006711165769957006,-0.0033398703671991825,-0.00595482811331749
1773790006351475700,20.698475830078124,-0.000004793690095539205,-0.002805640222504735,-0.007122624199837446
1773790006371440600,20.718440673828123,-0.000597879639826715,-0.0021555626299232244,-0.006957774516195059
1773790006391405600,20.738405517578126,-0.00036618465674109757,-0.0032322786282747984,-0.007866977714002132
1773790006411370500,20.75837060546875,-0.00043010051012970507,-0.004201402887701988,-0.006352171767503023
1773790006431335700,20.778335693359374,0.00004021373388241045,-0.0033068470656871796,-0.0057159424759447575
1773790006451299600,20.798299560546877,-0.0011203918838873506,-0.003997937310487032,-0.005075718741863966
1773790006471264500,20.818264404296876,-0.0004239752306602895,-0.0026666230987757444,-0.006336458958685398
1773790006491229400,20.8382294921875,-0.0004958806093782187,-0.0026466494891792536,-0.006175870541483164
1773790006511194600,20.858194580078123,0.0007986819837242365,-0.0041646515019237995,-0.006392918061465025
1773790006531159600,20.87815966796875,-0.0007123955874703825,-0.003698864486068487,-0.0059811933897435665
1773790006551124500,20.89812451171875,-0.0007387608638964593,-0.00358781055547297,-0.006016879808157682
1773790006571088600,20.918088623046874,0.0017259946325793862,-0.0032466596458107233,-0.00592686515301466
1773790006591053800,20.9380537109375,-0.0014612764352932572,-0.0028551749419420958,-0.007389472797513008
1773790006611018800,20.958018798828125,0.0003605920064728707,-0.002739860210567713,-0.00809228140860796
1773790006630983700,20.977983642578124,-0.00005512743518920615,-0.00245090713724494,-0.0048978193663060665
1773790006650948600,20.997948486328124,0.00023542344570159912,-0.0019680759869515896,-0.004209924954921007
1773790006670913800,21.017913818359375,0.0007949535502120852,-0.0036424053832888603,-0.0057404437102377415
1773790006690878700,21.037878662109375,0.00033928672201000154,-0.003712712787091732,-0.006055495701730251
1773790006710842600,21.057842529296874,-0.0008008125587366521,-0.002522812457755208,-0.005338040180504322
1773790006730807600,21.0778076171875,0.000707868195604533,-0.0017164073651656508,-0.004502073861658573
1773790006750772700,21.097772705078125,0.0007126618875190616,-0.005396896041929722,-0.005530852824449539
1773790006770737700,21.117737548828124,-0.00042051312630064785,-0.0018016285030171275,-0.006074137985706329
1773790006790702600,21.13770263671875,0.00028628981090150774,-0.00307541829533875,-0.007541805971413851
1773790006810667500,21.15766748046875,0.001258609932847321,-0.0031547807157039642,-0.005652293097227812
1773790006830631400,21.17763134765625,-0.0013323795283213258,-0.0031273500062525272,-0.006393983494490385
1773790006850596600,21.1975966796875,0.0007925567333586514,-0.002628007438033819,-0.005539641249924898
1773790006870561500,21.2175615234375,-0.0006591323763132095,-0.003064499469473958,-0.007077616639435291
1773790006890526500,21.2375263671875,-0.0012394351651892066,-0.00247567449696362,-0.006600112188607454
1773790006910491600,21.25749169921875,-0.00027856664382852614,-0.0038037928752601147,-0.004698348697274923
1773790006930456600,21.27745654296875,-0.000059388490626588464,-0.0025355955585837364,-0.004589425399899483
1773790006950420700,21.297420654296875,-0.0016117451013997197,-0.003703658003360033,-0.006266417913138866
1773790006970385700,21.3173857421875,0.00027377295191399753,-0.0023100259713828564,-0.0049556102603673935
1773790006990350800,21.337350830078126,0.000075101139373146,-0.0031933963764458895,-0.006166016682982445
1773790007010315800,21.357315673828126,-0.0015789881581440568,-0.002808569697663188,-0.0064895907416939735
1773790007030280700,21.37728076171875,0.00046818371629342437,-0.0035028557758778334,-0.0057348511181771755
1773790007050245600,21.39724560546875,0.0004644552827812731,-0.0021646174136549234,-0.006451773922890425
1773790007070209500,21.41720947265625,0.0002388855500612408,-0.002514823107048869,-0.00577879324555397
1773790007090174700,21.4371748046875,0.00054142065346241,-0.0034884747583419085,-0.005268797744065523
1773790007110139600,21.4571396484375,-0.0006261091912165284,-0.0029225528705865145,-0.005462143570184708
1773790007130104600,21.4771044921875,-0.0022503710351884365,-0.002630137838423252,-0.005308479070663452
1773790007150069800,21.49706982421875,-0.0015712650492787361,-0.00427171029150486,-0.0046781087294220924
1773790007170034700,21.51703466796875,-0.00018748654110822827,-0.001359277404844761,-0.006045908201485872
1773790007189998300,21.536998291015625,-0.0019491675775498152,-0.0023196132387965918,-0.007427556440234184
1773790007209963500,21.556963623046876,-0.00022130868455860764,-0.004445348400622606,-0.006744189187884331
1773790007229928400,21.576928466796875,-0.0011163970921188593,-0.004040814470499754,-0.006023005116730928
1773790007249893400,21.596893310546875,-0.0007696535321883857,-0.0015092133544385433,-0.006880276836454868
1773790007269858600,21.616858642578126,-0.0011891013709828258,-0.0028929917607456446,-0.0062123560346663
1773790007289823500,21.636823486328126,0.0007893609581515193,-0.0032384039368480444,-0.0060262009501457214
1773790007309787400,21.656787353515625,0.0002585929469205439,-0.003522030543535948,-0.005878129042685032
1773790007329752300,21.67675244140625,-0.00023968449386302382,-0.0035507925786077976,-0.00424241553992033
1773790007349717500,21.696717529296876,-0.00034434671397320926,-0.0033808830194175243,-0.006109025329351425
1773790007369682400,21.716682373046876,0.0009803095599636436,-0.00282055395655334,-0.005034173373132944
1773790007389647400,21.7366474609375,-0.00036192359402775764,-0.0026794064324349165,-0.005782521795481443
1773790007409611500,21.756611572265626,0.0010570086305961013,-0.002793389605358243,-0.005230980925261974
1773790007429576400,21.776576416015626,-0.0007275756215676665,-0.0021254688035696745,-0.004674912896007299
1773790007449541600,21.796541748046874,-0.00029348034877330065,-0.0033718282356858253,-0.00529463030397892
1773790007469506600,21.816506591796873,-0.0004918858758173883,-0.0036549223586916924,-0.005294364411383867
1773790007489471500,21.836471435546876,0.0002897519152611494,-0.004280232358723879,-0.006136189214885235
1773790007509436400,21.8564365234375,-0.0009318400407209992,-0.0035712989047169685,-0.0063210129737854
1773790007529400600,21.876400634765623,-0.0004069310089107603,-0.002868224401026964,-0.006572148762643337
1773790007549365500,21.896365478515627,0.0001430117554264143,-0.0017808558186516166,-0.005149488337337971
1773790007569330400,21.916330322265626,-0.0011102718999609351,-0.0022303974255919456,-0.006705573294311762
1773790007589295400,21.93629541015625,-0.00022317290131468326,-0.003715642262250185,-0.005780390929430723
1773790007609260500,21.956260498046873,-0.0006511429091915488,-0.002213619416579604,-0.006048038601875305
1773790007629224400,21.976224365234376,-0.0006359628750942647,-0.003093794221058488,-0.006143379956483841
1773790007649189400,21.996189453125,-0.0007656587986275554,-0.002817358123138547,-0.006828611250966787
1773790007669154300,22.016154296875,-0.00038988678716123104,-0.00264771468937397,-0.0059601543471217155
1773790007689119500,22.036119384765627,0.0006399576086550951,-0.0032493227627128363,-0.004257595632225275
1773790007709084400,22.05608447265625,0.00019414443522691727,-0.00401524780318141,-0.004711132030934095
1773790007729049300,22.07604931640625,-0.002245843643322587,-0.0016357135027647018,-0.005806223955005407
1773790007749013500,22.096013427734373,-0.0000756337758502923,-0.0028298748657107353,-0.005555886775255203
1773790007768978700,22.115978759765625,0.0006588660762645304,-0.0013691311469301581,-0.005203550215810537
1773790007788943600,22.135943603515624,-0.001592037733644247,-0.0024434502702206373,-0.006397712044417858
1773790007808908500,22.155908447265624,-0.000011451592399680521,-0.002176867797970772,-0.005374791566282511
1773790007828873500,22.17587353515625,0.0005094627267681062,-0.00276063266210258,-0.006572148762643337
1773790007848837400,22.19583740234375,-0.0006982808117754757,-0.0034533210564404726,-0.005336175672709942
1773790007868802600,22.215802490234374,-0.0006900250446051359,-0.0030210898257791996,-0.006135124247521162
1773790007888767500,22.235767578125,-0.0010950918076559901,-0.002805373864248395,-0.0035630431957542896
1773790007908732400,22.255732421875,-0.0010578075889497995,-0.0022413162514567375,-0.006097573786973953
1773790007928697600,22.275697509765624,0.00008202536264434457,-0.0032293491531163454,-0.005791310220956802
1773790007948662500,22.29566259765625,0.00020506340661086142,-0.002945722546428442,-0.0054552191868424416
1773790007968626400,22.31562646484375,0.0006295712664723396,-0.0041127195581793785,-0.004861867055296898
1773790007988591400,22.33559130859375,0.00039707732503302395,-0.004544417839497328,-0.006191050633788109
1773790008008556500,22.355556640625,-0.0009145294898189604,-0.0028272117488086224,-0.00523657351732254
1773790008028521500,22.375521484375,0.0005230448441579938,-0.003710316028445959,-0.005769738461822271
1773790008048486400,22.395486328125,-0.0004814995336346328,-0.0033688987605273724,-0.005290369503200054
1773790008068450600,22.415450439453124,-0.0006261091912165284,-0.0021587584633380175,-0.006856574676930904
1773790008088415500,22.43541552734375,0.000046339002437889576,-0.0033867419697344303,-0.006204099860042334
1773790008108380700,22.455380615234375,-0.001071123406291008,-0.0012974920682609081,-0.007216367404907942
1773790008128345600,22.475345703125,0.0005869606975466013,-0.0031971249263733625,-0.005349758081138134
1773790008148310500,22.495310546875,-0.0005243764026090503,-0.0037713022902607918,-0.008268316276371479
1773790008168275700,22.515275634765626,-0.0011624698527157307,-0.0026501116808503866,-0.007063235621899366
1773790008188240000,22.535239990234373,-0.0017379788914695382,-0.0027395938523113728,-0.006925017572939396
1773790008208204800,22.555204833984376,0.000143544384627603,-0.0021228056866675615,-0.004486094694584608
1773790008228170000,22.575169921875,-0.0013670006301254034,-0.0027891285717487335,-0.005923669319599867
1773790008248135000,22.595135009765624,-0.000041278995922766626,-0.0023305322974920273,-0.006780674215406179
1773790008268099800,22.615099853515623,-0.001496430253610015,-0.0037175065372139215,-0.006587062496691942
1773790008288063700,22.635063720703126,-0.0011867046123370528,-0.001335841603577137,-0.006200904026627541
1773790008308029000,22.65502880859375,-0.0005571332876570523,-0.003572896821424365,-0.0070491209626197815
1773790008327993900,22.674993896484374,-0.00016831177345011383,-0.0032107068691402674,-0.007517571095377207
1773790008347958800,22.694958740234377,-0.001255414099432528,-0.0033755565527826548,-0.007090133614838123
1773790008367924000,22.714924072265624,0.0002985403698403388,-0.0028429245576262474,-0.006376140285283327
1773790008387889000,22.734888916015624,-0.0013792511308565736,-0.0033334787003695965,-0.005533515941351652
1773790008407852800,22.754852783203123,-0.0016532903537154198,-0.002630137838423252,-0.005465073045343161
1773790008427817700,22.774817626953126,-0.00008948221511673182,-0.0022980417124927044,-0.00595456175506115
1773790008447782700,22.79478271484375,-0.00008655273268232122,-0.0026141589041799307,-0.00509835546836257
1773790008467747800,22.814747802734374,0.00015526228526141495,-0.002829076023772359,-0.0035686357878148556
1773790008487712800,22.834712646484373,-0.00027750138542614877,-0.003226952161639929,-0.007545001804828644
1773790008507677000,22.854677001953124,0.0001257012045243755,-0.002118544653058052,-0.005387574899941683
1773790008527641900,22.874641845703124,-0.00020373181905597448,-0.0033310819417238235,-0.005233111325651407
