time,seconds_elapsed,z,y,x
1773789985726272300,0.073272216796875,0.0010960421059280634,-0.0008173235692083836,0.0009418483823537827
1773789985746237200,0.0932373046875,0.001265884144231677,0.0006156708113849163,0.0002610660158097744
1773789985766203100,0.113203125,-0.0005236149299889803,0.00022873538546264172,0.000029398594051599503
1773789985786168300,0.133168212890625,-0.00006786589801777154,0.00002141157165169716,-0.0003898763097822666
1773789985806133200,0.15313330078125,0.00018033543892670423,0.0006862983573228121,-0.001679256558418274
1773789985826099500,0.173099365234375,0.00023851321020629257,-0.0000745793804526329,-0.0010411720722913742
1773789985846064400,0.193064453125,-0.0019023350905627012,0.0006040495354682207,0.0020084513816982508
1773789985866029300,0.213029296875,-0.0011864138068631291,-0.00017263018526136875,-0.00028312811627984047
1773789985885995300,0.232995361328125,0.0005782434018328786,0.0007478748448193073,-0.0013553095050156116
1773789985905960400,0.25296044921875,-0.001043600495904684,-0.00019414094276726246,0.0014870036393404007
1773789985925925400,0.27292529296875,0.000596685684286058,0.0007953725289553404,-0.0004256577230989933
1773789985945891300,0.292891357421875,0.0005478324601426721,0.00014621950685977936,-0.0004071989096701145
1773789985965856300,0.312856201171875,0.0009752053301781416,-0.0006521691102534533,-0.0005496237426996231
1773789985985822200,0.332822265625,0.0005697164451703429,-0.00028783222660422325,-0.00021885382011532784
1773789986005787400,0.352787353515625,-0.0007432359270751476,-0.0018839240074157715,0.0001010778360068798
1773789986025752300,0.37275244140625,0.0009112893021665514,-0.0014369708951562643,-0.0008458830416202545
1773789986045718300,0.39271826171875,0.00012597558088600636,0.00062368786893785,0.0009502628818154335
1773789986065683500,0.412683349609375,-0.0004191531625110656,0.00014838622882962227,0.0009164381772279739
1773789986085648400,0.4326484375,-0.00014825392281636596,-0.0003348216414451599,0.00022136373445391655
1773789986105614000,0.452614013671875,-0.00008683906344231218,0.0016042800853028893,-0.000020050443708896637
1773789986125579300,0.472579345703125,0.000012228279956616461,-0.0007331075612455606,0.00016491999849677086
1773789986145544200,0.492544189453125,0.0010560195660218596,0.0003867293708026409,0.0003035981208086014
1773789986165509400,0.51250927734375,-0.0005236279685050249,-0.0005663821939378977,-0.00008158059790730476
1773789986185474300,0.532474365234375,0.0005253002746030688,0.00010856310836970806,0.0007697185501456261
1773789986205439500,0.552439453125,-0.0009545214124955237,0.0003152641002088785,0.000713821966201067
1773789986225405400,0.572405517578125,0.0013873324496671557,-0.0001873420551419258,-0.0013567651621997356
1773789986245370400,0.592370361328125,0.0006173715810291469,0.0013496751198545098,-0.001499207690358162
1773789986265335600,0.61233544921875,-0.0015725556295365095,0.0008010040037333965,-0.00002222321927547455
1773789986285301500,0.632301513671875,0.0006023085443302989,-0.0012284999247640371,-0.00029467884451150894
1773789986305266400,0.652266357421875,0.001817850163206458,-0.0002529157791286707,0.0011308025568723679
1773789986325231600,0.672231689453125,-0.00029589401674456894,0.00003259768709540367,0.0009126844815909863
1773789986345197300,0.692197265625,-0.0010517309419810772,0.0006262087263166904,0.001129264011979103
1773789986365162500,0.71216259765625,0.00013386528007686138,-0.00011303788051009178,0.000318833626806736
1773789986385127400,0.73212744140625,-0.0010426007211208344,-0.00008928822353482246,0.00013810768723487854
1773789986405093400,0.75209326171875,-0.000030919938581064343,-0.00026855734176933765,-0.000635822769254446
1773789986425058600,0.77205859375,0.0006442812737077475,0.0008680210448801517,0.00044629164040088654
1773789986445023500,0.7920234375,-0.0002454397617839277,0.000708490377292037,0.00019052671268582344
1773789986464989400,0.811989501953125,-0.0007510475115850568,0.0000032351817935705185,-0.00044592469930648804
1773789986484954600,0.83195458984375,0.00011561760038603097,-0.00038024107925593853,0.0009409761987626553
1773789986504919600,0.85191943359375,0.00026441150112077594,-0.0001513003371655941,-0.000008863862603902817
1773789986524885500,0.871885498046875,-0.00037062872434034944,-0.0000026051420718431473,0.0003072712570428848
1773789986544850700,0.8918505859375,-0.0007315591210499406,0.00007510790601372719,0.0012984690256416798
1773789986564815600,0.911815673828125,0.00003819810808636248,-0.0002964718732982874,-0.0005894657224416733
1773789986584781300,0.93178125,-0.0012707416899502277,0.0007446317467838526,0.0006806249730288982
1773789986604746500,0.95174658203125,-0.001280110445804894,0.0010394998826086521,0.0004481319338083267
1773789986624711400,0.97171142578125,0.0007176533108577132,0.000298019265756011,-0.0016911700367927551
1773789986644677400,0.991677490234375,-0.0005171092925593257,-0.0011244590859860182,0.0001226351596415043
1773789986664642600,1.011642578125,0.0007717866683378816,-0.0006799753755331039,-0.0001660413108766079
1773789986684607500,1.031607421875,0.0002094532537739724,-0.0006177548784762621,-0.0001644887961447239
1773789986704573400,1.051573486328125,-0.0003618758055381477,-0.0001449191477149725,0.0009281504899263382
1773789986724538600,1.07153857421875,0.0016471351264044642,0.00022093555890023708,-0.0025540762580931187
1773789986744503600,1.091503662109375,0.00012264150427654386,0.0006512810941785574,-0.0005911402404308319
1773789986764469500,1.111469482421875,-0.00005567254265770316,-0.001627955585718155,0.00005344860255718231
1773789986784434400,1.131434326171875,-0.00000868260394781828,-0.000023818807676434517,0.0009005796164274216
1773789986804399600,1.151399658203125,0.0013852415140718222,-0.0019955874886363745,0.0002251928672194481
1773789986824365300,1.171365234375,0.0011736963642761111,0.00009411480277776718,0.000988825224339962
1773789986844330500,1.19133056640625,-0.0009077979484573007,0.00019343453459441662,-0.0014329287223517895
1773789986864295400,1.21129541015625,0.0010165125131607056,0.0002950888592749834,0.001105684321373701
1773789986884261400,1.231261474609375,0.00028116474277339876,-0.0000636824406683445,0.0011729588732123375
1773789986904226600,1.2512265625,0.00010094110621139407,0.00037660449743270874,0.0004254481755197048
1773789986924191500,1.27119140625,0.0009881953010335565,0.0009395515080541372,-0.0007436750456690788
1773789986944157700,1.29115771484375,0.000807153875939548,-0.0011878779623657465,-0.00006700260564684868
1773789986964122600,1.31112255859375,0.00034248660085722804,-0.0008039390668272972,-0.0005365898832678795
1773789986984087600,1.331087646484375,0.00026437913766130805,0.0002857137005776167,0.0005817348137497902
1773789987004053500,1.351053466796875,0.0003019307623617351,-0.00004991888999938965,-0.0006141401827335358
1773789987024018400,1.371018310546875,0.0006552735576406121,-0.00017197802662849426,0.0007127756252884865
1773789987043983400,1.3909833984375,-0.000835167767945677,-0.0003143900539726019,-0.0005974285304546356
1773789987063949600,1.410949462890625,-0.00026046024868264794,0.00002825399860739708,-0.0028341510333120823
1773789987083914500,1.43091455078125,-0.0007488177507184446,0.0006111867260187864,-0.0010017403401434422
1773789987103879400,1.45087939453125,0.0012892184313386679,0.0002982539590448141,-0.0002248440869152546
1773789987123845600,1.470845703125,-0.0000012459931895136833,-0.0002633545082062483,-0.0001668361946940422
1773789987143810600,1.490810546875,0.0008900107350200415,0.0005815769545733929,0.000057001132518053055
1773789987163775700,1.510775634765625,-0.00003826746251434088,-0.0006776715163141489,0.00040280260145664215
1773789987183741700,1.53074169921875,0.0009470803197473288,-0.0008446832653135061,-0.0006803735159337521
1773789987203706600,1.55070654296875,0.000842555717099458,0.0012354777427390218,-0.0005270559340715408
1773789987223671600,1.570671630859375,-0.00034680782118812203,0.00044568744488060474,-0.00033685052767395973
1773789987243637800,1.5906376953125,0.00022122199879959226,0.0006377231329679489,-0.0008364021778106689
1773789987263602700,1.610602783203125,-0.0003329223836772144,0.0004301315639168024,0.0003678658977150917
1773789987283567600,1.630567626953125,0.0007179704261943698,0.0005927751772105694,0.00007771281525492668
1773789987303533800,1.650533935546875,-0.0005286247469484806,0.0011463583214208484,0.0005880584940314293
1773789987323498800,1.670498779296875,0.0013127131387591362,0.00029424321837723255,-0.0003337683156132698
1773789987343463700,1.690463623046875,0.00024937771377153695,0.0004181554540991783,-0.000651997048407793
1773789987363430000,1.710429931640625,0.00030857394449412823,-0.0002769734710454941,-0.0005375356413424015
1773789987383394800,1.730394775390625,0.0012530845124274492,0.0002191800158470869,0.00038933800533413887
1773789987403359700,1.75035986328125,0.0003030857187695801,0.0003906800411641598,0.0004309178330004215
1773789987423325700,1.77032568359375,-0.0001952566090039909,0.0012710627634078264,-0.00010305829346179962
1773789987443290600,1.79029052734375,0.00019881452317349613,-0.0004176206421107054,0.0009046201594173908
1773789987463255600,1.810255615234375,0.0013122449163347483,0.00047407648526132107,0.0006473246030509472
1773789987483221800,1.8302216796875,0.0016374303959310055,-0.0010343913454562426,-0.0013497211039066315
1773789987503186700,1.850186767578125,-0.0005132575752213597,0.0013862132327631116,0.0015239231288433075
1773789987523151600,1.870151611328125,-0.0008005737909115851,0.0007261058781296015,0.00006140628829598427
1773789987543116800,1.89011669921875,0.00009332507033832371,-0.00006308523006737232,-0.0010781479068100452
1773789987563082800,1.910082763671875,0.0002365505788475275,0.00011671846732497215,0.00010659173130989075
1773789987583047700,1.930047607421875,0.0012457151897251606,-0.000890419352799654,-0.0015656780451536179
1773789987603012900,1.950012939453125,-0.00039199594175443053,-0.0012561129406094551,-0.0009276736527681351
1773789987622978600,1.969978515625,0.0028857674915343523,0.0008135787211358547,-0.00045239366590976715
1773789987642943700,1.98994384765625,0.00044796435395255685,-0.00042504328303039074,0.0011249519884586334
1773789987662908700,2.00990869140625,-0.00030840496765449643,-0.0003827724140137434,0.0010047443211078644
1773789987682874600,2.02987451171875,-0.000511590507812798,-0.000045522814616560936,0.0005170530639588833
1773789987702839800,2.04983984375,-0.000284408190054819,-0.0005557590629905462,0.0012209182605147362
1773789987722804700,2.0698046875,0.00011097529204562306,-0.00030164606869220734,-0.0004331665113568306
1773789987742770700,2.089770751953125,-0.000233650382142514,0.0009619665797799826,0.00005067605525255203
1773789987762735900,2.10973583984375,0.0017793984152376652,0.001041104318574071,0.0005720090121030807
1773789987782700800,2.12970068359375,-0.0000035296252463012934,-0.00027902773581445217,0.0012410790659487247
1773789987802666800,2.149666748046875,0.0003174153680447489,-0.0001617572270333767,0.00006906874477863312
1773789987822632000,2.1696318359375,0.00023746945953462273,-0.00003999168984591961,-0.0002177562564611435
1773789987842596900,2.189596923828125,0.0008173393434844911,-0.00022899312898516655,-0.00031371647492051125
1773789987862562600,2.2095625,0.0004986028070561588,0.00001411442644894123,-0.0015375311486423016
1773789987882527700,2.22952783203125,0.0006439057178795338,-0.0005408839788287878,-0.0002134973183274269
1773789987902492700,2.24949267578125,0.00030900666024535894,0.0001232519280165434,-0.000468334648758173
1773789987922458600,2.269458740234375,-0.00001001308555714786,-0.0007239696569740772,0.0004307539202272892
1773789987942423800,2.289423828125,-0.0001814323477447033,0.0005768151022493839,-0.0003026234917342663
1773789987962388700,2.309388671875,0.0006417952245101333,-0.0007567727006971836,-0.0010746507905423641
1773789987982353700,2.329353759765625,0.0003840787976514548,0.0011612465605139732,0.0008033942431211472
1773789988002320000,2.34931982421875,-0.0010897940956056118,-0.0002106260508298874,-0.00004427647218108177
1773789988022284800,2.369284912109375,-0.0009047529310919344,0.00028910674154758453,0.0002081478014588356
1773789988042249700,2.389249755859375,0.0013897251337766647,0.0007977003697305918,0.0010705464519560337
1773789988062215700,2.409215576171875,0.0019564891699701548,-0.0018069492653012276,-0.0001184423454105854
1773789988082180900,2.429180908203125,-0.0010015221778303385,0.0006618567276746035,-0.0008007949218153954
1773789988102145800,2.449145751953125,-0.00048424769192934036,-0.0006799744442105293,-0.00033454177901148796
1773789988122111700,2.46911181640625,0.00021438722615130246,-0.00183857511729002,0.00014157406985759735
1773789988142076700,2.48907666015625,-0.0009082586038857698,-0.00038914638571441174,0.0006737904623150826
1773789988162042400,2.50904248046875,0.00002756781759671867,-0.0009325570426881313,0.0010082363151013851
1773789988182008600,2.529008544921875,-0.0011662039905786514,0.00042121042497456074,-0.0011048647575080395
1773789988201973500,2.548973388671875,0.0012813536450266838,-0.0007310339715331793,0.00031553395092487335
1773789988221938400,2.5689384765625,0.001137524377554655,-0.0011991648934781551,0.0012595383450388908
1773789988241903400,2.5889033203125,0.0001900741772260517,-0.0006130465772002935,0.000007345806807279587
1773789988261869300,2.608869384765625,0.0012617972679436207,0.0013866345398128033,-0.0020304727368056774
1773789988281834200,2.628834228515625,-0.0005844603292644024,-0.00010851514525711536,0.0006776899099349976
1773789988301799400,2.64879931640625,-0.0006959842285141349,0.00045630685053765774,-0.000329350121319294
1773789988321765400,2.668765380859375,-0.00022530491696670651,-0.0004971574526280165,0.0006017172709107399
1773789988341730300,2.688730224609375,0.00032394062145613134,0.0012094308622181416,0.00021868152543902397
1773789988361695200,2.7086953125,-0.0013760700821876526,0.00016734260134398937,-0.0009133601561188698
1773789988381661400,2.728661376953125,-0.002005808986723423,-0.00009317276999354362,0.00013123219832777977
1773789988401626400,2.74862646484375,0.0004658822435885668,-0.0011601117439568043,0.0004294128157198429
1773789988421591600,2.768591552734375,0.0006168006220832467,-0.00047610444016754627,0.0008159847930073738
1773789988441557500,2.7885576171875,0.0001339356240350753,0.000019880710169672966,-0.0003203991800546646
1773789988461522400,2.8085224609375,-0.0005424998234957457,-0.0001774283591657877,0.000658152624964714
1773789988481487600,2.828487548828125,-0.0001464003580622375,0.00029225321486592293,-0.0009661726653575897
1773789988501452500,2.84845263671875,-0.0007512076990678906,-0.00025257421657443047,0.00023127766326069832
1773789988521418200,2.868418212890625,0.000621484243310988,0.00018836325034499168,0.00008498784154653549
1773789988541383400,2.888383544921875,0.0002170446387026459,0.00007414771243929863,-0.000523698516190052
1773789988561348400,2.908348388671875,-0.00042948039481416345,0.000006425892934203148,0.00008089933544397354
1773789988581314300,2.928314208984375,-0.00012046500341966748,0.00003209570422768593,0.0013134358450770378
1773789988601279500,2.948279541015625,0.0005054054781794548,0.0002923007123172283,-0.0002941279672086239
1773789988621244400,2.968244384765625,-0.0003171064308844507,0.00023700040765106678,0.0003049895167350769
1773789988641209300,2.988209228515625,-0.00011876891949214041,0.00013687717728316784,0.00006689643487334251
1773789988661175600,3.008175537109375,0.000559775740839541,-0.0006353643257170916,0.001243141945451498
1773789988681140500,3.028140380859375,0.0006794392829760909,0.0003910497762262821,0.0005406616255640984
1773789988701105400,3.04810546875,0.0004129321314394474,-0.0002386714331805706,0.0006639640778303146
1773789988721071400,3.0680712890625,-0.0005727921961806715,0.00009285332635045052,-0.0005757519975304604
1773789988741036300,3.088036376953125,0.0002446574508212507,-0.0006679100915789604,0.0006277468055486679
1773789988761001500,3.10800146484375,-0.001739934436045587,0.0007990761660039425,0.000678784679621458
1773789988780967400,3.127967529296875,-0.0007906579412519932,0.0014713137643411756,0.0005331505089998245
1773789988800932400,3.147932373046875,0.00041943497490137815,0.0004216553643345833,0.00018050894141197205
1773789988822145500,3.1691455078125,-0.0004902157234027982,0.00023939134553074837,0.0012848521582782269
1773789988842110500,3.1891103515625,-0.0002997372066602111,0.00015900610014796257,0.0011470671743154526
1773789988862076400,3.209076416015625,0.00018378475215286016,-0.00014394940808415413,-6.984919309616089e-9
1773789988882041300,3.229041259765625,-0.0005218468140810728,-0.00013704970479011536,0.0015537706203758717
1773789988902006300,3.24900634765625,0.0006116945296525955,0.0014079366810619831,0.001008555293083191
1773789988921972500,3.268972412109375,-0.00045870087342336774,-0.0014385294634848833,0.0018315990455448627
1773789988941937400,3.2889375,0.0009695914923213422,-0.00028249877505004406,0.0016095507889986038
1773789988961902300,3.30890234375,0.000717067567165941,0.00036594830453395844,0.0016601714305579662
1773789988981867300,3.3288671875,0.00047089418512769043,-0.0021317140199244022,-0.000182304996997118
1773789989001833500,3.34883349609375,0.000677622330840677,0.0006966362707316875,-0.0003240932710468769
1773789989021798400,3.36879833984375,-0.000743369513656944,0.0010113200405612588,0.00016395282000303268
1773789989041763300,3.388763427734375,-0.0001818870659917593,0.0012822566786780953,0.0016297763213515282
1773789989061729500,3.4087294921875,-0.0003158475738018751,-0.0006203544326126575,0.0003026137128472328
1773789989081694500,3.428694580078125,0.0012247812701389194,0.0010102358646690845,-0.00013009272515773773
1773789989101659400,3.448659423828125,0.0000998280884232372,0.0010992389870807528,0.000778107438236475
1773789989121624600,3.46862451171875,0.00048681689077056944,-0.0007504913955926895,-0.0011410387232899666
1773789989141590300,3.48859033203125,0.0005818352219648659,-0.0008966585155576468,-0.0005158856511116028
1773789989161555500,3.508555419921875,0.0014309169491752982,-0.0006114882417023182,0.0018526776693761349
1773789989181520400,3.528520263671875,0.00018325328710488975,-0.0003703325055539608,0.0003746580332517624
1773789989201485300,3.5484853515625,0.0008458913071081042,-0.0007258402183651924,-0.0008932389318943024
1773789989221451500,3.568451416015625,-0.00009189930278807878,-0.00035896780900657177,-0.0011967835016548634
1773789989241416400,3.58841650390625,0.001601274125277996,0.0001292121596634388,-0.0018032267689704895
1773789989261381400,3.60838134765625,0.0010541543597355485,-0.0005641728639602661,-0.00015928735956549644
1773789989281347600,3.62834765625,-0.00022892674314789474,0.0008707963861525059,0.0004173167981207371
1773789989301312500,3.6483125,0.0010511605069041252,-0.0005009211599826813,0.0007169707678258419
1773789989321277400,3.66827734375,-0.0004035776655655354,0.000025238841772079468,-0.000628048088401556
1773789989341242600,3.68824267578125,-0.0004007155657745898,-0.000057308701798319817,-0.00006032921373844147
1773789989361208300,3.708208251953125,0.0002611904637888074,0.0001080087386071682,-0.0007727541960775852
1773789989381173200,3.72817333984375,0.0003397035179659724,0.0004464695230126381,-0.00039479508996009827
1773789989401138400,3.748138427734375,-0.00019614386837929487,-0.000012320699170231819,-0.00015915324911475182
1773789989421104400,3.7681044921875,0.000967498286627233,-0.0006944844499230385,-0.0004708697088062763
1773789989441069600,3.788069580078125,0.0004843951319344342,0.000699345488101244,-0.0008533550426363945
1773789989461034500,3.808034423828125,0.0007026909734122455,-0.0004670964553952217,-0.0004264460876584053
1773789989480999400,3.82799951171875,-0.0007468782132491469,-0.00021844403818249702,0.0005477978847920895
1773789989500965600,3.847965576171875,0.000784132513217628,-0.0011414310429245234,0.0003802236169576645
1773789989520930600,3.8679306640625,0.00033445077133364975,0.0005198591388761997,-0.0005085179582238197
1773789989540895500,3.8878955078125,0.0013722775038331747,-0.0013149362057447433,0.000825847964733839
1773789989560860400,3.9078603515625,0.0006275626947171986,-0.0004757302813231945,-0.001695503480732441
1773789989580826600,3.92782666015625,0.0001823314232751727,-0.0016116504557430744,0.0007855226285755634
1773789989600791600,3.94779150390625,-0.00026466240524314344,0.001175769604742527,-0.000379784032702446
1773789989620756500,3.967756591796875,0.000513175968080759,-0.0005663700867444277,-0.0007091052830219269
1773789989640722400,3.987722412109375,-0.0005461608525365591,0.0006573034916073084,0.00012920191511511803
1773789989660687400,4.007687255859375,0.001750052673742175,0.00008023204281926155,0.0008310186676681042
1773789989680652300,4.02765234375,-0.0006926959613338113,0.0003601119387894869,0.00026094401255249977
1773789989700617500,4.047617431640625,-0.00041884923120960593,-0.0008106241002678871,-0.0007314668036997318
1773789989720583400,4.06758349609375,0.0006941597093828022,-0.0010932632721960545,-0.0012254840694367886
1773789989740548400,4.08754833984375,0.0002457627560943365,0.0005819487851113081,0.00179591728374362
1773789989760513500,4.107513427734375,-0.0011315825395286083,-0.0009638541378080845,-0.0011134510859847069
1773789989780478500,4.127478515625,0.00008517388778273016,0.00027832970954477787,-0.0005073356442153454
1773789989800444700,4.147444580078125,-0.00036837428342550993,0.0005383659154176712,-0.0012477864511311054
1773789989820409600,4.16740966796875,-0.0008072316413745284,-0.0004678878467530012,-0.0010141562670469284
1773789989840374500,4.18737451171875,-0.000457395042758435,0.0009172970894724131,0.0005405619740486145
1773789989860340500,4.207340576171875,-0.0005615029949694872,0.000027981121093034744,0.0006560087203979492
1773789989880305400,4.227305419921875,-0.00019778151181526482,0.0008958571124821901,-0.0004764567129313946
1773789989900270300,4.247270263671875,-0.00043801218271255493,0.0010652336059138179,0.0005101291462779045
1773789989920235500,4.267235595703125,-0.0005859729135408998,0.0005828829016536474,-0.0015532122924923897
1773789989940201500,4.287201416015625,-0.0021528606303036213,0.0007756645791232586,0.0007283519953489304
1773789989960166400,4.30716650390625,0.0005949773476459086,-0.00012027285993099213,0.0019970235880464315
1773789989980131300,4.32713134765625,0.00009041891462402418,0.0009013253729790449,0.0008026487194001675
1773789990000096500,4.347096435546875,-0.001467566005885601,0.0003581519704312086,-0.0019576391205191612
1773789990020062500,4.3670625,0.0008459617383778095,-0.0011231626849621534,0.00047266483306884766
1773789990040027400,4.38702734375,-0.0005498234531842172,-0.0012500947341322899,0.00014007044956088066
1773789990059992600,4.40699267578125,0.0007757919374853373,-0.0002433548215776682,0.00047527579590678215
1773789990079957500,4.42695751953125,0.000659323122818023,0.00027183862403035164,-0.0001402408815920353
1773789990099923500,4.44692333984375,0.0008247204823419452,0.00013987533748149872,0.0003452426753938198
1773789990119888600,4.466888671875,-0.000051140523282811046,-0.0006312655750662088,0.00043601030483841896
1773789990139853600,4.486853515625,0.00020087188750039786,-0.0013084879610687494,-0.0007707029581069946
1773789990159819000,4.506819091796875,0.00021307915449142456,-0.001627389108762145,0.00023189745843410492
1773789990179784000,4.526783935546875,0.0016299030976369977,0.0003032174427062273,-0.0001685568131506443
1773789990199749000,4.5467490234375,-0.0009695612825453281,0.0010852930136024952,0.001519588753581047
1773789990219714000,4.566714111328125,-0.00022923515643924475,0.0007607946172356606,0.0004752245731651783
1773789990239680000,4.586679931640625,0.0010650870390236378,-0.00029042549431324005,0.000059604644775390625
1773789990259645000,4.60664501953125,0.0008924101130105555,0.0005606622435152531,0.0005278787575662136
1773789990279609900,4.62660986328125,0.00009737383516039699,0.0005732665304094553,0.000344881322234869
1773789990299575000,4.646574951171875,0.000020499544916674495,-0.00001851632259786129,-0.00041344016790390015
1773789990319541000,4.666541015625,-0.00022616615751758218,0.00004081195220351219,-0.0008404259569942951
1773789990339506000,4.686505859375,-0.0007841083570383489,-0.0009009675122797489,-0.0012503317557275295
1773789990359471000,4.70647119140625,-0.0009424554300494492,-0.00012960960157215595,-0.0004945984110236168
1773789990379436000,4.72643603515625,-0.00038984493585303426,-0.00048819463700056076,-0.0005603241734206676
1773789990399402000,4.746402099609375,-0.00055450334912166,-0.0013616345822811127,0.00024985847994685173
1773789990419367200,4.7663671875,-0.0011268635280430317,0.0008297197055071592,0.0003740740939974785
1773789990439332000,4.78633203125,0.0020622487645596266,-0.00016533397138118744,0.0003287317231297493
1773789990459297000,4.806297119140625,-0.001140953740105033,0.0006903223693370819,0.00011749286204576492
1773789990479263000,4.826262939453125,0.0009019958670251071,0.0011953788343816996,-0.0013064178638160229
1773789990499228000,4.846227783203125,-0.00021985435159876943,0.00015167100355029106,0.0006106323562562466
1773789990519192800,4.86619287109375,-0.000015145837096497416,-0.00035218498669564724,-0.00043674837797880173
1773789990539158000,4.886157958984375,-0.000052959920139983296,-0.00013374886475503445,-0.0014345222152769566
1773789990559124000,4.9061240234375,0.0004767515929415822,0.00018879701383411884,0.0005101454444229603
1773789990579089000,4.9260888671875,-0.000533752201590687,-0.00033235037699341774,-0.00026273541152477264
1773789990599054000,4.94605419921875,-0.0004048523842357099,0.00047178519889712334,-0.0004482101649045944
1773789990619019000,4.96601904296875,-0.0007713452214375138,0.0008018652442842722,-0.00047140754759311676
1773789990638985000,4.98598486328125,-0.0003928852966055274,0.0005601670127362013,-0.0015506935305893421
1773789990658950100,5.0059501953125,0.0003879321739077568,-0.0006895065307617188,-0.0003460915759205818
1773789990678915000,5.0259150390625,0.00015353283379226923,0.00009797466918826103,0.00020518526434898376
1773789990698880000,5.0458798828125,0.0002901508123613894,-0.0008324319496750832,0.0007209251634776592
1773789990718846200,5.06584619140625,0.0005027895676903427,0.000022045336663722992,-0.000422588549554348
1773789990738811100,5.08581103515625,-0.000007528695277869701,0.0006998011376708746,-0.0006805812008678913
1773789990758776000,5.105776123046875,0.00247678579762578,-0.00011401437222957611,-0.0006744791753590107
1773789990778741000,5.125740966796875,-0.00013053225120529532,0.00018014898523688316,0.0006738137453794479
1773789990798707000,5.14570703125,-0.00018535388517193496,-0.00013483013026416302,-0.0015563233755528927
1773789990818671900,5.165671875,-0.0006823192816227674,-0.00008097756654024124,-0.0003997501917183399
1773789990838636800,5.18563671875,0.0015228744596242905,-0.0009114486165344715,-0.0016019386239349842
1773789990858602000,5.20560205078125,-0.00016946365940384567,-0.00014449679292738438,0.0017945498693734407
1773789990878568000,5.22556787109375,-0.0008836084161885083,0.00012499885633587837,0.000011594966053962708
1773789990898533000,5.245533203125,0.0014055906794965267,0.0007864211220294237,-0.0003992323763668537
1773789990918498000,5.265498046875,-0.000296991114737466,-0.00039129448123276234,-0.0017651799134910107
1773789990938463000,5.285462890625,-0.00045439909445121884,0.00023776525631546974,-0.0008727204985916615
1773789990958429200,5.30542919921875,-0.0005588477943092585,-0.00010634027421474457,0.0007044672966003418
1773789990978394000,5.32539404296875,0.00038238312117755413,-0.0003479612059891224,0.0007231463678181171
1773789990998359000,5.345359130859375,0.0014589122729375958,0.0009605194209143519,0.0005632205866277218
1773789991018324000,5.365323974609375,-0.0010795913403853774,-0.0005057223606854677,-0.000022928696125745773
1773789991038289200,5.3852890625,0.0006317159859463573,0.0003073390107601881,0.00002737855538725853
1773789991058254800,5.4052548828125,0.0003630293649621308,-0.0016076653264462948,-0.00022145221009850502
1773789991078219800,5.4252197265625,-0.0005322316428646445,0.0004294738173484802,0.0000719195231795311
1773789991098185000,5.44518505859375,0.0011738392058759928,-0.00007596961222589016,0.0008219685405492783
1773789991118150000,5.46514990234375,-0.0000847172923386097,-0.0013587542343884706,-0.00020581111311912537
1773789991138115800,5.48511572265625,0.0008032908663153648,-0.0006417920812964439,0.00004401709884405136
1773789991158081000,5.5050810546875,-0.000026554189389571548,0.00029351585544645786,-0.0012181084603071213
1773789991178046000,5.5250458984375,-0.002134564332664013,0.00007825391367077827,-0.00006891647353768349
1773789991198011000,5.545010986328125,-0.0005078722606413066,-0.00111654051579535,-0.00043360935524106026
1773789991217977000,5.56497705078125,0.001097970176488161,-0.0007045466918498278,-0.0006083985790610313
1773789991237942000,5.58494189453125,1.0593794286251068e-7,-0.0005550093483179808,0.000277745071798563
1773789991257907000,5.604906982421875,0.0006260364316403866,0.0000063749030232429504,-0.0007846923545002937
1773789991277872000,5.6248720703125,-0.00037206397973932326,0.001319409697316587,-0.0001456267200410366
1773789991297838000,5.644838134765625,0.000021579820895567536,0.00011989823542535305,-0.000047262292355298996
1773789991317803000,5.664802978515625,0.002117905765771866,-0.000478759640827775,0.0024138297885656357
1773789991337768200,5.684768310546875,0.000044355299905873835,0.00008001062087714672,0.0002993769012391567
1773789991357733000,5.704733154296875,0.0000027813512133434415,0.00011865305714309216,-0.0012330603785812855
1773789991377698000,5.724697998046875,0.0008707162924110889,-0.0014480280224233866,-0.0002115955576300621
1773789991397664000,5.7446640625,-0.00021244472009129822,0.0004950498696416616,-0.0008417712524533272
1773789991417629000,5.76462890625,-0.000854754529427737,0.0007844504434615374,0.0007800436578691006
1773789991437593900,5.78459375,-0.00031147629488259554,-0.001535909716039896,-0.00005690800026059151
1773789991457558800,5.804558837890625,0.0006130542024038732,-0.0006702148821204901,-0.0006503555923700333
1773789991477525000,5.82452490234375,0.0006250686128623784,-0.00003460724838078022,-0.00150311179459095
1773789991497490000,5.844489990234375,0.0006826077005825937,0.00022906181402504444,0.0006083333864808083
1773789991517455000,5.864455078125,-0.0014234399423003197,-0.001632325816899538,0.002117936033755541
1773789991537420000,5.884419921875,-0.0007505908142775297,0.0003849416971206665,-0.001846320927143097
1773789991557385000,5.904385009765625,-0.0014363302616402507,0.00042305723764002323,0.0005529723130166531
1773789991577351200,5.92435107421875,-0.00021456435206346214,0.000015460653230547905,-0.00002579623833298683
1773789991597316000,5.944316162109375,-0.0007071611471474171,-0.00020094681531190872,-0.0014720498584210873
1773789991617281000,5.964281005859375,0.0002855420461855829,0.0010842103511095047,-0.000908377580344677
1773789991637246000,5.984245849609375,0.001177217927761376,-0.00006155483424663544,0.0005425442941486835
1773789991657212000,6.0042119140625,-0.00016692260396666825,-0.00037366687320172787,-0.00005838600918650627
1773789991677176800,6.0241767578125,0.000578272738493979,0.00006551621481776237,-0.0011727199889719486
1773789991697141800,6.044141845703125,-0.00008824367250781506,0.00009159557521343231,0.001066533848643303
1773789991717107000,6.06410693359375,0.0011163081508129835,0.0010119846556335688,-0.0004253024235367775
1773789991737071900,6.08407177734375,-0.0011374326422810555,-0.0014245943166315556,0.0006285179406404495
1773789991757037800,6.104037841796875,-0.000412689580116421,0.0004347600042819977,-0.0005409731529653072
1773789991777003000,6.1240029296875,-0.0003197670157533139,0.0001434634905308485,-0.0005720597691833973
1773789991796968000,6.143968017578125,-0.0005547175533138216,0.0005361123476177454,-0.00033859023824334145
1773789991816932900,6.163932861328125,0.00010534533066675067,0.00012901797890663147,-0.0010005938820540905
1773789991836899000,6.183899169921875,0.00013170531019568443,-0.0006531828548759222,0.0005817338824272156
1773789991856864000,6.203864013671875,0.00040968548273667693,-0.0005464018322527409,-0.00030005862936377525
1773789991876829000,6.223828857421875,0.0008070142939686775,0.00017029955051839352,-0.0012780316174030304
1773789991896794000,6.243794189453125,-0.00034202763345092535,0.0000840374268591404,-0.0006670779548585415
1773789991916759000,6.263759033203125,-0.0010302512673661113,-0.00003135739825665951,0.0004457132890820503
1773789991936725000,6.28372509765625,0.0010194799397140741,0.0007974675390869379,0.0018688966520130634
1773789991956690200,6.303690185546875,0.0008409928996115923,0.0009734805207699537,-0.0005950913764536381
1773789991976655000,6.323655029296875,-0.0003214925527572632,-0.00008392566815018654,-0.001141535583883524
1773789991996620000,6.3436201171875,0.0008150418289005756,-0.00028622359968721867,0.0008567338809370995
1773789992016585000,6.3635849609375,0.00001819348835851997,-0.0011006861459463835,-0.00021798303350806236
1773789992036551000,6.383551025390625,0.0006452014204114676,0.0003766890149563551,-0.0012492258101701736
1773789992056515800,6.403515869140625,0.00027257169131189585,0.0007977646309882402,0.0006391578353941441
1773789992076481000,6.42348095703125,-0.0005269759567454457,0.0003158855251967907,0.0014393487945199013
1773789992096446000,6.443446044921875,0.00037828905624337494,-0.0006304029375314713,-0.00009891437366604805
1773789992116411000,6.463410888671875,-0.00034410771331749856,-0.0003022742457687855,-0.0016530565917491913
1773789992136377000,6.483377197265625,-0.00002789855352602899,-0.0005227264482527971,-0.001569017767906189
1773789992156342000,6.503342041015625,0.0008878117077983916,0.0007180094253271818,-0.0003886884078383446
1773789992176307500,6.523307373046875,-0.0006296142237260938,0.0003971874248236418,0.0007737050764262676
1773789992196272400,6.5432724609375,-0.000021307059796527028,0.0005129729397594929,-0.0006379247643053532
1773789992216238600,6.563238525390625,0.0003879875876009464,0.0007984742987900972,0.0014830906875431538
1773789992236203500,6.58320361328125,0.0012771449983119965,0.0006356642115861177,0.0024992639664560556
1773789992256168700,6.603168701171875,0.0008108979091048241,0.0004366051871329546,0.0004430999979376793
1773789992276133600,6.623133544921875,-0.00038134705391712487,0.00045859417878091335,-0.0006749019958078861
1773789992296098600,6.6430986328125,0.0006722151883877814,0.0004995362833142281,0.0005212868563830853
1773789992316064500,6.663064453125,0.000050989372539334,-0.00008175475522875786,0.0006702644750475883
1773789992336029400,6.683029541015625,-0.00044418947072699666,0.0011974568478763103,-0.00022393092513084412
1773789992355994400,6.702994384765625,-0.00010072407894767821,0.00042648566886782646,0.0016076904721558094
1773789992375959300,6.722959228515625,-0.0003472214157227427,0.00036449404433369637,0.00034550856798887253
1773789992395924500,6.742924560546875,0.0009542740881443024,-0.00008811638690531254,-0.0002891956828534603
1773789992415890400,6.762890380859375,0.000754204229451716,7.350463420152664e-7,0.0002950495108962059
1773789992435855400,6.78285546875,0.0005019348463974893,-0.00003658933565020561,0.00019705109298229218
1773789992455820500,6.802820556640625,0.0009752091718837619,0.001159142586402595,-0.00016608694568276405
1773789992475785500,6.822785400390625,-0.0000858632120070979,-0.001540526980534196,0.0007478827610611916
1773789992495750400,6.84275048828125,0.0002777770278044045,0.00017699063755571842,0.000492775347083807
1773789992515715600,6.862715576171875,-0.0008285925141535699,-0.0007179556414484978,-0.00007513770833611488
1773789992535681500,6.882681640625,-0.0008985715685412288,-0.0019212516490370035,0.0008953581564128399
1773789992555646500,6.902646484375,0.0009297716896981001,0.00035616522654891014,0.001550265122205019
1773789992575611600,6.922611572265625,0.0014702914049848914,-0.00024166982620954514,0.0002041291445493698
1773789992595576600,6.94257666015625,-0.0007041750941425562,-0.0014670172240585089,0.00020621344447135925
1773789992615541500,6.96254150390625,0.00005551520371227525,0.00009080092422664165,-0.00013790559023618698
1773789992635507500,6.982507568359375,0.0013371981913223863,0.00035211723297834396,0.0009659058414399624
1773789992655472600,7.00247265625,-0.0009237430640496314,0.0005998408887535334,-0.0005666688084602356
1773789992675437600,7.0224375,0.0004963339306414127,-0.000279103172942996,0.0001283935271203518
1773789992695402500,7.042402587890625,-0.0008288031094707549,-0.00021620583720505238,0.000795378815382719
1773789992715367700,7.06236767578125,-0.0014737123856320977,-0.0005624433979392052,-0.0005838102661073208
1773789992735333400,7.08233349609375,-0.00031365599716082215,-0.0006956267170608044,0.00027055852115154266
1773789992755298300,7.10229833984375,-0.00013303504965733737,-0.00027710781432688236,0.0001514381729066372
1773789992775263500,7.122263427734375,-0.001988265197724104,-0.0001046154648065567,-0.0011022472754120827
1773789992795228400,7.142228515625,0.0002813857572618872,-0.0011998678091913462,-0.00038360757753252983
1773789992815193300,7.162193359375,0.0006886129849590361,0.0007328381761908531,0.0000038547441363334656
1773789992836407300,7.1834072265625,0.0008177258423529565,0.00032167648896574974,-0.00009926361963152885
1773789992856372500,7.20337255859375,0.0004368938389234245,-0.00030022207647562027,-0.0003446154296398163
1773789992876337400,7.22333740234375,-0.0001531875313958153,-0.00039159832522273064,0.00035956641659140587
1773789992896302300,7.24330224609375,0.0009026360348798335,0.00028376607224345207,0.0007444457150995731
1773789992916267500,7.263267578125,-0.0006551346159540117,0.00004046270623803139,0.0008135573007166386
1773789992936232400,7.283232421875,-0.0005986558389849961,-0.00008771289139986038,-0.00012445636093616486
1773789992956198400,7.303198486328125,0.0011748638935387135,-0.0002672614064067602,0.00010569579899311066
1773789992976163300,7.323163330078125,-0.0015938711585476995,-0.000519362511113286,-0.0005575716495513916
1773789992996128500,7.34312841796875,-0.00021107865904923528,0.00004502176307141781,-0.00047234026715159416
1773789993016093400,7.363093505859375,-0.0017131073400378227,0.00039047887548804283,-0.0003158794716000557
1773789993036058400,7.383058349609375,-0.0007753389654681087,-0.0013815301936119795,0.00030801165848970413
1773789993056024600,7.403024658203125,0.00016803924518171698,0.0009938121074810624,-0.0007320623844861984
1773789993075989500,7.422989501953125,-0.0008544054580852389,-0.0001067186240106821,0.000581106636673212
1773789993095954400,7.442954345703125,-0.00014519711839966476,-0.0004966887645423412,-0.000521466601639986
1773789993115919600,7.462919677734375,0.0001130707241827622,-0.000281287357211113,-0.00034095020964741707
1773789993135884500,7.482884521484375,-0.0012182298814877868,0.0004662631545215845,0.0008914386853575706
1773789993155849500,7.502849365234375,-0.0002608143840916455,0.0007421483751386404,-0.00038812216371297836
1773789993175814700,7.522814697265625,0.0007169878808781505,-0.0009273549076169729,-0.00012202560901641846
1773789993195779600,7.542779541015625,-0.0002781871007755399,-0.00015375250950455666,0.0012659085914492607
1773789993215744500,7.56274462890625,-0.000331468996591866,0.0006281256210058928,-0.0009758840315043926
1773789993235709400,7.58270947265625,-0.0008178815478459001,-0.001085848780348897,0.0007643895223736763
1773789993255674600,7.602674560546875,-0.0010985162807628512,0.0000018477439880371094,0.0005594980902969837
1773789993275639600,7.6226396484375,-0.0005960962153039873,-0.000256312545388937,-0.0011989772319793701
1773789993295605500,7.64260546875,0.0002588159404695034,-0.000599338673055172,-0.0007930006831884384
1773789993315570700,7.66257080078125,-0.0002609125804156065,-0.0009734055493026972,0.00037755025550723076
1773789993335535600,7.68253564453125,-0.00028170045698061585,0.0010899249464273453,-0.0006494279950857162
1773789993355500500,7.70250048828125,-0.0001725546462694183,0.0008092913776636124,-0.0001941528171300888
1773789993375465700,7.7224658203125,0.001352383173070848,0.0005414816550910473,-0.0005972734652459621
1773789993395430700,7.7424306640625,0.0010034970473498106,0.000689089298248291,-0.00030583329498767853
1773789993415396400,7.762396240234375,0.0004906592657789588,-0.000788824399933219,0.00017615687102079391
1773789993435361500,7.782361572265625,-0.0008867110591381788,0.001073280000127852,-0.0011325455270707607
1773789993455326500,7.802326416015625,0.00033511052606627345,0.0010868522804230452,0.0013003088533878326
1773789993475291400,7.82229150390625,-0.00009575237345416099,-0.00015014107339084148,-0.001032909844070673
1773789993495256300,7.84225634765625,-0.00001826196239562705,-0.0011371932923793793,-0.00012906081974506378
1773789993515221500,7.862221435546875,-0.0006249414873309433,0.0008349909912794828,0.0010675140656530857
1773789993535187500,7.8821875,-0.00020801527716685086,-0.0013643691781908274,0.0006818776018917561
1773789993555152400,7.90215234375,0.0008618136635050178,0.0011139493435621262,-0.0004193889908492565
1773789993575117600,7.92211767578125,0.00009669047722127289,-0.0002642164472490549,0.00037282006815075874
1773789993595082500,7.94208251953125,-0.0003679520741570741,-0.0013132821768522263,-0.000022634398192167282
1773789993615047400,7.96204736328125,-0.00008893221092876047,0.0008413835894316435,-0.0009956881403923035
1773789993635012600,7.9820126953125,-0.0006256661145016551,-0.0013406588695943356,-0.0014800699427723885
1773789993654978600,8.001978515625,-0.00024437427055090666,0.00018666032701730728,0.00006139976903796196
1773789993674943500,8.021943603515625,-0.0003608094702940434,-0.00041140266694128513,-0.0012819920666515827
1773789993694908700,8.04190869140625,-0.0006985078216530383,0.00047542620450258255,0.000912010669708252
1773789993714873600,8.06187353515625,-0.0005272081471048295,-0.00039324210956692696,0.0006952849216759205
1773789993734838500,8.081838623046876,-0.00122702622320503,-0.0004726490005850792,-0.0007627643644809723
1773789993754803500,8.101803466796875,-0.001620965194888413,0.00035682530142366886,-0.0007700859569013119
1773789993774768600,8.1217685546875,-0.00021388869208749384,-0.0005534819792956114,0.00008937111124396324
1773789993794734600,8.141734619140625,-0.00020506125292740762,0.0008331332355737686,0.001164162065833807
1773789993814699500,8.161699462890626,-0.0006165245431475341,0.00043753115460276604,-0.0015077004209160805
1773789993834664700,8.181664794921875,-0.0006869123317301273,-0.0004312340170145035,-0.0007993616163730621
1773789993854629600,8.201629638671875,0.00028651650063693523,0.00025708507746458054,0.00030444562435150146
1773789993874594600,8.221594482421875,-0.0009636565810069442,-0.0003917000722140074,-0.000506068579852581
1773789993894559700,8.241559814453124,-0.0005765401874668896,0.0009826791938394308,-0.0005719657056033611
1773789993914525400,8.261525390625,0.00014904895215295255,-0.00010003196075558662,0.00024614669382572174
1773789993934490400,8.281490478515625,-0.00023304508067667484,-0.0004819105379283428,-0.0011561638675630093
1773789993954455600,8.30145556640625,-0.000013892233255319297,-0.000013433163985610008,-0.0015591015107929707
1773789993974420500,8.32142041015625,-0.00024400649999734014,0.00021350360475480556,0.0009663687087595463
1773789993994385400,8.341385498046876,0.0006274713668972254,0.0006779413670301437,-0.000015316065400838852
1773789994014350300,8.361350341796875,0.000697554845828563,-0.0007959271315485239,-0.001310544554144144
1773789994034315500,8.3813154296875,-0.00048441102262586355,-0.0015387763269245625,0.00005059642717242241
1773789994054281500,8.401281494140624,0.00048732204595580697,0.0012807616731151938,0.000005069654434919357
1773789994074246700,8.42124658203125,-0.00037832141970284283,-0.0017808466218411922,-0.00024937279522418976
1773789994094211600,8.441211669921875,0.0004080433282069862,-0.00005491613410413265,0.000026113353669643402
1773789994114176500,8.461176513671875,0.00034125533420592546,0.000003888970240950584,-0.0015643341466784477
1773789994134141400,8.481141357421874,0.001026444835588336,-0.0003185262903571129,-0.0004937071353197098
1773789994154106600,8.501106689453126,-0.00008359608182217926,0.00039553921669721603,0.0012996047735214233
1773789994174071800,8.52107177734375,-0.0016444000648334622,0.0006860948633402586,-0.0005939905531704426
1773789994194038000,8.5410380859375,-0.0013924135128036141,-0.00014714966528117657,-0.0012652822770178318
1773789994214003000,8.5610029296875,0.0007261682185344398,0.0005625777412205935,-0.00022169668227434158
1773789994233967900,8.5809677734375,-0.00021458842093124986,0.0006025736220180988,-0.0016704965382814407
1773789994253933000,8.60093310546875,0.0011988631449639797,0.00036692689172923565,-0.0015050717629492283
1773789994273898000,8.62089794921875,0.000018556645954959095,0.00006111059337854385,0.00019799964502453804
1773789994293863000,8.64086279296875,0.0003639530041255057,-0.00002256152220070362,0.0004496523179113865
1773789994313827800,8.660827880859374,0.0009339243988506496,-0.00024750945158302784,0.0001554577611386776
1773789994333793800,8.680793701171876,-0.00036045617889612913,0.00013790768571197987,-0.000149543397128582
1773789994353758700,8.7007587890625,0.0011980811832472682,0.001196055905893445,0.0005784672684967518
1773789994373723600,8.7207236328125,-0.0006801398121751845,0.00021213246509432793,-0.001860602293163538
1773789994393688800,8.740688720703124,-0.0005726036033593118,0.001624922500923276,0.0005180155858397484
1773789994413653800,8.76065380859375,-0.00035042990930378437,-0.0006243670359253883,0.0004971176385879517
1773789994433618700,8.78061865234375,-0.0008570557693019509,0.0006973627023398876,0.0000812881626188755
1773789994453584000,8.800583984375,0.00036628986708819866,0.0006049885414540768,-0.0008468800224363804
1773789994473549800,8.8205498046875,0.00041833214345388114,0.002172027248889208,0.0007497509941458702
1773789994493514800,8.8405146484375,0.0003711563185788691,0.00038784113712608814,0.00012282328680157661
1773789994513480000,8.86047998046875,-0.000041509701986797154,0.0006207521073520184,-0.0006922869943082333
1773789994533444900,8.88044482421875,-0.0004856896121054888,-0.00012800050899386406,0.000924237072467804
1773789994553409800,8.900409912109374,0.000009071125532500446,0.0007290958892554045,0.0014441846869885921
1773789994573374700,8.920374755859376,0.00043167127296328545,0.000558074563741684,0.0017090477049350739
1773789994593340000,8.94033984375,-0.001630054204724729,-0.0006108132656663656,0.0007298802956938744
1773789994613304800,8.960304931640625,0.0005941966664977372,-0.00024038320407271385,-0.000615966971963644
1773789994633271000,8.98027099609375,0.0009218042250722647,-0.0002022148109972477,0.0006073322147130966
1773789994653236000,9.000236083984374,-0.00017618181300349534,0.0008706960361450911,-0.0003459830768406391
1773789994673201000,9.020200927734376,0.00006459558790083975,0.00042702979408204556,0.0006221453659236431
1773789994693165800,9.040165771484375,0.000748871301766485,0.0005846181884407997,-0.000002571381628513336
1773789994713131000,9.060131103515625,0.000708250212483108,0.0010367323411628604,-0.00034629181027412415
1773789994733096000,9.080095947265624,-0.00024123603361658752,0.0006263819523155689,0.00020464090630412102
1773789994753060900,9.100060791015625,0.0015514347469434142,0.0005268347449600697,0.00025836238637566566
1773789994773026800,9.12002685546875,-0.0005123384762555361,0.0007901450153440237,-0.0004034554585814476
1773789994792992000,9.139991943359375,-0.0002409306907793507,-0.001700263237580657,-0.0005856095813214779
1773789994812957000,9.15995703125,-0.00008992740185931325,-0.00034407712519168854,-0.0013041500933468342
1773789994832921900,9.179921875,0.00030552258249372244,0.0013588127912953496,0.0006638881750404835
1773789994852887000,9.199886962890625,0.0008190558874048293,-0.00015981425531208515,0.00032857712358236313
1773789994872852000,9.21985205078125,0.0005885788123123348,0.0007965500699356198,-0.00042847078293561935
1773789994892817000,9.23981689453125,0.00003391635254956782,-0.0002274594735354185,0.00016883062198758125
1773789994912782000,9.259781982421876,-0.0000074560666689649224,0.00036579975858330727,-0.0003857659175992012
1773789994932747800,9.279747802734375,-0.0004471973516047001,-0.00032264506444334984,-0.0007766014896333218
1773789994952712700,9.299712646484375,-0.00043486320646479726,-0.0006082404870539904,0.0002726432867348194
1773789994972678000,9.319677978515625,0.00007735165854683146,-0.00022106803953647614,0.0011801752261817455
1773789994992642800,9.339642822265626,0.00010044268856290728,0.0010103188687935472,-0.0004923040978610516
1773789995012607700,9.359607666015625,0.00018061688751913607,-0.001357187982648611,-0.0001690560020506382
1773789995032572700,9.37957275390625,-0.0006141639896668494,0.00062036351300776,0.0008558961562812328
1773789995052537900,9.399537841796874,0.00025569903664290905,-0.0006770838517695665,-0.0012480644509196281
1773789995072502800,9.419502685546876,-0.0009239156497642398,-0.0005195646081119776,0.0014818301424384117
1773789995092467700,9.4394677734375,0.000016817808500491083,0.0003935755230486393,-0.00018083583563566208
1773789995112434000,9.459433837890625,-0.00004134231130592525,-0.000696834409609437,0.0007365024648606777
1773789995132398800,9.47939892578125,-0.0008794603636488318,-0.0006644490640610456,0.0010369359515607357
1773789995152363800,9.49936376953125,-0.0004956175689585507,0.0007528010755777359,-0.00026916060596704483
1773789995172329500,9.51932958984375,0.0012438258854672313,-0.0011919653043150902,0.0007331394590437412
1773789995192294700,9.539294677734375,0.00014575565000995994,-0.0016069759149104357,-0.0009995074942708015
1773789995212259600,9.559259521484375,0.0011825653491541743,-0.0007780170999467373,0.0008001779206097126
1773789995232224500,9.579224609375,0.00044330256059765816,-0.00024297600612044334,0.00033281510695815086
1773789995252189700,9.599189697265626,-0.0002486260491423309,-0.0007723139133304358,0.000847973395138979
1773789995272155600,9.61915576171875,-0.0009430097416043282,0.0005871958564966917,0.0006354679353535175
1773789995292120600,9.63912060546875,0.0004177992814220488,0.00008708867244422436,-0.0006678071804344654
1773789995312085500,9.65908544921875,0.00008165622421074659,0.00006695417687296867,-0.0006516329012811184
1773789995332050700,9.67905078125,-0.0020253590773791075,0.0007849399698898196,0.000647673849016428
1773789995352015600,9.699015625,-0.0009541442268528044,-0.0014559670817106962,0.000024662818759679794
1773789995371980500,9.71898046875,0.0002501301351003349,-0.0000757731031626463,-0.0003608684055507183
1773789995391945700,9.73894580078125,-0.00013989803846925497,0.0000017883721739053726,-0.000007988419383764267
1773789995411910700,9.75891064453125,-0.0004289547214284539,-0.0004562763497233391,0.000290771946310997
1773789995431875600,9.77887548828125,0.0007644046563655138,0.00004049367271363735,0.0014639496803283691
1773789995451841500,9.798841552734375,-0.0013002241030335426,-0.000374658964574337,-0.0005518775433301926
1773789995471806500,9.818806396484375,0.0012503934558480978,0.0003996791783720255,-0.0015887878835201263
1773789995491771400,9.838771484375,-0.0018131870310753584,0.00024933740496635437,-0.00021816883236169815
1773789995511736600,9.858736572265625,-0.0018192639108747244,-0.000007048947736620903,0.000038139522075653076
1773789995531701500,9.878701416015625,-0.0008198209688998759,-0.0007535645272582769,0.00037758657708764076
1773789995551666400,9.89866650390625,0.0007275053067132831,0.000614165561273694,-0.0008187443017959595
1773789995571631400,9.91863134765625,0.00025772483786568046,0.000056812306866049767,-0.00037069059908390045
1773789995591596500,9.938596435546875,-0.0004447886603884399,-0.00034600915387272835,-0.000523571390658617
1773789995611561500,9.9585615234375,0.0003440503205638379,0.0011397426715120673,0.000060412101447582245
1773789995631526400,9.9785263671875,-0.0009348231833428144,0.00026866840198636055,-0.0011975676752626896
1773789995651492600,9.99849267578125,-0.0007356179412454367,0.0005145291797816753,-0.0007835058495402336
1773789995671457500,10.01845751953125,-0.0009382126154378057,-0.0001500975340604782,-0.000057641882449388504
1773789995691422500,10.03842236328125,-0.00036740367067977786,-0.00047332909889519215,0.00044954754412174225
1773789995711387600,10.0583876953125,-0.00010643989662639797,-0.001332124462351203,-0.0005681868642568588
1773789995731352600,10.0783525390625,-0.00006824239972047508,-0.0013349624350667,0.00004269741475582123
1773789995751317500,10.0983173828125,0.00019721010175999254,0.00036369054578244686,0.0007867868989706039
1773789995771282400,10.118282470703125,0.0011621000012382865,0.00005234451964497566,0.0009864135645329952
1773789995791247600,10.13824755859375,0.00036344071850180626,0.00039197620935738087,-0.00009282073006033897
1773789995811212500,10.158212646484374,-0.001460836036130786,-0.0009045081678777933,0.0009134463034570217
1773789995831178500,10.178178466796876,-0.00026448111748322845,-0.00038900854997336864,0.0011295760050415993
1773789995851143700,10.198143798828125,0.0001055444881785661,-0.0014877717476338148,-0.0004773540422320366
1773789995871108600,10.218108642578125,0.0009718835935927927,-0.0006988768000155687,0.0008453521877527237
1773789995891073500,10.238073486328124,0.00035256813862361014,-0.0009068194776773453,0.00019879965111613274
1773789995911038700,10.258038818359376,0.000059853075072169304,-0.0005733044818043709,0.0002683601342141628
1773789995931003600,10.278003662109375,-0.0003690017620101571,-0.001023098360747099,-0.0008090767078101635
1773789995950968600,10.297968505859375,-0.0002466838341206312,0.0002743508666753769,0.00035442644730210304
1773789995970933500,10.31793359375,0.000048239948228001595,0.0007024286314845085,0.00023628119379281998
1773789995990898700,10.337898681640626,0.00021796557120978832,-0.0001099947839975357,-0.0009698779322206974
1773789996010863600,10.357863525390625,0.00036281277425587177,0.00012747617438435555,-0.00008782185614109039
1773789996030828500,10.37782861328125,-0.0009168331744149327,0.0001139659434556961,-0.0003512096591293812
1773789996050794500,10.39779443359375,-0.0001982170797418803,-0.00036434875801205635,-0.0013546119444072247
1773789996070759400,10.417759521484374,-0.0008038538508117199,-0.00021523376926779747,-0.0003443206660449505
1773789996090724400,10.437724365234375,-0.00033225410152226686,0.00031769671477377415,0.00013301754370331764
1773789996110689500,10.457689453125,0.0012905214680358768,-0.0008654966950416565,0.001006393227726221
1773789996130654500,10.477654541015625,-0.0004173506749793887,0.0005058813840150833,0.0007146485149860382
1773789996150619400,10.497619384765626,0.00046277756337076426,-0.0004949446301907301,0.00018252525478601456
1773789996170584000,10.517583984375,-0.001181481173262,-0.0005223213229328394,-0.00022971304133534431
1773789996190549000,10.537549072265625,-0.00005637283902615309,0.00014296360313892365,0.0004572635516524315
1773789996210514000,10.557513916015624,0.00014485325664281845,-0.0009848030749708414,-0.00031364941969513893
1773789996230479000,10.57747900390625,0.0006623038789257407,-0.000607344089075923,0.0007793768309056759
1773789996250444800,10.59744482421875,0.0000058920413721352816,0.0008789130952209234,0.0005806265398859978
1773789996270409700,10.61740966796875,-0.000364471081411466,0.0006277295760810375,0.0006873048841953278
1773789996290375000,10.637375,-0.0003632468287833035,-0.00031259702518582344,-0.0003261761739850044
1773789996310339800,10.65733984375,0.000496016931720078,-0.00018507498316466808,-0.0006411112844944
1773789996330304800,10.6773046875,-0.0009098584996536374,0.0009304003324359655,-0.00043925317004323006
1773789996350269700,10.697269775390625,0.0008197895949706435,-0.0004331502132117748,0.0005853245966136456
1773789996370235000,10.71723486328125,0.0005463737761601806,0.00046740262769162655,0.0002666693180799484
1773789996390199800,10.73719970703125,0.0018619379261508584,0.0007312502712011337,0.0010228552855551243
1773789996410164700,10.757164794921875,0.0003940685710404068,0.0006313645280897617,0.0005879895761609077
1773789996430130000,10.7771298828125,0.00003213237505406141,0.00024375948123633862,0.0006142356432974339
1773789996450094800,10.7970947265625,0.000312925927573815,0.000521673122420907,0.00015949737280607224
1773789996470060800,10.817060791015624,0.00020166439935564995,0.0013507939875125885,0.000438702292740345
1773789996490026000,10.83702587890625,-0.0005522947176359594,0.000850035110488534,0.00009249895811080933
1773789996509991000,10.856990966796875,-0.0018113345140591264,0.0003503707703202963,0.001215286087244749
1773789996529955800,10.876955810546875,0.00030473980586975813,0.00048479740507900715,0.0016535432077944279
1773789996549920800,10.896920654296874,-0.0003002866869792342,-0.00009100954048335552,0.00012115947902202606
1773789996569886000,10.916885986328126,-0.0005023125559091568,-0.0000681169331073761,0.0013298578560352325
1773789996589851000,10.936850830078125,0.0012835297966375947,0.0007000581827014685,-0.00017134053632616997
1773789996609815800,10.95681591796875,0.000845248403493315,-0.0006487963255494833,-0.00030287541449069977
1773789996629781000,10.976781005859374,0.00041676562977954745,0.0018409667536616325,0.001684545073658228
1773789996649746000,10.996745849609376,-0.00037300074473023415,-0.000060128746554255486,0.0008832239545881748
1773789996669710800,11.0167109375,-0.00030625431099906564,-0.0005528666079044342,0.0015600821934640408
1773789996689675800,11.03667578125,0.0008288857061415911,-0.0007258483674377203,-0.00007239216938614845
1773789996709642000,11.05664208984375,0.0015306130517274141,-0.00026537314988672733,0.00016996636986732483
1773789996729607000,11.07660693359375,0.0004972844035364687,-0.00008688308298587799,-0.00007684528827667236
1773789996749571800,11.09657177734375,-0.0003799352271016687,0.0003042137250304222,-0.00024330848827958107
1773789996769537000,11.116537109375,-0.001098347594961524,-0.00044659804552793503,-0.0002311677671968937
1773789996789502000,11.136501953125,0.000643978244625032,0.001430415897630155,0.0010972050949931145
1773789996809467000,11.156466796875,0.0011991439387202263,-0.000050700968131422997,-0.00010214559733867645
1773789996830679800,11.1776796875,0.0007672011852264404,-0.0006716744974255562,-0.0008368031121790409
1773789996850644700,11.197644775390625,0.00031770867644809186,-0.0005139221902936697,-0.00033150194212794304
1773789996870610000,11.21760986328125,0.00010015531734097749,-0.000009895069524645805,0.0007108412683010101
1773789996890574800,11.237574951171876,-0.0010854664724320173,-0.00038220384158194065,0.000675529707223177
1773789996910539800,11.257539794921875,0.00011061463737860322,-0.00021845893934369087,0.0006587337702512741
1773789996930504700,11.277504638671875,-0.0003478924627415836,-0.00015837117098271847,-0.0011635334230959415
1773789996950470000,11.297469970703125,0.0012407379690557718,-0.0003480541054159403,-0.0005378243513405323
1773789996970435800,11.317435791015624,-0.0007577197393402457,-0.0007016386371105909,-0.0007789009250700474
1773789996990400800,11.33740087890625,-0.0002345898246858269,0.000320719787850976,-0.0005684616044163704
1773789997010366000,11.357365966796875,-0.000602328625973314,-0.0007505218964070082,-0.0001639057882130146
1773789997030331000,11.377330810546875,0.0015122232725843787,-0.0002080609556287527,-0.00043903663754463196
1773789997050295800,11.3972958984375,-0.0004257072287146002,0.00036828266456723213,0.0010628006421029568
1773789997070261000,11.417260986328126,0.0001505656255176291,-0.0009177750907838345,0.0007778401486575603
1773789997090226000,11.437225830078125,0.001459767809137702,0.00017215637490153313,-0.001117544248700142
1773789997110190800,11.45719091796875,0.00046326228766702116,0.00017958227545022964,0.0003468063659965992
1773789997130155800,11.47715576171875,-0.0014334822772070765,0.00002034427598118782,0.000998607836663723
1773789997150121000,11.497120849609376,-0.00032081297831609845,0.001779913785867393,-0.0009224903769791126
1773789997170086400,11.51708642578125,0.0008537924732081592,0.00009605521336197853,0.00045201368629932404
1773789997190051300,11.53705126953125,-0.00006163261423353106,0.00036549242213368416,0.0010095853358507156
1773789997210016300,11.557016357421874,0.000990582280792296,0.000009960494935512543,0.0007571177557110786
1773789997229982500,11.576982421875,-0.00034731824416667223,-0.00027042138390243053,-0.0006308890879154205
1773789997249947400,11.596947509765625,0.0006183202494867146,-0.00017435848712921143,-0.00003511039540171623
1773789997269912300,11.616912353515625,0.0003541175974532962,-0.0003576760645955801,-0.0009761746041476727
1773789997289877500,11.63687744140625,-0.0010151512688025832,-0.000579197658225894,-0.0009874035604298115
1773789997309842400,11.656842529296876,-0.0007056445465423167,-0.00003498443402349949,-0.0009018350392580032
1773789997329807400,11.676807373046875,0.0005666832439601421,-0.00024164561182260513,0.0003443080931901932
1773789997349772500,11.6967724609375,-0.00034294676152057946,0.0008811119478195906,0.00027904659509658813
1773789997369737500,11.716737548828124,-0.000407728657592088,0.0004985393024981022,0.000031845178455114365
1773789997389702400,11.736702392578126,0.0013377417344599962,-0.0006247509736567736,0.00047555938363075256
1773789997409667300,11.756667236328125,-0.0005775230238214135,0.0014928854070603848,0.00003463029861450195
1773789997429632500,11.776632568359375,0.0003481893800199032,-0.0011339345946907997,-0.0009276513010263443
1773789997449597400,11.796597412109374,-0.001200039405375719,0.0006005719769746065,-0.0009528836235404015
1773789997469562400,11.816562255859376,-0.0002578725980129093,0.0006918944418430328,0.0003604656085371971
1773789997489527600,11.836527587890625,-0.00008387424168176949,-0.0014863188844174147,5.415640771389008e-7
1773789997509492500,11.856492431640625,-0.0006984248175285757,0.000971255823969841,-0.0019385176710784435
1773789997529458200,11.876458251953125,-0.0001713168021524325,-0.00032671960070729256,-0.0015305210836231709
1773789997549423400,11.89642333984375,-0.00001835076545830816,-0.0003291906323283911,-0.00030314596369862556
1773789997569388300,11.91638818359375,-0.00021813251078128815,-0.00005305209197103977,-0.000318408478051424
1773789997589353200,11.936353271484375,0.0006377176032401621,0.001001525903120637,-0.00031861430034041405
1773789997609318100,11.956318115234374,-0.00010203923739027232,-0.0004842681810259819,-0.0008771899156272411
1773789997629283300,11.976283447265626,-0.000678116106428206,0.0005004554986953735,0.00126159330829978
1773789997649248300,11.996248291015625,0.0005341556388884783,-0.00036178482696413994,0.0007036589086055756
1773789997669213200,12.016213134765625,-0.0006965871434658766,-0.0007923138327896595,-0.0006004250608384609
1773789997689178400,12.036178466796875,0.00002553792728576809,0.0005044848658144474,0.0006590462289750576
1773789997709143300,12.056143310546876,0.0009797557722777128,-0.00006406824104487896,-0.0010882746428251266
1773789997729108200,12.076108154296875,0.0010737128322944045,-0.00006930064409971237,0.0012942110188305378
1773789997749073200,12.0960732421875,-0.0005290974513627589,-0.0002609433140605688,-0.0007456024177372456
1773789997769038300,12.116038330078124,0.00044663838343694806,0.00039514736272394657,-0.0009045051410794258
1773789997789003300,12.136003173828126,-0.0003037421265617013,-0.0006953347474336624,0.000143375713378191
1773789997808968200,12.15596826171875,-0.00018863289733417332,-0.0000451176892966032,-0.00120132090523839
1773789997828933400,12.175933349609375,-0.001327873906120658,-0.0008793529123067856,-0.001233371440321207
1773789997848899300,12.1958994140625,0.00014316530723590404,-0.0016634853091090918,0.0002529900521039963
1773789997868864300,12.2158642578125,-0.0006386906024999917,-0.0001419174950569868,0.0005691610276699066
1773789997888829400,12.235829345703126,0.0008849101723171771,-0.0006415846291929483,-0.000263760332018137
1773789997908794400,12.25579443359375,0.00026424991665408015,0.0002593980170786381,0.00007148133590817451
1773789997928759300,12.27575927734375,0.0006228426937013865,0.00046113040298223495,0.0007677278481423855
1773789997948724200,12.29572412109375,-0.00047056362382136285,0.000643955310806632,0.0006203306838870049
1773789997968689400,12.315689453125,-0.0003268766449764371,0.0009281742386519909,-0.0009351782500743866
1773789997988654300,12.335654296875,0.00012711429735645652,0.00016777007840573788,-0.0014382395893335342
1773789998008619300,12.355619384765625,-0.0010958088096231222,-0.0004897227045148611,-0.0015211612917482853
1773789998028584400,12.37558447265625,0.00010690820636227727,0.0008499119430780411,0.0006904038600623608
1773789998048549400,12.39554931640625,-0.0005925220320932567,0.0008112916257232428,0.000008291099220514297
1773789998068514300,12.415514404296875,-0.00014955110964365304,-0.0003379040863364935,-0.0000487728975713253
1773789998088479200,12.435479248046875,0.0015986738726496696,0.0004634831566363573,-0.0003775837831199169
1773789998108444400,12.4554443359375,-0.0002271590637974441,-0.00018917489796876907,0.0011112065985798836
1773789998128409300,12.475409423828125,-0.00006387507892213762,-0.0000998105388134718,-0.000012763310223817825
1773789998148374300,12.495374267578125,-0.00033111387165263295,0.000044825952500104904,0.0010982048697769642
1773789998168339000,12.5153388671875,-0.0002575856342446059,0.00012824242003262043,0.00010386202484369278
1773789998188304000,12.535303955078126,0.0018691575387492776,0.0006757690571248531,0.0002611135132610798
1773789998208269800,12.555269775390625,-0.0005312132416293025,0.00010628462769091129,-0.00021421117708086967
1773789998228235000,12.575235107421875,-0.0006861459114588797,0.00048131076619029045,0.0006821183487772942
1773789998248200000,12.595199951171875,-0.00032058166107162833,-0.0007043415680527687,-0.0011076959781348705
1773789998268164900,12.615164794921874,-0.0015470245853066444,0.001670902012847364,0.0007569850422441959
1773789998288129800,12.6351298828125,-0.000698840944096446,0.00031661405228078365,0.0000875391997396946
1773789998308095000,12.655094970703125,-0.0010433249408379197,-0.0010838992893695831,-0.0013621770776808262
1773789998328060000,12.675059814453125,0.0006764306453987956,0.0004642785061150789,-0.0009795739315450191
1773789998348024800,12.69502490234375,0.0017943991115316749,-0.000338591868057847,-0.0006303782574832439
1773789998367990000,12.714989990234375,0.0008407281711697578,0.00041399989277124405,0.0019143051467835903
1773789998387955000,12.734954833984375,0.00014869761071167886,0.0004800220485776663,-0.00002259155735373497
1773789998407919900,12.754919921875,0.00015395987429656088,0.0004744103644043207,-0.0007514492608606815
1773789998427884800,12.774884765625,-0.0006078842561691999,-0.000055782729759812355,-0.00011760368943214417
1773789998447850000,12.79485009765625,-0.00016054342268034816,0.00024492619559168816,-0.00047558732330799103
1773789998467815000,12.81481494140625,0.00013289817434269935,-0.0002632215619087219,-0.00014305347576737404
1773789998487779800,12.83477978515625,0.0004875019658356905,0.0007266541942954063,0.00018904730677604675
1773789998507744800,12.854744873046876,-0.000025066648959182203,-0.000621297862380743,-0.00017462065443396568
1773789998527710000,12.8747099609375,-0.000879203318618238,0.0008251501712948084,-7.46455043554306e-7
1773789998547675000,12.8946748046875,0.00038424780359491706,-0.0009335298091173172,0.000024309847503900528
1773789998567639800,12.914639892578125,-0.00017333848518319428,0.00043529365211725235,0.0008343877270817757
1773789998587606000,12.93460595703125,-0.0005729669355787337,-0.0012635115999728441,-0.0008218460716307163
1773789998607571000,12.954571044921876,-0.0015325143467634916,-0.00048690265975892544,-0.001311244908720255
1773789998627536000,12.974535888671875,-0.00005260496982373297,0.0009325332939624786,0.0014110230840742588
1773789998647501000,12.9945009765625,-0.0001665012096054852,-0.0006021508015692234,0.0007180632092058659
1773789998667466000,13.014466064453124,0.001678207190707326,-0.0011422717943787575,0.0012524919584393501
1773789998687431000,13.034430908203126,-0.0013232557103037834,0.00021662074141204357,0.0006099948659539223
1773789998707395800,13.054395751953125,0.0007087917765602469,0.0008897557854652405,-0.0005013286136090755
1773789998727361000,13.074361083984375,0.001175840850919485,-0.00000819261185824871,0.0005864123813807964
1773789998747326000,13.094325927734374,-0.00033914600498974323,0.0007061497308313847,0.0009970208629965782
1773789998767291000,13.114290771484375,0.0008692919509485364,-0.0002230037935078144,0.0019226199947297573
1773789998787256000,13.134256103515625,-0.0011972285574302077,0.0003306316211819649,0.0009386809542775154
1773789998807221000,13.154220947265625,0.0008166884654201567,-0.001465426990762353,0.0008279061876237392
1773789998827186000,13.17418603515625,-0.0006259889923967421,-0.000024692853912711143,0.0007921261712908745
1773789998847150800,13.19415087890625,-0.0003565374354366213,-0.00010843132622539997,-0.0000736825168132782
1773789998867116000,13.214115966796875,0.00006414082599803805,-0.0006752877961844206,0.00096558453515172
1773789998887081000,13.2340810546875,0.0010074432939291,0.0002063217107206583,-0.00033647194504737854
1773789998907046000,13.2540458984375,-0.00017336616292595863,-0.00034389737993478775,0.0006736982613801956
1773789998927011000,13.274010986328125,-0.00041261984733864665,0.0001984687987715006,0.0002452475018799305
1773789998946976000,13.29397607421875,-0.0007186264847405255,0.0003467176575213671,0.000002625398337841034
1773789998966941000,13.31394091796875,-0.000019407030777074397,-0.0004298994317650795,-0.000998836476355791
1773789998986905900,13.33390576171875,0.0004259947454556823,0.00015584612265229225,0.00018658116459846497
1773789999006871000,13.35387109375,0.00018886233738157898,-0.0015803137794137,0.0009593740105628967
1773789999026836000,13.3738359375,0.0005733182770200074,0.0009161019697785378,-0.0008720178157091141
1773789999046801000,13.39380078125,-0.0008307344978675246,-0.0002043512649834156,0.0004726070910692215
1773789999066765800,13.413765869140626,0.0002100490382872522,0.0001528130378574133,0.0005433238111436367
1773789999086731000,13.43373095703125,0.000008456423529423773,0.00014866096898913383,-0.00007161591202020645
1773789999106696000,13.453696044921875,0.0007036472670733929,-0.0003229530993849039,0.0012299679219722748
1773789999126662000,13.473661865234375,0.000427027465775609,-0.0006562380585819483,-0.0004736492410302162
1773789999146627000,13.493626953125,0.0013960208743810654,0.00007305340841412544,-0.0011882898397743702
1773789999166592300,13.51359228515625,0.000489934696815908,-0.00019945623353123665,-0.00003407662734389305
1773789999186557200,13.53355712890625,-0.0001307500060647726,0.000017565442249178886,-0.0001902719959616661
1773789999206522000,13.553522216796875,-0.0007081837393343449,-0.00007654563523828983,-0.000034811440855264664
1773789999226487000,13.573487060546874,-0.0007090795552358031,-0.0002646900247782469,0.0007279901765286922
1773789999246452200,13.5934521484375,0.0005033613997511566,0.0008446099236607552,0.00014999555423855782
1773789999266417200,13.613417236328125,0.00015269452705979347,0.0005412520840764046,0.00020146742463111877
1773789999286382000,13.633382080078125,-0.0006458433344960213,0.0009807650931179523,0.0007858118042349815
1773789999306347300,13.65334716796875,-0.0015750862658023834,0.0013003152562305331,0.0015276935882866383
1773789999326312200,13.673312255859376,-0.0004497830814216286,0.0018291787710040808,-0.0002569868229329586
1773789999346277000,13.693277099609375,-0.0007663260330446064,0.00042973365634679794,0.0015013027004897594
1773789999366242000,13.713241943359375,-0.0010117064230144024,-0.0000387036707252264,0.0004030209966003895
1773789999386207200,13.733207275390624,0.0002596626873128116,-0.000048206886276602745,-0.0013824212364852428
1773789999406172200,13.753172119140626,0.0007363861659541726,-0.0007943217642605305,0.00016836309805512428
1773789999426137000,13.77313720703125,-0.0002898249658755958,-0.0007596421055495739,0.00029723020270466805
1773789999446102300,13.793102294921875,-0.0012913572136312723,0.0005367759149521589,-0.0000970163382589817
1773789999466067200,13.813067138671874,-0.0005876696086488664,0.00003718072548508644,0.0003948030062019825
1773789999486032100,13.8330322265625,0.0008826545090414584,-0.0004437877796590328,0.0007841652259230614
1773789999505997000,13.8529970703125,-0.0011866840068250895,0.0005037996452301741,-0.00029685162007808685
1773789999525962200,13.872962158203125,-0.00012639824126381427,0.000706071499735117,-0.0003541726619005203
1773789999545927200,13.89292724609375,0.0003524201165419072,0.0002297726459801197,-0.0005870983004570007
1773789999565892000,13.91289208984375,0.001028138562105596,0.000283251516520977,-0.0002504154108464718
1773789999585857300,13.932857177734375,0.0001747302885632962,-0.0017973948270082474,-0.00021521328017115593
1773789999605822200,13.952822265625,-0.0015023183077573776,0.0008383775129914284,0.00012205680832266808
1773789999625787100,13.972787109375,-0.00037994934245944023,-0.0005418981891125441,-0.0013801045715808868
1773789999645752000,13.992751953125,-0.0004357291618362069,-0.0011840106453746557,0.0004979800432920456
1773789999665717200,14.01271728515625,0.0003714645281434059,-0.0015378356911242008,-0.0011392105370759964
1773789999685682200,14.03268212890625,-0.00008834135951474309,-0.0007907992694526911,-0.0005154721438884735
1773789999705647000,14.052647216796874,-0.00043954752618446946,-0.0005035386420786381,0.0002972339279949665
1773789999725612300,14.0726123046875,0.0001421694760210812,0.0006469422951340675,0.0009396481327712536
1773789999745577200,14.0925771484375,0.0022206315770745277,-0.00012935930863022804,-0.0006059696897864342
1773789999765542100,14.112542236328125,-0.000025086250388994813,0.00017010211013257504,0.0006511746905744076
1773789999785507300,14.13250732421875,-0.0008217742433771491,0.00017730426043272018,-0.0011915825307369232
1773789999805472300,14.15247216796875,0.00017138101975433528,0.00008426466956734657,0.00006755627691745758
1773789999825437200,14.172437255859375,-0.0004487635742407292,-0.00003442028537392616,-0.0004883799701929092
1773789999845402400,14.19240234375,0.0005197717691771686,0.0007677013054490089,-0.001391031313687563
1773789999865367300,14.2123671875,-0.0011253831908106804,0.001229841960594058,0.0006361659616231918
1773789999885332200,14.232332275390625,0.0005175914266146719,-0.000134927686303854,0.000028951093554496765
1773789999905297200,14.252297119140625,0.0001816933072404936,-0.0008481815457344055,-0.0012049591168761253
1773789999925262300,14.272262451171875,-0.000581532483920455,0.0006759483367204666,-0.0005974927917122841
1773789999945228300,14.292228271484374,0.000386829546187073,0.0006331130862236023,0.00013882014900445938
1773789999965193200,14.312193115234376,0.0008291441481560469,-0.00009748432785272598,-0.0001678038388490677
1773789999985158100,14.332158203125,0.0006995724979788065,-0.0008275376167148352,0.0010042255744338036
1773790000005123300,14.352123291015625,-0.0010519817005842924,0.0003922663163393736,0.0008323807269334793
1773790000025088300,14.372088134765624,0.00018916452245321125,0.00029756780713796616,-0.00016153976321220398
1773790000045053200,14.39205322265625,-0.00033746944973245263,0.0005260787438601255,-0.0012059425935149193
1773790000065018000,14.41201806640625,0.0002811572339851409,-0.00023271841928362846,0.00016717612743377686
1773790000084983300,14.4319833984375,0.00005996164691168815,0.00029131327755749226,0.001409581396728754
1773790000104948200,14.4519482421875,0.00017385950195603073,0.000714366789907217,-0.00040564127266407013
1773790000124913200,14.4719130859375,-0.0006622011424042284,0.00027667335234582424,0.0007864139042794704
1773790000144878300,14.49187841796875,0.0005138262640684843,-0.0005247185472398996,-0.00002024928107857704
1773790000164843300,14.51184326171875,0.0006021138397045434,0.0005067076999694109,0.0006318911910057068
1773790000184808700,14.53180859375,-0.0008787133847363293,0.00007684738375246525,-0.000059629324823617935
1773790000204773600,14.551773681640626,0.0006484897457994521,-0.0003181900829076767,0.0006406190805137157
1773790000224738800,14.57173876953125,-0.0006906468188390136,-0.0015309157315641642,-0.00017007533460855484
1773790000244703700,14.591703857421875,0.0020598655100911856,-0.000207176199182868,0.0010341033339500427
1773790000264668700,14.611668701171874,-0.00028737843967974186,-0.00003757281228899956,-0.0008500800468027592
1773790000284633600,14.631633544921876,0.00002803391544148326,0.00017028464935719967,0.0016281199641525745
1773790000304598800,14.651598876953125,0.0002927707973867655,-0.00041772820986807346,0.0002512633800506592
1773790000324563700,14.671563720703125,0.0014143346343189478,-0.0001472686417400837,-0.0007161619141697884
1773790000344528600,14.691528564453124,0.0007331054075621068,-0.00025681848637759686,0.0008088047616183758
1773790000364493800,14.711493896484376,0.00029648205963894725,0.0005362979136407375,-0.0014928788878023624
1773790000384458800,14.731458740234375,-0.0004619231622200459,-0.0003940807655453682,0.0004052892327308655
1773790000404423700,14.751423583984375,0.0004410881665535271,-0.0007915135938674212,-0.0007179165259003639
1773790000424388600,14.771388671875,-0.00009201938519254327,0.0004279725253582001,-0.0015160366892814636
1773790000444353800,14.791353759765625,0.00030053401133045554,0.00045544328168034554,0.0017511420883238316
1773790000464318700,14.811318603515625,-0.0010342353489249945,-0.0007090829312801361,0.0009863507002592087
1773790000484283600,14.83128369140625,-0.0008190607186406851,-0.00016756867989897728,0.0002955184318125248
1773790000504248600,14.85124853515625,0.0009382531279698014,-0.0019059560727328062,-0.00101081607863307
1773790000524213800,14.8712138671875,0.0008698516758158803,0.000513885635882616,0.0010921158827841282
1773790000544178700,14.8911787109375,0.0006589333061128855,-0.000015382422134280205,-0.0006053829565644264
1773790000564143600,14.9111435546875,0.0008193491958081722,0.000046158209443092346,-0.0005928180180490017
1773790000584108800,14.93110888671875,-0.000734151981305331,0.0009993871208280325,-0.0002724016085267067
1773790000604073700,14.95107373046875,0.00005795656761620194,0.0008406066335737705,-0.0011237231083214283
1773790000624038700,14.97103857421875,0.0002522319555282593,0.00047928723506629467,-0.0002154349349439144
1773790000644003600,14.991003662109375,0.00019489800615701824,0.001202494720928371,0.0007700901478528976
1773790000663968800,15.01096875,-0.00041932507883757353,0.00036231474950909615,0.0008494844660162926
1773790000683933700,15.03093359375,-0.0004477410111576319,-0.00014915037900209427,-0.00048611732199788094
1773790000703898600,15.050898681640625,0.000059674159274436533,-0.00009623495861887932,0.002872996963560581
1773790000723863800,15.07086376953125,-0.00015491823432967067,-0.001066161086782813,-0.00003589782863855362
1773790000743828700,15.090828857421876,0.0009237597696483135,-0.0005096977110952139,0.001067266333848238
1773790000763793700,15.110793701171875,-0.0008055680082179606,0.0005451070610433817,-0.00017598364502191544
1773790000783758600,15.130758544921875,-0.001109372009523213,0.001270886161364615,-0.0006481469608843327
1773790000803723800,15.150723876953125,0.0003289761079940945,-0.00042845308780670166,0.00036562327295541763
1773790000823688700,15.170688720703126,0.00029371766140684485,-0.00003476417623460293,-0.0006832452490925789
1773790000843653600,15.190653564453125,0.0007750143995508552,0.00006394297815859318,-0.0014854087494313717
1773790000863618800,15.210618896484375,-0.00045196161954663694,-0.0006052406970411539,0.0002312697470188141
1773790000883583700,15.230583740234374,0.0009083411423489451,-0.00048424256965518,0.0007943166419863701
1773790000903548700,15.250548583984376,-0.00020211978699080646,0.0000037245918065309525,-0.0002468586899340153
1773790000923513600,15.270513671875,-0.000049812442739494145,-0.0011116431560367346,-0.00013871025294065475
1773790000943478800,15.290478759765625,0.00042079028207808733,0.0003476324491202831,-0.0012255660258233547
1773790000963443700,15.310443603515624,-0.0003318911767564714,-0.0008311958517879248,0.0008684913627803326
1773790000983408600,15.33040869140625,-0.0007003951468504965,-0.0007664493750780821,-0.000335554126650095
1773790001003373600,15.35037353515625,0.00046673842007294297,0.00023128069005906582,0.0008081402629613876
1773790001023338800,15.3703388671875,0.0021660905331373215,-0.00022699451074004173,0.0003895079717040062
1773790001043303700,15.3903037109375,0.00009983786731027067,-0.0008459568489342928,-0.0006198114715516567
1773790001063268600,15.4102685546875,-0.0007282025180757046,-0.0001878619659692049,0.00016811257228255272
1773790001083233800,15.43023388671875,-0.0005240063183009624,-0.0001351633109152317,0.0004606451839208603
1773790001103198700,15.45019873046875,0.0003147847019135952,0.0005363377276808023,0.000016695819795131683
1773790001123163600,15.47016357421875,0.0008879279484972358,-0.0004770148079842329,0.0012447587214410305
1773790001143128600,15.490128662109376,0.0006312633631750941,-0.0003868723288178444,0.0006448966450989246
1773790001163093800,15.51009375,-0.000903053383808583,0.0010139734949916601,-0.00037307338789105415
1773790001183058400,15.530058349609375,0.0009035983821377158,0.0011449725134298205,0.0005146181210875511
1773790001203022600,15.550022705078124,-0.00042343110544607043,-0.0008692881092429161,0.0003984388895332813
1773790001222987500,15.569987548828125,-0.0006271572201512754,-0.00019781221635639668,0.001092083752155304
1773790001242952700,15.58995263671875,0.0011703833006322384,0.0008031835313886404,-0.0011097840033471584
1773790001262917600,15.609917724609375,-0.0005460040993057191,-0.001130885910242796,-0.00016001705080270767
1773790001282882600,15.629882568359376,-0.0003970127727370709,0.0012462534941732883,-0.00025869766250252724
1773790001302847500,15.649847412109375,0.000494043342769146,-0.0008189112413674593,-0.0011420343071222305
1773790001322812700,15.669812744140625,0.0004870975390076637,-0.0003590357955545187,-0.002004501409828663
1773790001342777600,15.689777587890624,0.0006674969918094575,-0.00012581399641931057,0.0008893907070159912
1773790001362742500,15.709742431640626,0.00011158706183778122,-0.0008437137585133314,0.0005785468965768814
1773790001382707700,15.729707763671875,-0.000706762308254838,0.00039987615309655666,-0.00008414825424551964
1773790001402672600,15.749672607421875,-0.00022303142759483308,-0.00007660500705242157,-0.0005971631035208702
1773790001422637600,15.769637451171874,-0.00015195320884231478,-0.00011814548633992672,0.0006328136660158634
1773790001442602500,15.7896025390625,-0.0009892687667161226,0.00013773981481790543,0.0002879197709262371
1773790001462567700,15.809567626953125,0.0012914212420582771,-0.00007180636748671532,0.00017674732953310013
1773790001482532600,15.82953271484375,0.0003630461869761348,0.000354803167283535,0.0006751203909516335
1773790001502497500,15.84949755859375,0.0016133536119014025,0.0008240598253905773,-0.0009681405499577522
1773790001522462500,15.86946240234375,-0.0004607218434102833,-0.0008327767718583345,-0.00065235560759902
1773790001542427600,15.889427734375,0.0002874083293136209,0.0006494778208434582,0.0008627115748822689
1773790001562392600,15.909392578125,0.0004662758146878332,-0.00021984660997986794,0.00039439182728528976
1773790001582357500,15.929357421875,-0.0003531913971528411,0.0011027093278244138,-0.0004718685522675514
1773790001602322700,15.94932275390625,0.001283750170841813,-0.0012843431904911995,0.00045789312571287155
1773790001622287600,15.96928759765625,-0.001275653950870037,-0.00006905663758516312,-0.0002588932402431965
1773790001642252500,15.98925244140625,-0.0004943292587995529,-0.00033060694113373756,0.0005969223566353321
1773790001662217500,16.009217529296876,0.0005553783848881721,0.00012297811917960644,-0.0004357104189693928
1773790001682182700,16.0291826171875,0.001420994522050023,-0.0000023506581783294678,-0.00018648849800229073
1773790001702147600,16.049147705078123,0.0009999795584008098,0.00008887494914233685,0.0000963420607149601
1773790001722112500,16.069112548828127,0.00017841369844973087,-0.0004417200107127428,0.00030047958716750145
1773790001742077700,16.08907763671875,-0.0018215749878436327,-0.0014013431500643492,-0.00012899190187454224
1773790001762042600,16.109042724609374,-0.0006498611764982343,-0.0007711914367973804,0.000011405441910028458
1773790001782007600,16.129007568359373,-0.0006981304613873363,-0.0008292936254292727,-0.0006705932319164276
1773790001801971500,16.148971435546876,-0.00020744065113831311,0.0006796480156481266,0.0006706924177706242
1773790001821936400,16.168936279296876,0.0005968066398054361,0.0007559000514447689,0.00012117065489292145
1773790001841901600,16.188901611328124,-0.0003060635062865913,0.000175858149304986,0.0004382194019854069
1773790001861866500,16.208866455078127,0.0017552750650793314,0.0008776169270277023,0.0002460223622620106
1773790001881831400,16.22883154296875,-0.0007681704591959715,-0.0003767840098589659,0.0001131775788962841
1773790001901796600,16.248796630859374,-0.0006400475976988673,-0.000270006712526083,-0.00002026604488492012
1773790001921761500,16.268761474609374,0.0010833468986675143,0.00017184019088745117,-0.0020390190184116364
1773790001941726500,16.2887265625,-0.0014410200528800488,0.000034582335501909256,-0.0001523285172879696
1773790001961691400,16.30869140625,-0.0003733947523869574,-0.00025859661400318146,-0.00017104530707001686
1773790001981656600,16.328656494140624,-0.0001266121689695865,-0.00021449755877256393,-0.0006052409298717976
1773790002001621500,16.34862158203125,-0.00003837693657260388,0.0010409799870103598,0.00018133968114852905
1773790002021586400,16.36858642578125,-0.0008976537501439452,-0.00008839857764542103,0.0008123777806758881
1773790002041551600,16.388551513671874,0.0003450023359619081,-0.00042139599099755287,0.0004933266900479794
1773790002061516500,16.4085166015625,-0.0009987718658521771,0.0001534696202725172,-0.0003516683354973793
1773790002081481500,16.4284814453125,0.0001491441944381222,0.00011996785178780556,-0.0005032466724514961
1773790002101446400,16.4484462890625,0.0007607503212057054,-0.00012954184785485268,-0.0011384328827261925
1773790002121411600,16.46841162109375,0.00019896782760042697,0.0003197879996150732,-0.00013784179463982582
1773790002141376500,16.48837646484375,0.00042444939026609063,0.00043216277845203876,0.00041603948920965195
1773790002161341400,16.508341552734375,0.00004429838736541569,0.0005147068295627832,0.0009529627859592438
1773790002181306600,16.528306640625,-0.000041753213736228645,-0.0006547977682203054,0.000015599653124809265
1773790002201271600,16.548271484375,0.0010565510019659996,0.0006292900070548058,0.0003416375257074833
1773790002221236500,16.568236572265626,0.0009198722545988858,0.0005215264391154051,-0.0017371498979628086
1773790002241201700,16.58820166015625,0.0005809637950733304,-0.0001602510455995798,-0.0002856808714568615
1773790002261166600,16.60816650390625,0.0003862846060656011,-0.0007888036780059338,0.001220078207552433
1773790002281131500,16.628131591796876,-0.0003111790865659714,0.0002109752967953682,-0.00017366185784339905
1773790002301096400,16.648096435546876,0.0006715531926602125,-0.0008691230323165655,-0.00015372922644019127
1773790002321061600,16.6680615234375,-0.00019472948042675853,0.0005668681114912033,-0.00041001010686159134
1773790002341026600,16.688026611328127,-0.0010135159827768803,-0.00010106689296662807,-0.0019922740757465363
1773790002360990500,16.707990478515626,-0.001435922342352569,0.0002457094378769398,0.002735479734838009
1773790002380955400,16.727955322265625,-0.0006946820067241788,-0.0005230633541941643,-0.00018587196245789528
1773790002400920600,16.747920654296873,-0.0005148850614205003,0.0007100680377334356,0.0005002561956644058
1773790002420885500,16.767885498046876,-0.0009357227245345712,-0.000878501683473587,-0.0003493083640933037
1773790002440850400,16.787850341796876,-0.0010267673060297966,0.0008603499736636877,0.00017736805602908134
1773790002460815400,16.8078154296875,0.0003785800654441118,-0.000443760072812438,-0.0001827026717364788
1773790002480780500,16.827780517578127,0.0012388132745400071,-0.0002748791594058275,0.00020112842321395874
1773790002500745500,16.847745361328126,-0.0013305377215147018,0.0003148340620100498,0.0005678562447428703
1773790002520710400,16.86771044921875,0.0004590080352500081,0.00022634933702647686,-0.0009446148760616779
1773790002540675600,16.887675537109374,0.000015522062312811613,0.0004961234517395496,-0.000010110437870025635
1773790002560640500,16.907640625,0.0006359950639307499,0.0010320006404072046,-0.0012990976683795452
1773790002580605400,16.92760546875,0.0013007181696593761,-0.00009810179471969604,-0.0007068249396979809
1773790002600570400,16.9475703125,0.0005552642978727818,-0.0001111410092562437,0.000057180412113666534
1773790002620535600,16.96753564453125,0.00016050793055910617,-0.000561992172151804,-0.00015227310359477997
1773790002640500500,16.98750048828125,-0.00009900078293867409,0.00004673353396356106,0.0006992854177951813
1773790002660465400,17.00746533203125,0.00020165150635875762,-0.0006609603296965361,0.00047683110460639
1773790002680430300,17.027430419921874,0.0011549757327884436,-0.0003993620630353689,0.0003791064955294132
1773790002700395500,17.0473955078125,-0.0002714695583563298,-0.00017583766020834446,-0.0018820585682988167
1773790002720360400,17.0673603515625,0.0005189005751162767,0.0005734497681260109,-0.0009741885587573051
1773790002740324600,17.08732470703125,-0.0001327544159721583,0.0002588501665741205,0.00136629119515419
1773790002760289500,17.10728955078125,0.0007571185706183314,-0.00017551239579916,0.0010528257116675377
1773790002780254700,17.127254638671875,-0.00048334948951378465,0.00035641947761178017,0.0015176055021584034
1773790002800219600,17.1472197265625,0.00041668734047561884,0.000977831892669201,-0.0002522026188671589
1773790002820184600,17.1671845703125,0.00019905644876416773,0.00008141808211803436,-0.0000500725582242012
1773790002840149800,17.187149658203126,-0.0008877969230525196,-0.0006825351156294346,-0.00024919304996728897
1773790002860114700,17.20711474609375,0.0004484703822527081,0.0005323216319084167,-0.0017400048673152924
1773790002880079600,17.22707958984375,0.0000677454809192568,-0.00143160461448133,-0.0012694974429905415
1773790002900044500,17.24704443359375,0.001296407077461481,-0.000828862888738513,-0.00018465612083673477
1773790002920009700,17.267009765625,0.00079875357914716,0.00018171640112996101,0.0007895240560173988
1773790002939974700,17.286974609375,-0.0007644068100489676,-0.0001468351110816002,-0.000543961301445961
1773790002959939600,17.306939697265626,-0.0005742570501752198,-0.000458424910902977,0.00029946165159344673
1773790002979904500,17.326904541015626,0.0007952937157824636,0.00023621157743036747,0.0008106809109449387
1773790002999869700,17.34686962890625,0.0020925167482346296,0.0013988198479637504,-0.0010941922664642334
1773790003019834600,17.366834716796873,0.00016178870282601565,0.0002495183143764734,0.0004016072489321232
1773790003039799600,17.386799560546876,0.0007955994224175811,0.000055309152230620384,0.0007602181285619736
1773790003059764700,17.4067646484375,0.00032323613413609564,-0.00002341880463063717,0.0008960417471826077
1773790003079729700,17.426729736328124,0.0012824083678424358,-0.00025807530619204044,0.00036844005808234215
1773790003099693600,17.446693603515627,0.00003347321762703359,0.00038065691478550434,0.0012495541013777256
1773790003119658500,17.466658447265626,0.000026907888241112232,0.00038582365959882736,-0.0003291536122560501
1773790003139623700,17.486623779296874,0.0014186649350449443,-0.00003747432492673397,-0.00001846207305788994
1773790003159588600,17.506588623046873,-0.0002070992486551404,0.0006723760161548853,-0.0009831557981669903
1773790003179553000,17.526552978515625,-0.0025526881217956543,0.0006703042890876532,0.0004145386628806591
1773790003199518000,17.54651806640625,-0.0002988122869282961,0.0007149353623390198,-0.0000893562100827694
1773790003219483000,17.56648291015625,0.002222122624516487,0.00011708098463714123,-0.00014709169045090675
1773790003239448000,17.586447998046875,-0.000005911948392167687,0.00006723403930664062,0.0017104833386838436
1773790003259413000,17.6064130859375,0.00009768031304702163,0.000942504033446312,-0.002119163516908884
1773790003279378000,17.6263779296875,0.0014834534376859665,0.0009769769385457039,-0.001323731616139412
1773790003299342800,17.6463427734375,0.0001257988333236426,0.00026315823197364807,0.00041751516982913017
1773790003319308000,17.66630810546875,-0.000027499932912178338,0.001402823836542666,-0.00032209698110818863
1773790003339273000,17.68627294921875,-0.0012761203106492758,0.0007498469203710556,-0.0007356172427535057
1773790003359238000,17.70623779296875,-0.0012380910338833928,0.000023169443011283875,-0.0003671604208648205
1773790003379203000,17.726203125,-0.0005705648218281567,-0.001849986845627427,-0.0006195888854563236
1773790003399167000,17.7461669921875,-0.0005190795054659247,0.00022268877364695072,-0.0006721708923578262
1773790003419132000,17.7661318359375,0.00009687993588158861,0.0009560841135680676,-0.0007811603136360645
1773790003439096800,17.786096923828126,0.0006883265450596809,0.00014675362035632133,0.00002864748239517212
1773790003459062000,17.80606201171875,-0.001402402762323618,-0.000037879450246691704,0.000736430287361145
1773790003479027000,17.82602685546875,-0.0002527926117181778,-0.0013096535112708807,-0.00046986620873212814
1773790003498991900,17.845991943359376,0.0013601244427263737,-0.0009128192905336618,0.0010335752740502357
1773790003518956800,17.865956787109376,0.0005756294121965766,0.00004659476689994335,0.0005496148951351643
1773790003538922000,17.885921875,-0.0016576249618083239,-0.0006020993459969759,-0.0004557408392429352
1773790003558887000,17.905886962890627,0.0001805437495931983,0.00021767662838101387,-0.00042782770469784737
1773790003578851800,17.925851806640626,-0.000022272080968832597,-0.00038088904693722725,0.0012666103430092335
1773790003598816800,17.945816650390626,-0.0006030543008819222,-0.0004665080923587084,0.0003765961155295372
1773790003618782000,17.965781982421873,-0.0009824105072766542,0.00009394832886755466,-0.0012999670580029488
1773790003638747000,17.985746826171876,-0.0011674886336550117,0.000628479290753603,-0.0010573077015578747
1773790003658711800,18.0057119140625,-0.0012712898897007108,0.0007855186704546213,0.00022485945373773575
1773790003678676000,18.025676025390624,-0.0008219917654059827,-0.001147170551121235,0.0006694872863590717
1773790003698641200,18.04564111328125,0.0010070468997582793,-0.0002343233209103346,0.00048688333481550217
1773790003718606000,18.065606201171875,0.000046512439439538866,0.0011283017229288816,-0.0006428887136280537
1773790003738571000,18.085571044921874,-0.0005281860358081758,-0.00004963669925928116,0.0006795483641326427
1773790003758536200,18.1055361328125,-0.0006750776083208621,-0.0005776758771389723,-0.002450931817293167
1773790003778501000,18.125501220703125,-0.0009403424337506294,0.0004973218310624361,-0.0004580658860504627
1773790003798466000,18.145466064453124,-0.0011218998115509748,-0.0007794396951794624,-0.0001313178800046444
1773790003818431000,18.165430908203124,-0.00033339564106427133,-0.00037020654417574406,0.00021703075617551804
1773790003838396200,18.185396240234375,0.001420378452166915,0.0008846051059663296,0.00034804409369826317
1773790003858361000,18.205361083984375,0.000036682587960967794,0.0003248578868806362,-0.000370850320905447
1773790003878326000,18.225325927734374,0.00028622138779610395,0.0011969077168032527,-0.00011334335431456566
1773790003898291000,18.245291015625,-0.0006472948007285595,-0.0003954868298023939,0.0006109979003667831
1773790003918255000,18.265255126953125,-0.00026447803247720003,-0.0004723335150629282,-0.00020999601110816002
1773790003938220000,18.285219970703125,-0.0005347237456589937,-0.00044658826664090157,-0.0009582117199897766
1773790003958185000,18.30518505859375,-0.0010343341855332255,-0.000501903472468257,-0.0002846629358828068
1773790003978150000,18.32514990234375,-0.000191020910278894,0.0004222216084599495,-0.0007195323705673218
1773790003998115000,18.345114990234375,-0.0008614661055617034,0.0009007381740957499,-0.00011255033314228058
1773790004018080000,18.365080078125,-0.0001874032022897154,-0.0000776329543441534,0.00039259111508727074
1773790004038045000,18.385044921875,0.0001369435922242701,0.0003152661956846714,-0.0007013189606368542
1773790004058010000,18.405010009765626,-0.0003797892713919282,0.00007586460560560226,0.00005679205060005188
1773790004077975000,18.42497509765625,-0.000005037742084823549,0.00006790785118937492,0.0016820966266095638
1773790004097940000,18.44493994140625,-0.0000954572024056688,-0.0002867276780307293,-0.0010308376513421535
1773790004117905000,18.46490478515625,-0.001167363952845335,0.000021989457309246063,-0.0006768074817955494
1773790004137870000,18.4848701171875,-0.0004650555783882737,0.0011413401225581765,-0.00019208015874028206
1773790004157834000,18.504833984375,0.0014051103498786688,0.00019036326557397842,0.0005734683945775032
1773790004177799200,18.524799072265626,0.00008134947711369023,0.00045448937453329563,-0.0010479576885700226
1773790004197764000,18.54476416015625,0.0009672381565906107,0.0000920549500733614,0.00012494530528783798
1773790004217729000,18.56472900390625,-0.0012533606495708227,0.0007189875468611717,-0.0008596880361437798
1773790004237694000,18.58469384765625,0.0006022431189194322,-0.0011337033938616514,-0.0006695454940199852
1773790004257659100,18.6046591796875,0.0003763671265915036,-0.000680465716868639,0.0003111492842435837
1773790004277624000,18.6246240234375,-0.001280868542380631,0.0007392175029963255,-0.00003423914313316345
1773790004297589000,18.644589111328123,0.0002788552374113351,0.0007193523924797773,0.0005906890146434307
1773790004317554000,18.664553955078127,-0.0006182949291542172,0.00008799275383353233,0.0006774598732590675
1773790004337519000,18.68451904296875,0.000017786063835956156,-0.0009723224211484194,0.000033208634704351425
1773790004357484000,18.704484130859374,-0.00022734470258001238,-0.0004190432373434305,-0.0002300972118973732
1773790004377448200,18.7244482421875,0.0005640488816425204,-0.00031816097907721996,-0.0007943776436150074
1773790004397413000,18.7444130859375,0.00016444615903310478,-0.0008410206064581871,-0.000004736706614494324
1773790004417378300,18.76437841796875,-0.0002596501144580543,0.0007122629322111607,-0.000028876587748527527
1773790004437343200,18.78434326171875,0.0005193154793232679,-0.0003320062533020973,0.00007790140807628632
1773790004457308200,18.80430810546875,0.0019366844790056348,-0.000551961362361908,-0.0008356189355254173
1773790004477273300,18.8242734375,0.000057889134041033685,-0.0007045650854706764,0.00124350655823946
1773790004497238300,18.84423828125,0.00038418921758420765,-0.00033253920264542103,0.0006068884395062923
1773790004517203200,18.864203125,-0.0005508404574356973,-0.000056359684094786644,0.0003878958523273468
1773790004537168100,18.884168212890625,-0.0014723828062415123,0.00057403021492064,-0.000026794616132974625
1773790004557133300,18.90413330078125,-0.0010854305000975728,0.00020048418082296848,0.00010474352166056633
1773790004577097200,18.92409716796875,-0.0010526146506890655,0.000003782566636800766,0.00015231547877192497
1773790004597062100,18.944062255859375,-0.001092334627173841,-0.0021394467912614346,-0.0002184668555855751
1773790004617027000,18.964027099609375,-0.0012647643452510238,-0.0007619701791554689,0.0001976178027689457
1773790004636992300,18.9839921875,-0.000478768371976912,-0.000009566079825162888,-0.00016792258247733116
1773790004656957200,19.003957275390626,0.000260263797827065,0.0016288323095068336,0.0010038474574685097
1773790004676922000,19.023922119140625,-0.0016994691686704755,-0.00004547624848783016,0.0004065246321260929
1773790004696887000,19.043886962890625,0.00044580199755728245,0.0011648924555629492,-0.00010056840255856514
1773790004716852200,19.063852294921876,-0.00004739727592095733,-0.0003957080189138651,-0.000514693558216095
1773790004736817200,19.083817138671876,-0.0009608567925170064,0.00025262217968702316,0.0009013884700834751
1773790004756781000,19.103781005859375,0.00025939225452020764,-0.00030079507268965244,-0.0010845051147043705
1773790004776746000,19.12374609375,-0.0008229211671277881,0.00023192772641777992,0.0014280211180448532
1773790004796711200,19.143711181640626,0.00044577204971574247,-0.0009251174051314592,0.0010807639919221401
1773790004816676000,19.163676025390625,0.0008158596465364099,-0.0013624660205096006,-0.00038521410897374153
1773790004836641000,19.18364111328125,-0.00011209608055651188,-0.0007735318504273891,0.00019882572814822197
1773790004856606000,19.20360595703125,0.0006346791051328182,0.0009496499551460147,-0.0007116864435374737
1773790004876571100,19.223571044921876,0.0006173858419060707,0.00005025370046496391,0.00037277117371559143
1773790004896536000,19.2435361328125,0.0001364919007755816,-0.001173884840682149,0.0002031228505074978
1773790004916501000,19.2635009765625,0.0014840823132544756,-0.0014012977480888367,-0.00045232241973280907
1773790004936466200,19.283466064453126,0.0011095518711954355,-0.00013418542221188545,-0.0009879763238132
1773790004956430000,19.30343017578125,0.000023058964870870113,0.00032033328898251057,0.000496832188218832
1773790004976395000,19.32339501953125,-0.0003783526481129229,-0.00034308130852878094,0.00016902759671211243
1773790004996360000,19.34335986328125,-0.0005405115080066025,-0.0002727003302425146,0.0010969145223498344
1773790005016325000,19.3633251953125,0.0014585378812626004,-0.00031878123991191387,-0.0004581357352435589
1773790005036290000,19.3832900390625,0.0008724775980226696,0.00044402945786714554,0.00045901257544755936
1773790005056255000,19.4032548828125,0.0005869489978067577,0.0005792260635644197,-0.000731294509023428
1773790005076220200,19.42322021484375,-0.00013239181134849787,0.0007522592786699533,0.0010862145572900772
1773790005096185000,19.44318505859375,0.002765337936580181,-0.000024770386517047882,-0.00037009967491030693
1773790005116150000,19.46314990234375,0.00041797966696321964,-0.00021610246039927006,-0.0005043027922511101
1773790005136114200,19.4831142578125,-0.0000631983857601881,-0.00045433430932462215,0.0014132442884147167
1773790005156079000,19.5030791015625,-0.0012461524456739426,-0.0005860389210283756,0.00010307924821972847
1773790005176044800,19.523044921875,-0.000883711501955986,0.0005218677688390017,-0.0009403466247022152
1773790005196009700,19.543009765625,0.0011751174461096525,0.0010900100460276008,0.00008426932618021965
1773790005215974700,19.562974609375,0.0003884395700879395,0.000007777241989970207,0.00002065533772110939
1773790005235939600,19.582939697265626,-0.0007346729980781674,-0.00028525409288704395,-0.0005751936696469784
1773790005255904800,19.60290478515625,0.0012350950855761766,0.0003609431441873312,0.0008491319604218006
1773790005275869700,19.62286962890625,0.000855913502164185,0.0005662988405674696,0.0002723727375268936
1773790005295833600,19.64283349609375,0.0018329395679757,0.00033661676570773125,-0.0009556533768773079
1773790005315798500,19.662798583984376,0.0013112693559378386,-0.000031614676117897034,0.0004869215190410614
1773790005335763700,19.682763671875,-0.000184555072337389,-0.0010328374337404966,-0.001584530808031559
1773790005355728600,19.702728759765623,-0.0007388381054624915,-0.0012688275892287493,-0.0000763540156185627
1773790005375693600,19.722693603515626,0.00025899679167196155,-0.0006208366248756647,0.00004355423152446747
1773790005395658500,19.742658447265626,-0.0000025613117031753063,0.00010165595449507236,-0.0007704654708504677
1773790005415623700,19.762623779296874,0.0011007111752405763,-0.00010756868869066238,-0.0002742200158536434
1773790005435588600,19.782588623046873,-0.00015372911002486944,-0.0004903827793896198,-0.002066429704427719
1773790005455552500,19.802552490234376,-0.0006622417131438851,-0.0004355860874056816,-0.0007093697786331177
1773790005475517400,19.822517333984376,-0.0001755406556185335,-0.0009496815036982298,-0.0016584289260208607
1773790005495482600,19.842482666015623,0.0020900347735732794,0.0000017513521015644073,-0.00024897558614611626
1773790005515447600,19.862447509765627,-0.0003675585612654686,0.0005212991964071989,0.0010273694060742855
1773790005535412500,19.88241259765625,0.0009259720100089908,0.00048215780407190323,0.00023917388170957565
1773790005555377700,19.902377685546874,-0.0003164712688885629,-0.000024929409846663475,0.0006677010096609592
1773790005575342600,19.922342529296873,0.0006087902002036572,-0.0003832008223980665,0.0011466220021247864
1773790005595307500,19.9423076171875,0.0005372182931751013,0.0003856229595839977,-0.0006757583469152451
1773790005615271700,19.962271728515624,0.0007412767736241221,-0.0015012500807642937,0.00007554097101092339
1773790005635236600,19.982236572265624,0.0013894636649638414,0.00023087859153747559,-0.0009610550478100777
1773790005655201800,20.002201904296875,0.0008772335713729262,-0.0005452008917927742,0.0004129246808588505
1773790005675166700,20.022166748046875,0.0014402548549696803,0.0006622772198170424,0.001133078709244728
1773790005695131600,20.042131591796874,-0.0002974894014187157,0.001147015718743205,0.00046610645949840546
1773790005715096800,20.062096923828125,-0.0004788206424564123,0.0010522790253162384,0.0006506545469164848
1773790005735061800,20.082061767578125,0.000973584596067667,-0.00005678972229361534,-0.00009970413520932198
1773790005755026700,20.102026611328125,0.0009903315221890807,-0.0002003740519285202,0.00026112794876098633
1773790005774990600,20.121990478515624,-0.00003056525019928813,0.0006088167428970337,0.0005125594325363636
1773790005794955800,20.141955810546875,0.00019420568423811346,-0.0008395162876695395,0.0004549184814095497
1773790005814920700,20.161920654296875,-0.0001654317311476916,0.00044050836004316807,-0.001442937646061182
1773790005834885600,20.1818857421875,0.0002015043282881379,0.0005851478781551123,-0.0009309579618275166
1773790005854850600,20.2018505859375,-0.00048604729818180203,0.0007875245064496994,0.0008966485038399696
1773790005874815700,20.221815673828125,0.00017593437223695219,0.0004498076159507036,0.0012439670972526073
1773790005894780700,20.24178076171875,-0.0001172569754999131,-0.00002876901999115944,-0.00013578170910477638
1773790005914745600,20.26174560546875,-0.0012959494488313794,0.0002669042441993952,0.000655843410640955
1773790005934709500,20.28170947265625,-0.0004588209558278322,-0.0009564333595335484,-0.00010876217857003212
1773790005954674700,20.3016748046875,0.00022625697602052242,0.0010998211801052094,-0.0010416647419333458
1773790005974639600,20.3216396484375,-0.00019296564278192818,-0.0006472624372690916,0.0006968122906982899
1773790005994604500,20.3416044921875,-0.000011032447218894958,0.0002754542510956526,-0.0006409725174307823
1773790006014569500,20.361569580078125,-0.00033904382144100964,-0.0007742783054709435,0.00017532939091324806
1773790006034534700,20.38153466796875,-0.00020333734573796391,-0.00031700823456048965,0.0005120397545397282
1773790006054499600,20.40149951171875,0.0008475201320834458,0.0010911462595686316,0.00093889981508255
1773790006074463500,20.42146337890625,0.0007279287092387676,0.0009396837558597326,-0.0003379853442311287
1773790006094428400,20.441428466796875,-0.00026575441006571054,-0.00020486698485910892,0.00022494234144687653
1773790006114393600,20.4613935546875,0.0010004494106397033,0.0006228790152817965,-0.0004521184600889683
1773790006134358500,20.481358642578126,0.0002477115485817194,0.0009309283923357725,-0.0010059671476483345
1773790006154323500,20.501323486328126,-0.00045333581510931253,-0.0006254801992326975,-0.0005350061692297459
1773790006174287600,20.52128759765625,0.00021823486895300448,-0.0003253945615142584,0.0005174018442630768
1773790006194251500,20.54125146484375,-0.0007184849819168448,0.000022374792024493217,-0.00027361931279301643
1773790006214216700,20.561216796875,-0.0003507212095428258,0.00009446009062230587,-0.0007997695356607437
1773790006234181600,20.581181640625,-0.0008293372229672968,-0.00009028147906064987,-0.00010138144716620445
1773790006254146600,20.601146484375,0.0015475229592993855,-0.0002946665044873953,-0.000937427394092083
1773790006274111500,20.621111572265626,-0.0007683926960453391,-0.0010869340039789677,0.00017986400052905083
1773790006294076700,20.64107666015625,0.00030774218612350523,-0.0006077517755329609,0.000359091442078352
1773790006314041600,20.66104150390625,-0.0010031809797510505,0.00016867276281118393,-0.0002909158356487751
1773790006334006500,20.681006591796876,-0.00015960147720761597,-0.0004642619751393795,0.0010496927425265312
1773790006353970400,20.700970458984376,-0.0008562477305531502,0.00047806883230805397,0.00046544289216399193
1773790006373935600,20.720935546875,0.0010889420518651605,0.0008839813526719809,-0.0012462497688829899
1773790006393900500,20.740900634765627,-0.000676901894621551,0.00013257330283522606,-0.0008156425319612026
1773790006413865500,20.760865478515626,-0.000020701656467281282,-0.0012114639393985271,-0.00040340889245271683
1773790006433830400,20.780830322265626,-0.0004510683356784284,-0.00016674702055752277,0.0018220054917037487
1773790006453795600,20.800795654296873,-0.0006172424764372408,-0.0015981663018465042,-0.001484244130551815
1773790006473759700,20.820759765625,0.00007968166755745187,-0.0004113507457077503,0.00008862931281328201
1773790006493724700,20.840724609375,-0.00039509066846221685,0.001267269835807383,0.0005925674922764301
1773790006513689600,20.860689697265624,0.000706080871168524,0.0003949811216443777,-0.0006872536614537239
1773790006533654800,20.88065478515625,0.0008979023550637066,0.0004526956472545862,-0.00008191913366317749
1773790006553619700,20.90061962890625,-0.001035402063280344,0.0013057721080258489,0.0018290597945451736
1773790006573584600,20.920584716796874,0.0015042328741401434,-0.00011179712601006031,0.0004503042437136173
1773790006593549800,20.9405498046875,-0.0009269796428270638,-0.0013975335750728846,-0.00013427343219518661
1773790006613513700,20.960513671875,0.0004901100764982402,-0.0002321822103112936,0.0002986970357596874
1773790006633478700,20.980478759765624,-0.0007473987061530352,0.0005806516855955124,0.0011569652706384659
1773790006653443600,21.000443603515624,-0.0010567995486781001,-0.00019639194943010807,0.0008220979943871498
1773790006673408500,21.020408447265623,0.00013797779683955014,-0.00045447610318660736,0.0006179362535476685
1773790006693373700,21.040373779296875,-0.0012323951814323664,-0.0002927554305642843,0.00002894597128033638
1773790006713338600,21.060338623046874,-0.0009367855964228511,0.00004098634235560894,0.0001609567552804947
1773790006733302500,21.080302490234374,-0.0010020540794357657,0.00014959322288632393,0.00006651505827903748
1773790006753267500,21.100267333984377,0.0015526108909398317,-0.00037780567072331905,-0.00040014833211898804
1773790006773232600,21.120232666015625,0.00028644842677749693,0.0008545299060642719,-0.00043369270861148834
1773790006793197600,21.140197509765624,0.0013818209990859032,0.0009481457527726889,-0.0001088269054889679
1773790006813162500,21.16016259765625,0.0005839376244693995,0.0005786649417132139,0.0005663079209625721
1773790006833127400,21.18012744140625,-0.0005341151263564825,-0.00035142386332154274,0.0005703684873878956
1773790006853091800,21.200091796875,-0.0006288735894486308,0.000608314061537385,-0.0015555261634290218
1773790006873056800,21.220056884765626,-0.0002900359977502376,-0.0006315589416772127,-0.0009123124182224274
1773790006893021700,21.240021728515625,-0.0003443002642598003,0.000003823311999440193,-0.00020473916083574295
1773790006912986600,21.259986572265625,-0.000205806820304133,-0.00005102506838738918,0.0018601068295538425
1773790006932951800,21.279951904296876,-0.00017973559442907572,0.0007548120338469744,0.0014674467965960503
1773790006952916700,21.299916748046876,-0.0007914460729807615,0.0007539771031588316,-0.00033745216205716133
1773790006972880600,21.319880615234375,-0.00006553885759785771,0.000641972292214632,-0.00015088403597474098
1773790006992845600,21.339845458984374,0.0006319693056866527,0.00007159309461712837,0.0003944728523492813
1773790007012810800,21.359810791015626,0.001139463041909039,-0.0009826957248151302,0.00025394605472683907
1773790007032775700,21.379775634765625,-0.0001448408729629591,0.000201669754460454,-0.0002031172625720501
1773790007052740600,21.39974072265625,0.001040275557897985,0.000741791445761919,0.0005278824828565121
1773790007072705500,21.41970556640625,0.0009790726471692324,0.0009051477536559105,-0.0005684285424649715
1773790007092669700,21.439669677734376,-0.0008417444187216461,-0.000688670901581645,0.00008611427620053291
1773790007112634600,21.459634521484375,-0.000901713443454355,0.0008126709144562483,-0.00030970945954322815
1773790007132599600,21.479599609375,-0.0006718330550938845,0.0007159165106713772,-0.00004433188587427139
1773790007152564500,21.499564453125,-0.0006525287171825767,-0.00008620927110314369,0.002111147390678525
1773790007172529400,21.519529296875,0.000948413391597569,0.0007316803093999624,-0.0002800547517836094
1773790007192494300,21.539494384765625,-0.000631225761026144,-0.00005503208376467228,0.0008429037407040596
1773790007212458500,21.55945849609375,0.0001576802460476756,0.00035977852530777454,0.0008872980251908302
1773790007232423400,21.57942333984375,0.00034816889092326164,0.000765705481171608,0.000478601548820734
1773790007252388400,21.599388427734375,-0.00004938407801091671,0.001267961342819035,0.0009082099422812462
1773790007272353500,21.619353515625,-0.0009659236529842019,-0.0004096131306141615,-0.0008227303624153137
1773790007292318500,21.639318359375,-0.00041024418896995485,0.00011136988177895546,-0.0006762589327991009
1773790007312283400,21.659283447265626,0.00007918682240415365,0.0003712137695401907,-0.000331090297549963
1773790007332247600,21.67924755859375,-0.00039297883631661534,0.00005862303078174591,0.0011330647394061089
1773790007352212500,21.69921240234375,-0.00010599286179058254,-0.0010353033430874348,0.0001606084406375885
1773790007372177700,21.719177734375,-0.0004488329286687076,-0.00014270097017288208,0.00018598558381199837
1773790007392142600,21.739142578125,-0.001174581702798605,-0.001159067265689373,-0.00013457704335451126
1773790007412107500,21.759107421875,0.00019251568301115185,0.0006009219214320183,-0.00021467404440045357
1773790007432071400,21.779071533203126,0.00004128481668885797,-0.0005614235997200012,0.0018867002800107002
1773790007452036400,21.799036376953126,0.00015922328748274595,-0.001544024795293808,0.0005037370137870312
1773790007472001500,21.81900146484375,0.00007564321276731789,0.0004891655407845974,0.0008094310760498047
1773790007491966500,21.838966552734377,0.00030873948708176613,-0.0017508890014141798,0.00011930149048566818
1773790007511931400,21.858931396484376,-0.0013035604497417808,-0.0002719559706747532,-0.0006893789395689964
1773790007531896600,21.878896484375,-0.0012080667074769735,0.0016570736188441515,-0.0009981258772313595
1773790007551860500,21.898860595703123,0.000672440801281482,0.0005902410484850407,0.00041829561814665794
1773790007571825400,21.918825439453126,0.0007092213490977883,0.000007102498784661293,0.00047210417687892914
1773790007591790300,21.938790283203126,-0.00044060088112019,0.0011403323151171207,-0.0005545779131352901
1773790007611755300,21.95875537109375,0.0014376211911439896,-0.00000788085162639618,-0.00013979803770780563
1773790007631720400,21.978720458984377,0.0004528428253252059,0.0003964281640946865,0.0005350974388420582
1773790007651684600,21.9986845703125,0.0007606680737808347,0.0004505207762122154,0.0002999217249453068
1773790007671649500,22.0186494140625,0.0007750038057565689,-0.00039798137731850147,-0.00032467953860759735
1773790007691614500,22.038614501953123,-0.00017544772708788514,0.00017265137284994125,0.00010157516226172447
1773790007711579600,22.05857958984375,-0.00009799969848245382,0.0004528381396085024,-0.0002654930576682091
1773790007731544600,22.078544677734374,0.000015619079931639135,-0.0005039912648499012,-0.00022851722314953804
1773790007751509500,22.098509521484374,-0.0008025340503081679,-0.000024485867470502853,0.0001859101466834545
1773790007771473400,22.118473388671877,-0.00007960537914186716,0.0010827310616150498,-0.0007501170039176941
1773790007791438600,22.1384384765625,-0.0011721765622496605,-0.000434354180470109,0.00003290455788373947
1773790007811403500,22.158403564453124,-0.00044698279816657305,-0.0007630649488419294,0.001999723492190242
1773790007831368400,22.178368408203124,0.0006955416756682098,0.00018403353169560432,0.00037731975317001343
1773790007851333400,22.19833349609375,0.0004108383727725595,-0.000943668419495225,0.00022613536566495895
1773790007871297500,22.218297607421874,-0.001887668389827013,-0.0004511845763772726,0.0007507330738008022
1773790007891262500,22.238262451171874,-0.00011673082190100104,-0.000637485645711422,0.00008287327364087105
1773790007911227400,22.258227294921873,-0.00012313110346440226,-0.0001503610983490944,-0.0007617133669555187
1773790007931192300,22.2781923828125,-0.0003547559317667037,-0.0000052282121032476425,-0.00032854964956641197
1773790007951157500,22.298157470703124,0.0003240200749132782,0.00005312100984156132,-0.0006895945407450199
1773790007971122400,22.318122314453124,-0.0004416685551404953,-0.0012174304574728012,-0.0004209526814520359
1773790007991086600,22.338086669921875,0.00015752748004160821,0.00026292470283806324,0.00010969256982207298
1773790008011051500,22.358051513671874,-0.0016213643830269575,-0.0008615595288574696,-0.00015055155381560326
1773790008031016700,22.3780166015625,8.543720468878746e-7,-0.000728176673874259,-0.0004123975522816181
1773790008050981600,22.397981689453125,-0.00021507407655008137,-0.0007686177268624306,0.001095048151910305
1773790008070946600,22.417946533203125,-0.0006502182222902775,-0.0003766370937228203,-0.0005957186222076416
1773790008090910500,22.437910400390624,0.0009891275549307466,-0.0015102436300367117,-0.0005779815837740898
1773790008110875400,22.45787548828125,0.0000764053693274036,-0.00034345826134085655,-0.0001316666603088379
1773790008130840600,22.477840576171875,-0.000867299793753773,0.0007656312081962824,0.00018540769815444946
1773790008150805500,22.497805419921875,0.00007899102638475597,0.0003160135820508003,-0.0007491414435207844
1773790008170770400,22.5177705078125,-0.0011998151894658804,0.0006866150069981813,-0.0007349569350481033
1773790008190736000,22.53773583984375,0.00037528728717006743,-0.00011445651762187481,-0.0007927268743515015
1773790008210699800,22.55769970703125,-0.000338295561959967,0.0002498647663742304,-0.0013673515059053898
1773790008230665000,22.5776650390625,0.0004230588092468679,-0.0011569038033485413,0.0004973895847797394
1773790008250630000,22.5976298828125,-0.0012032856466248631,0.0006569186225533485,0.000542044173926115
1773790008270594800,22.6175947265625,-0.000632378039881587,0.0006650635041296482,0.0004889951087534428
1773790008290559700,22.637559814453127,-0.0016270752530544996,-0.00021147634834051132,-0.0008208719082176685
1773790008310523600,22.657523681640626,0.000814292870927602,-0.0007441635243594646,-0.0003505353815853596
1773790008330488800,22.67748876953125,0.0014920452376827598,0.00016280729323625565,-0.0005254736170172691
1773790008350453800,22.697453857421873,-0.00021780107636004686,-0.0005579544231295586,-0.0012285592965781689
